subject,age,gender,ntrial,memory_ori,test_ori,type,trial_type,which_change,trial,quest,pas,pas_rt,vis,test_key,test,test_rt,contrast,fix_dur,target_dur,mask_dur,retention_dur,trial_dur
77,44,male,1,75,75,same,catch,clock,4,0,1,0.8612244897959185,0,f,change,0.3469387755102041,0,0.5071678092908769,0.035327174621670565,0.3532938760113211,1.0010231022256448,4.144914572567814
77,44,male,2,45,355,change,catch,anti,3,0,1,0.9346938775510205,0,j,same,1.5224489795918368,0,0.5058425872234693,0.03532557101289058,0.35331247787053144,1.0010070661405734,5.380194729387767
77,44,male,3,45,355,change,valid,anti,1,0,1,0.8244897959183675,0,f,change,0.5673469387755102,0.37944929578103603,0.5051988987697769,0.03529061234758046,0.35332691034682284,1.0010840393483704,4.3194830735915275
77,44,male,4,75,75,same,valid,anti,4,2,3,0.3836734693877551,1,f,change,2.0,0.6772757726489518,0.5054346292199625,0.035323005239206395,0.35336283117703715,1.0010776249150695,5.308678921656792
77,44,male,5,15,65,change,catch,clock,4,2,1,0.7877551020408163,0,j,same,0.7877551020408163,0,0.5056645866793588,0.03533711699401465,0.35327527415256554,1.0010494014049982,4.508447488877664
77,44,male,6,45,45,same,catch,clock,1,0,1,1.926530612244898,0,f,change,1.9632653061224492,0,0.5056241757451971,0.03533807915937359,0.35327527415256554,1.0010737762545432,6.816988820924507
77,44,male,7,45,45,same,valid,clock,3,1,1,2.0,0,j,same,0.3469387755102041,0.5866563402563928,0.5051293021610945,0.035311138536144426,0.35335000230952573,1.0010747384194474,5.261569714634788
77,44,male,8,105,55,change,valid,anti,4,2,2,0.3836734693877551,1,f,change,1.8163265306122451,0.6621055967176825,0.5054913969611334,0.035348021532172424,0.3532996490021105,1.001049080683515,5.120723496841492
77,44,male,9,75,75,same,catch,clock,5,0,1,1.1183673469387756,0,f,change,1.3755102040816327,0,0.5054468166445076,0.03532941967341685,0.35325410652058054,1.0010728140891842,5.426733372504259
77,44,male,10,105,155,change,catch,clock,2,2,1,1.6693877551020408,0,j,same,0.7142857142857143,0,0.5058695278462437,0.03534609720190929,0.35331311931349774,1.001025667999329,5.309008302843267
77,44,male,11,75,75,same,valid,clock,4,0,1,0.7142857142857143,0,j,same,1.1551020408163268,0.4644608367450975,0.5063044264725249,0.035307931319493946,0.35328682013414436,1.0010737762540884,4.792095364673514
77,44,male,12,165,215,change,valid,clock,5,0,3,1.3387755102040817,1,j,same,1.706122448979592,0.5250115996384705,0.5050417451366229,0.035355718852770224,0.3532951588981632,1.001037213980453,5.96869435478493
77,44,male,13,165,165,same,valid,clock,4,2,3,0.7877551020408163,1,f,change,0.6040816326530613,0.6487040103204817,0.5049381520270799,0.035324288126503234,0.3532749534310824,1.0011363169860488,4.319613286601907
77,44,male,14,105,55,change,valid,anti,5,2,1,1.6326530612244898,0,f,change,0.27346938775510204,0.6372479662128292,0.5051126246326021,0.03527650059277221,0.3533317211722533,1.0010920573913609,4.825716620568073
77,44,male,15,45,355,change,valid,anti,5,0,4,1.9632653061224492,1,f,change,1.3020408163265307,0.4746459003734543,0.5056014045044321,0.03534577647997139,0.3533448707617026,1.001036251815549,6.180775428099423
77,44,male,16,15,65,change,valid,clock,5,2,4,0.6040816326530613,1,f,change,0.4938775510204082,0.6725276534717888,0.5055943486272554,0.03531915657913487,0.3532637281718962,1.0010702483155,4.02572508762114
77,44,male,17,105,105,same,catch,anti,4,0,1,0.5673469387755102,0,f,change,0.5306122448979592,0,0.5052271222793934,0.0353518701926987,0.3533355698327796,1.0010311202681805,4.024796598297144
77,44,male,18,135,85,change,valid,anti,2,2,3,0.23673469387755103,1,f,change,0.9346938775510205,0.6633774470393341,0.5062271325427901,0.03529189523396781,0.3533237031297176,1.0010545329523666,4.0970157487181496
77,44,male,19,75,75,same,catch,clock,1,1,1,0.4938775510204082,0,j,same,1.779591836734694,0,0.5053105099218556,0.03532043946552221,0.3532967625069432,1.0010384968672952,5.202790727807496
77,44,male,20,105,55,change,catch,anti,5,1,1,1.706122448979592,0,f,change,1.1183673469387756,0,0.5060712617964782,0.03537111349442057,0.3533144022003398,1.001013159852846,5.757253121263602
77,44,male,21,135,185,change,valid,clock,5,1,1,0.6040816326530613,0,j,same,1.1551020408163268,0.6583667272874901,0.5058640755773922,0.035348021532172424,0.35332562745998075,1.001044590579113,4.685104208895154
77,44,male,22,15,325,change,catch,anti,3,2,1,0.7877551020408163,0,j,same,1.706122448979592,0,0.5057633689634713,0.03532749534269897,0.35327816064864237,1.001068003263299,5.426832475509855
77,44,male,23,45,95,change,valid,clock,3,0,1,1.0081632653061225,0,f,change,1.8163265306122451,0.4377771531366896,0.5061860801647526,0.03532492956946953,0.35328810302098645,1.001038817589233,5.746095213292847
77,44,male,24,45,45,same,valid,clock,5,2,2,1.9632653061224492,1,f,change,0.27346938775510204,0.6550567643470357,0.5050231432778673,0.03530921420633604,0.35332658962488495,1.001024385112487,5.155807243691925
77,44,male,25,15,15,same,catch,anti,1,2,1,0.8612244897959185,0,f,change,0.7142857142857143,0,0.5053262252854438,0.03531306286640756,0.3532954796201011,1.0010692861505959,4.495836390880413
77,44,male,26,165,215,change,valid,clock,3,1,3,0.9714285714285715,1,f,change,0.7142857142857143,0.7193271544646402,0.5062521488353013,0.035336154829110455,0.3532415983740975,1.0010843600703083,4.602982134518243
77,44,male,27,135,185,change,valid,clock,1,1,3,1.0448979591836736,1,f,change,0.3836734693877551,0.6880344285813975,0.5057755563880164,0.03530151688528349,0.3533365319976838,1.0010740969760263,4.343751443247584
77,44,male,28,165,215,change,valid,clock,4,0,1,0.4571428571428572,0,j,same,0.6775510204081634,0.4666434914429485,0.5055475232588833,0.03533904132427779,0.3532675768324225,1.0010769834711937,4.060807872306668
77,44,male,29,75,75,same,valid,clock,4,2,1,1.6693877551020408,0,f,change,1.5224489795918368,0.6478845664394022,0.5055648422307968,0.03534288998434931,0.3533439085972532,1.00103528965019,6.109964887388287
77,44,male,30,75,75,same,valid,clock,2,1,1,1.9632653061224492,0,f,change,0.27346938775510204,0.6644653867159326,0.5056979417363436,0.03536052967820069,0.3532614831196952,1.001068965428658,5.155868501537043
77,44,male,31,15,15,same,valid,anti,5,1,3,1.5959183673469388,1,f,change,1.8163265306122451,0.6969497474130195,0.5060257193144935,0.035364378338726965,0.35324929569515007,1.001107772754949,6.334939935240072
77,44,male,32,105,105,same,valid,clock,5,1,1,1.742857142857143,0,j,same,1.0081632653061225,0.6790747068137188,0.5049272474893769,0.03532845750805791,0.353258917346011,1.0010901330610977,5.673821540182871
77,44,male,33,165,215,change,catch,clock,4,1,1,0.9346938775510205,0,f,change,0.27346938775510204,0,0.5054147444748196,0.03534770081023453,0.35330798776612937,1.001045552744472,4.131819184802225
77,44,male,34,135,135,same,valid,clock,4,1,1,0.7877551020408163,0,f,change,0.9346938775510205,0.7058786969253572,0.5053364883797258,0.035343531428225106,0.35323903260041334,1.0017822504914875,4.649077540244434
77,44,male,35,165,165,same,valid,clock,1,1,3,2.0,1,j,same,1.926530612244898,0.732249541053638,0.5058813945493057,0.03533904132427779,0.3533512851959131,1.0010307995466974,6.8529122171876224
77,44,male,36,45,45,same,valid,clock,3,0,1,1.2653061224489797,0,f,change,1.0081632653061225,0.494109191405038,0.5050965885475307,0.03534417287164615,0.3532566722942647,1.0010907745045188,5.19084897599987
77,44,male,37,105,105,same,valid,anti,1,2,2,0.5306122448979592,1,j,same,1.3387755102040817,0.6720577181619973,0.5056620209061293,0.0353072898760729,0.3533326833371575,1.0010721726457632,4.790836531997684
77,44,male,38,75,25,change,valid,anti,4,0,4,0.23673469387755103,1,j,same,0.9714285714285715,0.5190775051387336,0.5052951152802052,0.03533583410717256,0.3533102328183304,1.0010401004756204,4.131221359552455
77,44,male,39,165,115,change,valid,anti,4,2,1,0.5306122448979592,0,j,same,1.0816326530612246,0.6656737432456223,0.505431422003312,0.03534032421111988,0.35329451745474216,1.0010558158392087,4.543706670498068
77,44,male,40,15,15,same,catch,clock,5,2,1,2.0,0,f,change,0.8612244897959185,0,0.505290945897741,0.03530472410238872,0.35332338240823447,1.0010247058344248,5.791730383377853
77,44,male,41,165,215,change,valid,clock,1,0,1,0.9714285714285715,0,j,same,0.8979591836734694,0.4945035428688258,0.5058547746480144,0.03537881081501837,0.35326885971880984,1.001036251815549,4.791013249654952
77,44,male,42,45,95,change,catch,clock,2,0,1,1.6326530612244898,0,j,same,0.4571428571428572,0,0.5058320034077042,0.03534321070628721,0.35329740395036424,1.0008755702433518,5.014815418246599
77,44,male,43,165,165,same,valid,clock,3,1,4,0.9714285714285715,1,j,same,1.3387755102040817,0.7179477835576938,0.5058881297049993,0.03533358905542627,0.3532611623977573,1.001059664499735,5.227085075921423
77,44,male,44,45,95,change,catch,clock,5,0,1,0.9714285714285715,0,j,same,1.6326530612244898,0,0.505589217079887,0.03529606461643198,0.3533111949832346,1.0012684543266914,5.52088218993913
77,44,male,45,75,75,same,valid,anti,5,0,1,0.7877551020408163,0,f,change,1.0816326530612246,0.5138654760915479,0.5064734468091956,0.03531915657868012,0.3532861786907233,1.001058702334376,4.804237246822595
77,44,male,46,15,15,same,valid,clock,5,0,2,1.926530612244898,1,f,change,1.412244897959184,0.532924639215675,0.5044990840187893,0.03536341617382277,0.35331215714859354,1.001034968928252,6.262406798273787
77,44,male,47,75,75,same,catch,anti,2,2,1,1.926530612244898,0,f,change,0.8612244897959185,0,0.5052393097043932,0.03532941967341685,0.3531944522842423,1.0011751243118852,5.708783092065005
77,44,male,48,135,135,same,valid,anti,1,0,4,0.3469387755102041,1,j,same,0.6408163265306123,0.5134989514788846,0.5063326499825962,0.03529895111159931,0.3532781606481876,1.0011199601794942,3.908033373017588
77,44,male,49,15,15,same,valid,clock,1,0,4,0.5306122448979592,1,f,change,0.8244897959183675,0.4971322419400737,0.5053432235354194,0.035365661225569056,0.35332338240823447,1.001012197687487,4.284158144022058
77,44,male,50,45,95,change,valid,clock,1,2,2,1.706122448979592,1,f,change,0.4571428571428572,0.6868533984755054,0.5053185279643913,0.035321401630881155,0.3533278725121818,1.0010676825418159,5.097327169489745
77,44,male,51,165,115,change,valid,anti,1,1,2,0.6408163265306123,1,j,same,1.779591836734694,0.7058733583265777,0.49845123490695187,0.03531370430982861,0.35328265075213494,1.001013801296267,5.349192166179819
77,44,male,52,75,25,change,valid,anti,3,2,2,0.3469387755102041,1,j,same,0.31020408163265306,0.6814905333868295,0.5050202567827,0.03528868801731733,0.3533121571481388,1.0010882087308346,3.577216956684424
77,44,male,53,135,135,same,valid,anti,2,0,3,0.8244897959183675,1,j,same,1.1551020408163268,0.4832763650232976,0.5057162228736161,0.03540382710752965,0.35330830848806727,1.0010737762540884,4.9088816819162275
77,44,male,54,15,65,change,catch,clock,4,1,1,2.0,0,j,same,0.42040816326530617,0,0.5057563130858398,0.03534738008875138,0.35327848136967077,1.0010943024431072,5.332941518322059
77,44,male,55,45,45,same,catch,clock,5,2,1,1.448979591836735,0,f,change,0.2,0,0.5053560524033855,0.03533166472516314,0.35329868683720633,1.001059985221218,4.578585476181615
77,44,male,56,75,125,change,valid,clock,3,1,1,1.926530612244898,0,j,same,1.6693877551020408,0.6953290262425404,0.5057566338077777,0.03535603957425337,0.3533022147757947,1.001078587079519,6.522862646441354
77,44,male,57,15,325,change,valid,anti,1,2,3,1.779591836734694,1,j,same,1.2285714285714286,0.6762976301850974,0.5045920933121124,0.035321401630881155,0.35328714085608226,1.0010840393483704,5.932249144314483
77,44,male,58,15,65,change,valid,clock,1,0,2,0.3469387755102041,1,f,change,0.5306122448979592,0.47082097168246084,0.5056065360518005,0.035386187414587766,0.3533057427143831,1.0010654374900696,3.8017048282727046
77,44,male,59,15,15,same,valid,anti,1,2,1,1.0448979591836736,0,f,change,1.1918367346938776,0.6716160403523065,0.5053438649783857,0.035320118744039064,0.35334487076215737,1.0010699275935622,5.155507689623391
77,44,male,60,105,155,change,valid,clock,5,1,1,1.889795918367347,0,j,same,1.2285714285714286,0.7127788163164064,0.5056937723543342,0.035321722352364304,0.35327527415256554,1.0011113006935375,6.039630939124436
77,44,male,61,15,15,same,valid,anti,2,0,1,0.7142857142857143,0,f,change,1.1551020408163268,0.4597586149082994,0.5049859395603562,0.03530696915458975,0.353337494162588,1.0010304788247595,4.790354487281093
77,44,male,62,135,135,same,valid,anti,2,2,3,2.0,1,f,change,1.2653061224489797,0.6875956987646824,0.5055266763483814,0.03532845750805791,0.35332434457313866,1.0010651167681317,6.192751497128938
77,44,male,63,165,215,change,valid,clock,1,2,3,1.3387755102040817,1,f,change,1.0816326530612246,0.6833504315132125,0.5047409081812475,0.03532781606463686,0.35327559487450344,1.0010885294527725,5.343314299569556
77,44,male,64,45,45,same,catch,clock,4,2,1,0.3469387755102041,0,f,change,1.8530612244897962,0,0.5052678539359476,0.035358284626454406,0.3533179301389282,1.0010696068725338,5.120149404996937
77,44,male,65,45,355,change,valid,anti,3,0,1,1.5959183673469388,0,j,same,1.559183673469388,0.46950244015185216,0.5059949300311928,0.03535636029619127,0.3533192130257703,1.0010394590321994,6.074932456009719
77,44,male,66,75,125,change,catch,clock,5,0,1,1.448979591836735,0,j,same,1.742857142857143,0,0.505328791059128,0.03531017637124023,0.35328233003019704,1.001116432240451,6.121400540351715
77,44,male,67,135,135,same,valid,clock,4,2,4,1.6326530612244898,1,j,same,0.9346938775510205,0.6790957894255696,0.5055901792447912,0.03534032421111988,0.3532977246718474,1.0010718519238253,5.485679455337504
77,44,male,68,75,25,change,valid,anti,2,0,1,0.5673469387755102,0,j,same,0.3836734693877551,0.47915014976916365,0.5055811990373513,0.03532525029095268,0.3532938760113211,1.0010535707870076,3.872574702498696
77,44,male,69,135,135,same,valid,clock,5,1,2,0.4938775510204082,1,j,same,1.6693877551020408,0.7288706945101965,0.5052351403223838,0.03532396740456534,0.353325627459526,1.0010497221264814,5.09672934423952
77,44,male,70,45,95,change,catch,clock,4,1,1,0.6775510204081634,0,f,change,0.31020408163265306,0,0.5052957567236263,0.035305044824326615,0.35333589055426273,1.001072493367701,3.9073412555871982
77,44,male,71,45,45,same,valid,anti,2,0,1,1.5224489795918368,0,f,change,1.9632653061224492,0.4887267735990443,0.5056969795709847,0.035352832357148145,0.35331119498368935,1.0010526086221034,6.415916391701558
77,44,male,72,45,45,same,catch,clock,2,2,1,1.2653061224489797,0,j,same,1.8530612244897962,0,0.5060375860175554,0.03532621245631162,0.3532444848697196,1.001103603372485,6.039844219055794
77,44,male,73,105,55,change,catch,anti,4,0,1,0.6040816326530613,0,j,same,0.6408163265306123,0,0.5054843410839567,0.03531242142298652,0.3533089499314883,1.0010708897589211,4.166666239037568
77,44,male,74,165,215,change,valid,clock,4,1,2,1.2653061224489797,1,j,same,1.4857142857142858,0.7196984508676577,0.5058775458892342,0.03533423049884732,0.3533134400349809,1.0010680032637538,5.674105378887816
77,44,male,75,105,105,same,catch,anti,2,2,1,1.1183673469387756,0,j,same,0.5673469387755102,0,0.5061200114946587,0.03530472410238872,0.35327431198766135,1.0011122628584417,4.614863911368047
77,44,male,76,165,165,same,valid,clock,4,1,2,0.9714285714285715,1,j,same,0.8979591836734694,0.7113936278864603,0.5058926198084919,0.035302479050187685,0.3533137607569188,1.0010564572826297,4.791100806679424
77,44,male,77,75,75,same,valid,clock,3,1,4,0.7142857142857143,1,j,same,0.5673469387755102,0.7037352904490174,0.5058243060861969,0.035364699060210114,0.3532954796201011,1.00107185192428,4.202839477505677
77,44,male,78,75,75,same,valid,clock,1,1,3,1.1183673469387756,1,f,change,0.27346938775510204,0.6965730390864964,0.5051270571088935,0.03531755297035488,0.3532996490021105,1.0010587023339212,4.319804436735922
77,44,male,79,45,45,same,valid,anti,2,2,2,1.5959183673469388,1,f,change,1.0816326530612246,0.6752376136215528,0.5046527097133549,0.03534417287164615,0.3533057427143831,1.0010410626409794,5.602301242347949
77,44,male,80,45,45,same,valid,clock,4,2,1,0.8244897959183675,0,j,same,0.4571428571428572,0.6716442510445786,0.5058012141239487,0.035320118744039064,0.3533041391056031,1.0010340067633479,4.214548385358739
77,44,male,81,45,95,change,valid,clock,3,2,3,1.0448979591836736,1,j,same,0.3469387755102041,0.6842863679377023,0.5050055035844707,0.035306969154135004,0.3533227409643587,1.001069606872079,4.3076789113933955
77,44,male,82,15,65,change,valid,clock,1,1,4,1.1918367346938776,1,f,change,1.706122448979592,0.6901311543068107,0.5050821560707845,0.03531627008351279,0.3533407013796932,1.0010673618203327,5.826460053470782
77,44,male,83,135,85,change,valid,anti,1,1,4,2.0,1,f,change,1.3387755102040817,0.6840671493534496,0.5055455989286202,0.035365661225569056,0.3532342217754376,1.001056457282175,6.25136306722834
77,44,male,84,165,165,same,catch,clock,3,0,1,1.3755102040816327,0,f,change,0.27346938775510204,0,0.5055642007873757,0.03531017637124023,0.3533320418941912,1.001037213980453,4.578801963330079
77,44,male,85,15,15,same,catch,clock,3,1,1,1.779591836734694,0,f,change,1.0448979591836736,0,0.5055568241882611,0.03534898369707662,0.35331600580866507,1.001069606872079,5.756690896122109
77,44,male,86,45,45,same,valid,clock,5,0,2,0.6040816326530613,1,j,same,0.4938775510204082,0.49825234830995746,0.5059237298137305,0.035297668225211964,0.3533269103463681,1.0010712104804043,4.026062486850606
77,44,male,87,135,185,change,catch,clock,3,2,1,1.2653061224489797,0,j,same,0.8244897959183675,0,0.5052280844447523,0.035295102451073035,0.35334583292706156,1.0010490806830603,5.014706693590142
77,44,male,88,165,115,change,valid,anti,3,0,1,1.3387755102040817,0,j,same,1.3755102040816327,0.48869918718910793,0.5054853032488609,0.03535732246155021,0.35328393363897703,1.0010497221264814,5.639077758335134
77,44,male,89,165,215,change,valid,clock,2,1,1,0.9714285714285715,0,j,same,1.8530612244897962,0.6782089233060878,0.5054266111774268,0.03528868801731733,0.35334198426699004,1.0010554951172708,5.744860114022686
77,44,male,90,75,75,same,valid,anti,3,2,3,1.5959183673469388,1,f,change,0.5673469387755102,0.6807250052880105,0.5055196204707499,0.03530408265896767,0.35331408147840193,1.0010933402777482,5.0858623308513415
77,44,male,91,15,15,same,catch,anti,4,1,1,0.8244897959183675,0,f,change,0.9714285714285715,0,0.504996844098514,0.03532621245631162,0.3532990075586895,1.0010689654291127,4.719669028033877
77,44,male,92,135,85,change,valid,anti,2,0,2,0.8979591836734694,1,j,same,1.742857142857143,0.4973139230486798,0.5060513770504258,0.03529125379100151,0.35333909777136796,1.0010628717163854,5.56920212138175
77,44,male,93,15,65,change,valid,clock,2,2,1,1.3387755102040817,0,f,change,0.42040816326530617,0.6774084198656555,0.504734814468975,0.03531755297035488,0.3533089499314883,1.0010898123396146,4.684448653738855
77,44,male,94,105,155,change,valid,clock,3,0,1,0.3469387755102041,0,f,change,0.5306122448979592,0.4886701980253134,0.5048852329464353,0.035341927819899865,0.35331536436569877,1.0010407419190415,3.8013642218265886
77,44,male,95,105,155,change,catch,clock,3,2,1,0.23673469387755103,0,f,change,1.0081632653061225,0,0.505282286412239,0.03533166472516314,0.35326821827584354,1.0010882087308346,4.166826279166344
77,44,male,96,105,105,same,valid,anti,2,0,4,1.412244897959184,1,j,same,1.412244897959184,0.4965347087717594,0.5055808783154134,0.03534000348963673,0.3532980453937853,1.0010638338812896,5.757183203932982
77,44,male,97,45,45,same,valid,anti,3,2,2,1.0448979591836736,1,j,same,0.3469387755102041,0.6889991883414379,0.504792865096988,0.03533102328174209,0.3533275517902439,1.0010311202677258,4.307472366618185
77,44,male,98,45,45,same,valid,anti,5,2,1,0.31020408163265306,0,f,change,0.8979591836734694,0.685986928524244,0.5049436042959314,0.0353072898760729,0.35331279859155984,1.0010651167685864,4.13125567677389
77,44,male,99,135,135,same,valid,anti,3,2,3,1.1918367346938776,1,j,same,0.9346938775510205,0.6969336473970407,0.5051825419632223,0.03533968276769883,0.3532999697240484,1.0010160463480133,5.049846566738324
77,44,male,100,75,125,change,valid,clock,5,2,2,1.2285714285714286,1,j,same,0.7142857142857143,0.6941633253098473,0.5054099336493891,0.035329098951478954,0.3533220995213924,1.0010532500655245,4.861804226341974
77,44,male,101,105,105,same,valid,clock,2,1,1,1.0816326530612246,0,j,same,0.5673469387755102,0.6877694033104107,0.5024669913223079,0.035327495343153714,0.3533070256012252,1.0010651167685864,4.587344706552813
77,44,male,102,75,25,change,valid,anti,5,0,1,1.0816326530612246,0,j,same,1.5959183673469388,0.4886413574727663,0.5056504749245505,0.035333268333943124,0.35331728869550716,1.0010452320229888,5.603592788636433
77,44,male,103,45,355,change,valid,anti,3,1,3,1.5959183673469388,1,f,change,0.9346938775510205,0.6972010387461398,0.5055266763479267,0.035373037824683706,0.3532784813701255,1.0010875672874135,5.450700263761519
77,44,male,104,75,75,same,valid,clock,2,2,2,0.23673469387755103,1,f,change,0.8979591836734694,0.6913101630627654,0.5047447568417738,0.0352784249225806,0.35336571767265923,1.001036572537032,4.060119603536805
77,44,male,105,105,105,same,catch,anti,5,0,1,0.3836734693877551,0,f,change,1.926530612244898,0,0.504953546669185,0.03531466647518755,0.3533051012714168,1.0010933402777482,5.2263644142594785
77,44,male,106,75,75,same,valid,clock,1,2,3,0.6775510204081634,1,j,same,0.6775510204081634,0.6885878492421068,0.5054660599466843,0.03530472410238872,0.35329708322842635,1.0010898123396146,4.272923904286472
77,44,male,107,15,325,change,valid,anti,5,1,2,1.706122448979592,1,j,same,0.9714285714285715,0.6920709734247629,0.5052947945587221,0.035315307918608596,0.35328329219510124,1.0010680032637538,5.602818887172361
77,44,male,108,135,85,change,valid,anti,1,0,4,1.4857142857142858,1,j,same,1.559183673469388,0.495877126237936,0.5059728002343036,0.03534802153171768,0.35327687776134553,1.0010680032637538,5.968696920558159
77,44,male,109,105,105,same,valid,clock,2,2,4,0.5306122448979592,1,f,change,1.926530612244898,0.6860655228309489,0.5058759422799994,0.035325891734828474,0.3533532095261762,1.001012518409425,5.379718457661966
77,44,male,110,105,155,change,valid,clock,3,2,3,0.9714285714285715,1,f,change,1.3387755102040817,0.683674153064239,0.5055882549145281,0.03534770081023453,0.35328906518589065,1.0010465149093761,5.226368583641488
77,44,male,111,165,165,same,valid,anti,4,2,1,0.9714285714285715,0,f,change,1.3387755102040817,0.6811825453438116,0.5058380971199767,0.03532236379578535,0.3533426257104111,1.001058381612438,5.226673589978873
77,44,male,112,165,215,change,catch,clock,5,1,1,0.5673469387755102,0,j,same,0.4571428571428572,0,0.5059782525031551,0.03531049709272338,0.3533217787994545,1.0010638338817444,3.9548311592679966
77,44,male,113,165,165,same,valid,clock,5,2,2,1.2285714285714286,1,j,same,1.4857142857142858,0.689565491677689,0.505885243209832,0.03531081781466128,0.3533423049884732,1.0010660789334906,5.638822143139805
77,44,male,114,75,25,change,valid,anti,2,1,1,2.0,0,f,change,0.6040816326530613,0.6870675615196604,0.5059109009457643,0.03533390977736417,0.3532582759030447,1.0010670410983948,5.533694059720801
77,44,male,115,165,165,same,valid,anti,2,1,3,0.8612244897959185,1,f,change,0.27346938775510204,0.6954611478546054,0.5049070420218413,0.035328457508512656,0.35330381838411995,1.001068003263299,4.06052050566268
77,44,male,116,135,85,change,catch,anti,3,1,1,0.6775510204081634,0,f,change,0.7877551020408163,0,0.5046315420809151,0.03532525029140743,0.3532736705442403,1.0010875672874135,4.389223365987164
77,44,male,117,45,355,change,valid,anti,5,1,3,1.0816326530612246,1,j,same,1.926530612244898,0.6909284676304408,0.5059548398185143,0.03534609720190929,0.3532951588981632,1.0010869258439925,5.9338286986908315
77,44,male,118,165,165,same,valid,anti,3,2,4,0.8612244897959185,1,j,same,1.8530612244897962,0.6872933996632845,0.5050151252357864,0.03530312049406348,0.35331087426175145,1.0010830771834662,5.638332721824099
77,44,male,119,135,135,same,valid,clock,1,1,4,1.559183673469388,1,f,change,0.2,0.6865098019870497,0.5057473328783999,0.035323325960689544,0.3533150436442156,1.0010692861505959,4.684914983091858
77,44,male,120,75,125,change,catch,clock,1,1,1,0.31020408163265306,0,j,same,1.706122448979592,0,0.5058563782567944,0.03531306286640756,0.3533156850871819,1.0010830771834662,4.944805078178888
77,44,male,121,105,155,change,catch,clock,5,1,1,0.23673469387755103,0,f,change,1.4857142857142858,0,0.5053095477564966,0.03531306286686231,0.3533227409648134,1.0010628717163854,4.648985813837953
77,44,male,122,165,115,change,catch,anti,3,1,1,0.8979591836734694,0,j,same,1.6693877551020408,0,0.506180948617839,0.035308252040977095,0.3533355698327796,1.0010628717163854,5.498058671544641
77,44,male,123,15,15,same,valid,clock,1,2,2,1.0816326530612246,1,j,same,0.3469387755102041,0.685145582814967,0.5054686257203684,0.03535764318303336,0.35330542199289994,1.0010657582115527,4.355498516982607
77,44,male,124,105,155,change,valid,clock,4,0,1,1.1551020408163268,0,j,same,1.6326530612244898,0.48861342491735577,0.5052967188885304,0.03530600698923081,0.35331889230428715,1.0010577401694718,5.70889694826883
77,44,male,125,45,95,change,valid,clock,2,2,3,1.1918367346938776,1,j,same,0.6408163265306123,0.6830836867644929,0.5060763933429371,0.03529221595636045,0.353360906846774,1.0010311202681805,4.755895506304114
77,44,male,126,135,135,same,valid,clock,3,2,1,1.0448979591836736,0,f,change,0.5673469387755102,0.6809123142020184,0.5056873579205785,0.03535507740934918,0.3533259481814639,1.0010529293435866,4.531652666095397
77,44,male,127,165,165,same,valid,anti,4,1,2,1.3387755102040817,1,j,same,0.9346938775510205,0.6824051831714913,0.5060523392157847,0.03532781606463686,0.3533076670446462,1.0010391383107162,5.191935901843863
77,44,male,128,45,45,same,valid,anti,3,1,1,0.31020408163265306,0,f,change,0.27346938775510204,0.678306474443934,0.505429176951111,0.03531723224887173,0.3532922724029959,1.0010795492448779,3.506610074253331
77,44,male,129,45,95,change,valid,clock,4,1,1,1.3755102040816327,0,f,change,1.1183673469387756,0.6851516792620813,0.5059410487856439,0.03531627008351279,0.3532624452850541,1.001093019556265,5.427714460186962
77,44,male,130,135,135,same,valid,clock,5,0,1,1.889795918367347,0,j,same,1.559183673469388,0.4953145577806519,0.5046029978498154,0.03533358905542627,0.3532701426056519,1.0010997547119587,6.368267089335404
77,44,male,131,105,105,same,catch,anti,2,2,1,0.42040816326530617,0,f,change,1.8163265306122451,0,0.5049654133717922,0.03531755297035488,0.3533034976626368,1.0010420248058836,5.1553069178389705
77,44,male,132,15,15,same,catch,anti,5,0,1,1.6326530612244898,0,j,same,0.31020408163265306,0,0.5057701041191649,0.035309534927819186,0.35333524911129643,1.0010731348106674,4.861840788616064
77,44,male,133,135,135,same,catch,clock,3,2,1,0.5306122448979592,0,j,same,1.8530612244897962,0,0.5058971099128939,0.03531627008396754,0.3533137607569188,1.0010590230558591,5.309093935537476
77,44,male,134,15,15,same,catch,anti,4,0,1,1.1918367346938776,0,f,change,1.0448979591836736,0,0.5062274532642732,0.03531627008351279,0.3533342869459375,1.0010740969760263,5.168113014630308
77,44,male,135,75,25,change,valid,anti,5,2,3,0.8979591836734694,1,f,change,1.926530612244898,0.6882727086954378,0.506224246047168,0.03534128637602407,0.3532845750823981,1.0010670410983948,5.746067631226197
77,44,male,136,75,25,change,catch,anti,5,1,1,0.2,0,f,change,0.4571428571428572,0,0.5050978714343728,0.035309855649302335,0.35329708322842635,1.0010968682167913,3.58872445130919
77,44,male,137,45,355,change,valid,anti,2,1,2,1.5959183673469388,1,f,change,0.6775510204081634,0.6920614627871378,0.5063704951430736,0.035348342253655574,0.3532739912661782,1.0010359310931563,5.192145974557661
77,44,male,138,105,55,change,valid,anti,1,0,1,1.0448979591836736,0,f,change,0.4571428571428572,0.5021321262491053,0.5056411739956275,0.03533872060279464,0.35331344003543563,1.0010641546032275,4.425765755132943
77,44,male,139,15,15,same,valid,clock,2,1,1,1.8163265306122451,0,f,change,0.42040816326530617,0.688225623575631,0.5057745942231122,0.03533551338568941,0.3532499371385711,1.0011212430658816,5.167843608401199
77,44,male,140,75,75,same,valid,clock,5,0,4,1.412244897959184,1,j,same,1.6326530612244898,0.5085360848246923,0.5058592647519617,0.03530600698923081,0.3533111949832346,1.0010943024431072,5.968896088734709
77,44,male,141,45,95,change,valid,clock,3,1,3,0.6408163265306123,1,f,change,0.3469387755102041,0.6946632623628097,0.5051376409251134,0.03532236379578535,0.35336892488976446,1.001060947386577,3.907255302171052
77,44,male,142,135,85,change,valid,anti,3,2,2,1.0448979591836736,1,j,same,0.8979591836734694,0.686314861865625,0.505408650762547,0.03516200294552618,0.3533092706534262,1.0010782663580358,4.861434113499399
77,44,male,143,135,135,same,valid,anti,4,0,3,1.3755102040816327,1,f,change,0.9714285714285715,0.5018563539634269,0.5053412992051562,0.035327495343153714,0.3533259481814639,1.001058060890955,5.273750404109251
77,44,male,144,165,165,same,valid,clock,2,2,3,1.8530612244897962,1,f,change,1.3020408163265307,0.6844425801764618,0.5053919732335999,0.03529061234758046,0.3533355698327796,1.0010436284142088,6.074732646390203
77,44,male,145,45,355,change,valid,anti,3,2,4,1.448979591836735,1,j,same,1.3020408163265307,0.6824836493782874,0.5054108958142933,0.035283235748011066,0.3533506437529468,1.0010548536738497,5.673897551225764
77,44,male,146,45,45,same,valid,clock,1,1,3,1.889795918367347,1,j,same,0.8612244897959185,0.6910003609050468,0.5058249475300727,0.035311138536599174,0.35333332478057855,1.0010776249146147,5.674880242517247
77,44,male,147,135,85,change,valid,anti,3,0,1,0.6775510204081634,0,f,change,1.889795918367347,0.49552161522671506,0.5047024215768943,0.035355718852770224,0.3533057427143831,1.0010670410983948,5.485302286617298
77,44,male,148,15,15,same,catch,clock,1,1,1,0.8979591836734694,0,j,same,1.1918367346938776,0,0.5048496328377041,0.035336475550593605,0.3532951588981632,1.0010619095514812,5.014359351987878
77,44,male,149,165,165,same,valid,anti,5,0,4,0.9714285714285715,1,f,change,0.27346938775510204,0.5014374805058449,0.5054692671637895,0.03533294761200523,0.3532743119881161,1.0010824357405,4.1670193536306215
77,44,male,150,15,15,same,valid,anti,3,0,1,1.5224489795918368,0,j,same,1.5959183673469388,0.4955185419421235,0.5047797155066291,0.03533647555104835,0.3532871408556275,1.001059985221218,6.038388142533677
77,44,male,151,75,75,same,valid,anti,3,1,2,0.42040816326530617,1,f,change,0.2,0.6875250989271975,0.502024074653491,0.03529734750327407,0.353329476120507,1.0010872465659304,3.5393243291787257
77,44,male,152,15,325,change,valid,anti,4,0,2,1.8163265306122451,1,f,change,1.0081632653061225,0.5010666149727927,0.5050702893681773,0.035339041324732534,0.3532855372473023,1.0011058484242312,5.7446667188373794
77,44,male,153,165,165,same,valid,clock,2,1,3,0.7510204081632653,1,j,same,0.8979591836734694,0.6842904415857335,0.5049381520270799,0.035315307918608596,0.3533429464314395,1.001058702334376,4.578376686354659
77,44,male,154,75,125,change,valid,clock,1,0,1,1.0816326530612246,0,f,change,0.5673469387755102,0.4955144836478072,0.505167147321572,0.03529606461643198,0.3533342869459375,1.001035610371673,4.5783600088261664
77,44,male,155,135,135,same,catch,clock,2,1,1,1.8530612244897962,0,f,change,0.4938775510204082,0,0.5057717077274901,0.035357001739612315,0.3532736705442403,1.0010510050133234,5.273824490822335
77,44,male,156,45,45,same,valid,clock,1,2,1,1.5959183673469388,0,j,same,1.3020408163265307,0.680555755793326,0.5056857543117985,0.03534321070628721,0.35330574271483783,1.0010712104804043,5.815752759489442
77,44,male,157,135,185,change,valid,clock,4,0,1,1.5224489795918368,0,j,same,1.6326530612244898,0.5007356375071923,0.5056033288346953,0.03534609720190929,0.3533022147757947,1.001068965428658,6.074879536929075
77,44,male,158,105,105,same,valid,anti,4,2,2,1.8530612244897962,1,j,same,0.7877551020408163,0.6871350164404376,0.5052300087750154,0.035346738644875586,0.3531604557842911,1.001228043392075,5.567637961647051
77,44,male,159,15,65,change,valid,clock,5,0,3,1.559183673469388,1,j,same,0.31020408163265306,0.5057587556350969,0.5058769044453584,0.03531883585719697,0.3533127985920146,1.00107922852294,4.7917454572980205
77,44,male,160,165,115,change,valid,anti,5,0,1,0.4938775510204082,0,f,change,1.779591836734694,0.5005891271664399,0.5046725944589525,0.035315307918608596,0.3532627660065373,1.0010901330610977,5.202367054440401
77,44,male,161,75,25,change,valid,anti,2,2,3,0.23673469387755103,1,f,change,1.3387755102040817,0.6854166754658142,0.5052300087750154,0.03533198544710103,0.353318571582804,1.0010494014049982,4.496544223673936
77,44,male,162,165,115,change,valid,anti,2,2,4,1.1551020408163268,1,f,change,0.4571428571428572,0.6837569743842151,0.5049949197682508,0.035349945861980814,0.35327559487450344,1.0010978303821503,4.543573250271038
77,44,male,163,165,165,same,valid,clock,3,0,1,0.3836734693877551,0,f,change,0.5306122448979592,0.5053530642246236,0.5044894623674736,0.03532621245631162,0.35327334982275715,1.0010631924378686,3.8361237190374595
77,44,male,164,105,55,change,valid,anti,2,1,4,0.8244897959183675,1,f,change,1.742857142857143,0.6810188877969864,0.505110700302339,0.03530664843219711,0.3533384563279469,1.0010914159479398,5.49760581250348
77,44,male,165,45,95,change,valid,clock,1,0,4,1.8163265306122451,1,j,same,2.0,0.5102555616591775,0.504986581004232,0.03533423049884732,0.35330798776612937,1.0010465149098309,6.745694952610393
77,44,male,166,165,215,change,valid,clock,5,1,2,1.4857142857142858,1,f,change,0.6408163265306123,0.6778871618720874,0.5049144186214107,0.03526623749803548,0.35336732128098447,1.0010205364519607,5.049398518522139
77,44,male,167,15,15,same,valid,clock,3,1,1,1.2285714285714286,0,f,change,1.4857142857142858,0.674967431776939,0.5054346292199625,0.03532396740456534,0.35329708322842635,1.0010981511036334,5.638704438274999
77,44,male,168,15,15,same,valid,anti,4,2,1,1.6693877551020408,0,j,same,1.9632653061224492,0.6820044611981204,0.5054971699519228,0.035306969154135004,0.3533419842665353,1.0010673618203327,6.557654536544305
77,44,male,169,15,15,same,valid,clock,4,2,4,1.448979591836735,1,f,change,0.27346938775510204,0.6879432891513575,0.5051812590763802,0.03529734750327407,0.35335385096959726,1.0010554951177255,4.649530078563657
77,44,male,170,75,75,same,valid,clock,1,0,1,1.3387755102040817,0,j,same,1.3755102040816327,0.5053545142796941,0.5047598307614862,0.03536020895671754,0.35327848136967077,1.0010647960466486,5.638339456979338
77,44,male,171,75,75,same,valid,anti,1,1,2,1.0081632653061225,1,f,change,0.31020408163265306,0.6797893739658409,0.5053326397191995,0.03533102328174209,0.35329483817668006,1.0010833979054041,4.237683645245852
77,44,male,172,135,185,change,valid,clock,3,1,1,1.4857142857142858,0,j,same,0.8979591836734694,0.6769353157147253,0.5049346240884915,0.03530921420633604,0.3532406362091933,1.0011116214150206,5.308596816901172
77,44,male,173,105,105,same,catch,anti,1,2,1,1.9632653061224492,0,j,same,0.7877551020408163,0,0.5053371298231468,0.03532813678657476,0.3533240238516555,1.0010397797536825,5.673697100162826
77,44,male,174,15,325,change,catch,anti,4,2,1,0.6408163265306123,0,j,same,1.8163265306122451,0,0.5062127000660439,0.035327495343153714,0.3533070256012252,1.0010724933672464,5.380119039066358
77,44,male,175,15,15,same,catch,clock,4,1,1,0.6408163265306123,0,j,same,1.2285714285714286,0,0.5057059597788793,0.03533134400367999,0.3533057427143831,1.001068323985237,4.790548203188791
77,44,male,176,45,95,change,valid,clock,5,2,2,0.8612244897959185,1,f,change,0.8244897959183675,0.6863478690555463,0.5064147547377615,0.035309534927819186,0.3533047805494789,1.0010904537825809,4.615078474185793
77,44,male,177,105,55,change,valid,anti,3,2,4,1.4857142857142858,1,f,change,0.5673469387755102,0.6848125088028837,0.5056126297640731,0.03532557101289058,0.3533352491108417,1.001069927594017,4.979789722023725
77,44,male,178,165,165,same,valid,clock,1,2,2,1.742857142857143,1,j,same,1.2285714285714286,0.6832002663649085,0.5050696479243015,0.03533198544710103,0.3532970832288811,1.0010625509944475,5.897625312383298
77,44,male,179,75,75,same,valid,anti,5,2,1,0.6040816326530613,0,f,change,0.4938775510204082,0.6816120126409231,0.5055148096453195,0.03533839988085674,0.35332819323366493,1.0010394590321994,4.025804305881138
77,44,male,180,45,45,same,valid,clock,5,1,3,0.9714285714285715,1,f,change,0.23673469387755103,0.681954875827794,0.5052027474303031,0.03535796390451651,0.35328842374292435,1.001080511409782,4.130830079077441
77,44,male,181,45,45,same,valid,anti,3,0,3,0.7142857142857143,1,f,change,1.0081632653061225,0.5099945888866362,0.5058204574261254,0.03533134400367999,0.3533176094169903,1.001060305943156,4.637767289465501
77,44,male,182,105,55,change,valid,anti,4,0,3,1.706122448979592,1,j,same,0.4938775510204082,0.5053552035487371,0.5058329655721536,0.03528772585241313,0.3534045249984956,1.0010535707870076,5.132780067017848
77,44,male,183,105,155,change,catch,clock,3,0,1,0.2,0,j,same,1.8530612244897962,0,0.5055449574851991,0.03537015132906163,0.35327334982275715,1.0010904537825809,4.979763422844826
77,44,male,184,15,325,change,valid,anti,2,1,2,1.779591836734694,1,f,change,0.27346938775510204,0.6791151704020343,0.5054480995318045,0.03534288998480406,0.3532852165253644,1.0010513257352613,4.979010689012739
77,44,male,185,165,165,same,valid,anti,2,2,3,1.926530612244898,1,j,same,1.779591836734694,0.6870247563421287,0.5058419457800483,0.03534160709796197,0.3532864994126612,1.0011279782215752,6.628856678451939
77,44,male,186,135,135,same,valid,anti,5,0,1,1.2653061224489797,0,f,change,1.2285714285714286,0.5009438632089572,0.5052245565061639,0.035349625140497665,0.3533006111670147,1.0011032826510018,5.414836521734742
77,44,male,187,15,15,same,catch,clock,5,0,1,1.2653061224489797,0,f,change,1.779591836734694,0,0.5056164784241446,0.035315307918608596,0.3532945174551969,1.0010757005843516,5.968829057899256
77,44,male,188,15,325,change,valid,anti,3,0,1,1.3755102040816327,0,f,change,0.5306122448979592,0.5050241123579933,0.5057293724630654,0.03531659080545069,0.353328834677086,1.0010397797541373,4.838022070784518
77,44,male,189,135,135,same,valid,anti,3,0,2,1.2653061224489797,1,f,change,1.448979591836735,0.509234223630815,0.5057826122651932,0.03536341617336802,0.3532855372473023,1.0010965474948534,5.638866402734493
77,44,male,190,105,155,change,valid,clock,4,1,1,1.779591836734694,0,j,same,1.5224489795918368,0.6764707018461082,0.5056135919289773,0.03533294761200523,0.3533208166345503,1.0010538915089455,6.227538576406005
77,44,male,191,45,45,same,catch,anti,2,0,1,1.1918367346938776,0,f,change,1.1918367346938776,0,0.5054522689138139,0.03534513503700509,0.3533006111670147,1.0010705690369832,5.30938515084199
77,44,male,192,105,55,change,valid,anti,4,1,2,1.412244897959184,1,j,same,1.6693877551020408,0.6811673279927883,0.5051129453540852,0.03533390977736417,0.35330125261043577,1.0010506842918403,6.015725947155261
77,44,male,193,15,65,change,catch,clock,3,2,1,0.4938775510204082,0,j,same,0.3469387755102041,0,0.5049580367726776,0.03533839988085674,0.3532970832288811,1.0010545329519118,3.765458785978808
77,44,male,194,135,185,change,valid,clock,2,2,2,0.2,1,f,change,0.3836734693877551,0.6855939867548123,0.5060545842679858,0.0353297403949,0.3533018940538568,1.001057740169017,3.507958388283896
77,44,male,195,165,165,same,valid,anti,5,1,3,1.0448979591836736,1,j,same,1.8163265306122451,0.678526265101133,0.5053445064218067,0.03532396740456534,0.3533246652946218,1.0010904537830356,5.7798620768398905
77,44,male,196,135,135,same,catch,anti,1,0,1,1.1183673469387756,0,j,same,1.3387755102040817,0,0.5052306502184365,0.03535764318257861,0.3533118364271104,1.001059343777797,5.3912945867309645
77,44,male,197,105,55,change,valid,anti,5,1,3,0.4938775510204082,1,f,change,2.0,0.6760622988826664,0.505863113412488,0.03530568626729291,0.353281688586776,1.0010875672874135,5.427099315964824
77,44,male,198,105,155,change,valid,clock,5,0,3,2.0,1,j,same,0.9346938775510205,0.505038958424801,0.5056549650284978,0.035371754937841615,0.3533301175634733,1.001071210480859,5.8628311772286
77,44,male,199,105,155,change,catch,clock,4,2,1,1.6693877551020408,0,f,change,0.5673469387755102,0,0.505099475042698,0.03530247905064243,0.35330638415780413,1.0010641546032275,5.1552960133012675
77,44,male,200,15,15,same,valid,anti,4,1,2,1.779591836734694,1,j,same,1.2653061224489797,0.6736983950905584,0.50619217387748,0.03531210070150337,0.35332145807797133,1.001068965428658,5.9691635706331
77,44,male,201,15,325,change,valid,anti,4,2,3,0.6408163265306123,1,j,same,1.926530612244898,0.6842063552345767,0.4982337855935839,0.0353521909137271,0.3532630867280204,1.0010526086216487,5.489814199504053
77,44,male,202,135,135,same,valid,anti,3,1,1,1.3755102040816327,0,f,change,1.4857142857142858,0.6712657727016664,0.5055196204707499,0.035328457508512656,0.35327334982275715,1.0010667203769117,5.7803171809332525
77,44,male,203,75,75,same,valid,anti,2,1,4,0.6408163265306123,1,f,change,0.3469387755102041,0.675271398489371,0.505247007024991,0.035317232248416985,0.3532932345683548,1.0010776249146147,3.907521180461117
77,44,male,204,15,15,same,valid,anti,2,1,4,0.8612244897959185,1,j,same,0.5306122448979592,0.6730447091469887,0.5053775407573085,0.03528644296557104,0.35332530673804285,1.001091095226002,4.319746065385971
77,44,male,205,15,65,change,valid,clock,2,1,3,1.0816326530612246,1,j,same,1.4857142857142858,0.6707344395659504,0.5055488061452706,0.03530857276291499,0.35331728869550716,1.0010481185181561,5.497846353779096
77,44,male,206,75,125,change,catch,clock,4,2,1,1.559183673469388,0,j,same,1.9632653061224492,0,0.5053047369310661,0.03534866297559347,0.35331087426175145,1.0010625509944475,6.451853899719026
77,44,male,207,75,75,same,catch,anti,1,2,1,1.448979591836735,0,j,same,0.23673469387755103,0,0.5048348796394748,0.03534962514004292,0.3532829714736181,1.0010221400607406,4.613625604880781
77,44,male,208,75,75,same,catch,anti,5,0,1,0.7142857142857143,0,f,change,0.7142857142857143,0,0.5057114120477308,0.03531466647518755,0.3532807264218718,1.0010747384194474,4.343894805847867
77,44,male,209,105,105,same,valid,clock,2,0,2,1.9632653061224492,1,f,change,1.1183673469387756,0.5010183307820205,0.5056091018254847,0.035361491843104886,0.353225241567543,1.001116752962389,6.016238781154698
77,44,male,210,15,65,change,valid,clock,1,2,1,1.889795918367347,0,j,same,1.926530612244898,0.6827384438359771,0.505236102487288,0.03533583410717256,0.35327431198766135,1.0010939817211693,6.733857114633338
77,44,male,211,105,105,same,valid,anti,3,2,4,1.1183673469387756,1,j,same,2.0,0.6877118907933686,0.5053387334314721,0.03534609720190929,0.35328938590782855,1.0010904537825809,6.050637145730889
77,44,male,212,165,165,same,valid,anti,1,1,2,0.23673469387755103,1,j,same,1.9632653061224492,0.6684909008806452,0.5057758771099543,0.03530312049406348,0.35333621127620063,1.0010519671786824,5.132713677625816
77,44,male,213,75,75,same,catch,clock,5,1,1,1.1183673469387756,0,j,same,0.2,0,0.5051982573263558,0.03529863039011616,0.35333909777136796,1.0010686447071748,4.248355659840399
77,44,male,214,15,15,same,valid,clock,4,0,4,0.8612244897959185,1,f,change,1.742857142857143,0.4970854394709954,0.5060407932346607,0.035327495343153714,0.3532739912661782,1.0010708897589211,5.533810160976373
77,44,male,215,45,45,same,valid,anti,1,0,4,1.779591836734694,1,f,change,0.8979591836734694,0.49340586490256894,0.5051527148448258,0.03530312049406348,0.3533009318889526,1.0010907745045188,5.602799964592123
77,44,male,216,105,155,change,valid,clock,1,2,3,0.2,1,j,same,0.7142857142857143,0.686366761979914,0.5059169946580369,0.03532300523966114,0.35333877704943006,1.0010304788243047,3.837700707640124
77,44,male,217,135,135,same,valid,anti,2,1,4,0.27346938775510204,1,f,change,0.23673469387755103,0.6663874218055028,0.5051681094869309,0.035345135036550346,0.3532980453937853,1.0010445905795677,3.436670613681599
77,44,male,218,105,55,change,valid,anti,1,1,3,0.7877551020408163,1,j,same,1.3387755102040817,0.664365480936797,0.5049320583152621,0.035321722352364304,0.35330061116746947,1.0010603059427012,5.049632966085483
77,44,male,219,165,115,change,valid,anti,2,1,1,1.5224489795918368,0,f,change,1.0448979591836736,0.6622885710735863,0.5048159570592361,0.03530279977212558,0.35335769963012353,1.0010500428484193,5.485297155070384
77,44,male,220,15,15,same,valid,anti,3,1,2,0.6775510204081634,1,f,change,1.9632653061224492,0.6656916109001811,0.5048432184034937,0.035272331210762786,0.35335641674328144,1.001072493367701,5.567297996643902
77,44,male,221,135,85,change,catch,anti,4,1,1,0.7877551020408163,0,f,change,1.2285714285714286,0,0.5052803620819759,0.03533872060279464,0.3532630867284752,1.0011055277022933,4.944227137674261
77,44,male,222,135,135,same,valid,clock,2,0,3,0.4938775510204082,1,j,same,1.742857142857143,0.4896987867232219,0.5054092922059681,0.03535090802688501,0.3532967625069432,1.001059343777797,5.1681210326723885
77,44,male,223,135,185,change,valid,clock,4,2,4,1.1183673469387756,1,j,same,0.4571428571428572,0.685066582844643,0.5046219204305089,0.03533134400367999,0.3532820093087139,1.0010862844005715,4.507250234768435
77,44,male,224,15,15,same,valid,anti,3,2,4,0.42040816326530617,1,f,change,0.4571428571428572,0.683798250287722,0.5056806227644302,0.03535283235760289,0.3533333247810333,1.0010481185181561,3.8017830843673437
77,44,male,225,15,15,same,valid,clock,2,2,1,1.9632653061224492,0,f,change,0.5673469387755102,0.682449249181902,0.5055805575939303,0.03530568626729291,0.3532999697235937,1.0011007168768629,5.450769218927235
77,44,male,226,135,135,same,valid,anti,1,2,3,0.4938775510204082,1,j,same,1.3387755102040817,0.6870389336807284,0.5048650274793545,0.03528387719188686,0.3533560960217983,1.001068323985237,4.75532205590298
77,44,male,227,105,55,change,valid,anti,2,0,4,0.8612244897959185,1,j,same,1.3020408163265307,0.48624328416142404,0.5052178213500156,0.035333268333943124,0.3533233824077797,1.0010445905795677,5.084867452135313
77,44,male,228,15,65,change,valid,clock,3,1,1,1.3755102040816327,0,f,change,1.448979591836735,0.6637738250357689,0.5058573404216986,0.035336796272076754,0.3532980453937853,1.0010744176975095,5.756910590487223
77,44,male,229,105,105,same,valid,clock,5,0,3,0.8979591836734694,1,f,change,1.779591836734694,0.48294912253833605,0.5056411739956275,0.03536950988564058,0.35331536436569877,1.0010625509944475,5.603833329912504
77,44,male,230,15,15,same,valid,clock,3,2,3,0.6040816326530613,1,j,same,0.6040816326530613,0.6858123287011926,0.5052130105245851,0.03533102328219684,0.35329034807273274,1.0010824357400452,4.131537911870964
77,44,male,231,45,355,change,valid,anti,4,0,1,0.3836734693877551,0,j,same,0.7877551020408163,0.47960455502860794,0.505065157820809,0.03532845750805791,0.353281688586776,1.0010882087308346,4.095679301391101
77,44,male,232,45,45,same,valid,clock,2,1,3,0.4571428571428572,1,j,same,1.5959183673469388,0.6670202501352085,0.5053611839502992,0.035305044824326615,0.35332081663409554,1.0010737762545432,4.979648283753704
77,44,male,233,75,75,same,valid,anti,1,2,2,0.6408163265306123,1,j,same,1.4857142857142858,0.6846199501457935,0.5046921584826123,0.035354115243990236,0.35330285621921576,1.0010558158392087,5.049402367182665
77,44,male,234,165,165,same,valid,anti,5,2,4,0.9346938775510205,1,j,same,2.0,0.6833578305723702,0.5054634941730001,0.03530985564975708,0.353314722921823,1.001045873465955,5.862900453115799
77,44,male,235,75,25,change,valid,anti,4,2,1,0.42040816326530617,0,j,same,1.1918367346938776,0.6821082351434655,0.5048650274793545,0.035315307918608596,0.3532945174551969,1.0010878880093514,4.531356319243969
77,44,male,236,15,15,same,valid,clock,2,0,1,1.8530612244897962,0,f,change,0.23673469387755103,0.4826931546278737,0.5049407178007641,0.03527489698444697,0.35337437715861597,1.001080190688299,5.014401045809336
77,44,male,237,105,105,same,catch,clock,5,2,1,0.4571428571428572,0,f,change,1.8163265306122451,0,0.505053932561168,0.035324288126048486,0.353328834677086,1.0010397797536825,5.2025655811735305
77,44,male,238,15,15,same,valid,anti,5,2,3,0.42040816326530617,1,f,change,1.2653061224489797,0.6863776102007089,0.5058143637138528,0.03534192781944512,0.35331760941744506,1.0010866051220546,4.6029253667775265
77,44,male,239,165,165,same,valid,anti,3,1,3,1.1918367346938776,1,f,change,1.412244897959184,0.6651463851743805,0.5049888260559783,0.035318515135259076,0.35335385096959726,1.0010538915089455,5.532385515181431
77,44,male,240,15,325,change,valid,anti,3,1,2,0.23673469387755103,1,f,change,0.6040816326530613,0.6633195886889239,0.5055981972873269,0.035340644933057774,0.3533314004503154,1.0010381761453573,3.766801647740067
77,44,male,241,165,165,same,valid,anti,1,0,1,0.3836734693877551,0,j,same,1.8163265306122451,0.48561321723526857,0.5051639401044667,0.03532813678612001,0.3532916309600296,1.001059343777797,5.120810091700605
77,44,male,242,75,25,change,valid,anti,1,0,4,0.3469387755102041,1,f,change,1.0448979591836736,0.48868375344828224,0.5051421310290607,0.03533936204621568,0.35326629394512565,1.0010590230558591,4.319768515905253
77,44,male,243,45,355,change,valid,anti,1,1,3,1.889795918367347,1,j,same,0.27346938775510204,0.6614188622161203,0.5052338574355417,0.03533872060279464,0.3533111949832346,1.00103689325897,5.084824475427922
77,44,male,244,75,75,same,valid,clock,5,2,4,0.27346938775510204,1,j,same,1.0816326530612246,0.6852509130789981,0.5056408532736896,0.03531177998047497,0.35333524911129643,1.0010436284146635,4.284596570586473
77,44,male,245,45,355,change,valid,anti,1,2,2,1.0816326530612246,1,f,change,0.23673469387755103,0.6841496357317183,0.505313075695085,0.035318515135259076,0.35330991209684726,1.0010747384194474,4.249406985574751
77,44,male,246,75,125,change,valid,clock,2,0,1,1.5224489795918368,0,f,change,1.5224489795918368,0.48560349000276587,0.5044782371078327,0.0353374377154978,0.3532720669363698,1.0010949438865282,5.967251748575109
77,44,male,247,75,125,change,valid,clock,3,0,3,0.4938775510204082,1,j,same,0.8612244897959185,0.4885705972695633,0.5059612542527248,0.03535796390406176,0.3533134400349809,1.0010619095510265,4.284817868560822
77,44,male,248,165,165,same,catch,anti,3,2,1,1.9632653061224492,0,f,change,0.27346938775510204,0,0.5054679842769474,0.03537399999004265,0.35331793013847346,1.0010699275935622,5.156584031651619
77,44,male,249,105,105,same,catch,anti,1,1,1,0.8244897959183675,0,f,change,1.779591836734694,0,0.5052444412522163,0.035326853900187416,0.3532967625069432,1.0010510050133234,5.533086612819716
77,44,male,250,165,115,change,valid,anti,4,0,1,1.4857142857142858,0,j,same,0.6408163265306123,0.48559413800303536,0.5051578463917394,0.0353448143150672,0.3533041391065126,1.0010234229466732,5.049854264058922
77,44,male,251,45,95,change,catch,clock,3,0,1,0.3836734693877551,0,j,same,1.4857142857142858,0,0.5012893012371933,0.03533519266420626,0.35328521652627387,1.0010821150190168,4.798844952866602
77,44,male,252,75,75,same,valid,anti,4,1,4,0.9346938775510205,1,f,change,0.7510204081632653,0.65951666319184,0.5053448271437446,0.03537111349487532,0.3533002904450768,1.0010619095510265,4.613970701431754
77,44,male,253,75,75,same,valid,anti,3,0,4,0.8244897959183675,1,j,same,0.7142857142857143,0.4884644583436197,0.50506579926423,0.03536790627731534,0.35332915539856913,1.001068323985237,4.472198239366662
77,44,male,254,15,325,change,catch,anti,1,0,1,1.1551020408163268,0,f,change,1.8530612244897962,0,0.5053457893091036,0.0352999132765035,0.353337494162588,1.001049080683515,5.93327192581819
77,44,male,255,75,75,same,valid,clock,4,1,4,1.706122448979592,1,j,same,1.1183673469387756,0.6577268897960598,0.5057255238025391,0.03532845750760316,0.35330445982799574,1.0010545329523666,5.757117135262888
77,44,male,256,135,135,same,valid,clock,3,0,2,1.2653061224489797,1,j,same,1.779591836734694,0.4855851427903135,0.5051956915531264,0.03526174739454291,0.35339169612961996,1.0010352896497352,5.968692751176604
77,44,male,257,45,45,same,valid,clock,2,0,1,1.0081632653061225,0,f,change,1.779591836734694,0.4828048377251649,0.5049622061542323,0.03534321070583246,0.353271425492494,1.001093660999686,5.708550889553408
77,44,male,258,135,185,change,valid,clock,5,2,4,0.8244897959183675,1,f,change,0.8244897959183675,0.6829776821160436,0.5056501542030674,0.03533294761200523,0.3533140814788567,1.0010147634611712,4.5794209562127435
77,44,male,259,165,165,same,valid,clock,3,2,3,0.9346938775510205,1,f,change,0.4938775510204082,0.6818123175674684,0.5047729803509355,0.03535411524353549,0.3533070256016799,1.0010740969755716,4.354376953195242
77,44,male,260,45,95,change,valid,clock,2,0,1,1.559183673469388,0,j,same,1.3387755102040817,0.4853657896411378,0.5055953107921596,0.03534738008875138,0.3533127985920146,1.0010654374900696,5.815758853202169
77,44,male,261,105,105,same,valid,anti,1,0,3,0.8979591836734694,1,f,change,0.6040816326530613,0.48806291629413634,0.5054275733427858,0.03532300523966114,0.3533423049884732,1.0010561365606918,4.425799751632439
77,44,male,262,135,85,change,valid,anti,4,0,1,1.9632653061224492,0,j,same,1.1918367346938776,0.48536379920683953,0.5055132060360847,0.035318835856742226,0.35331536436569877,1.0010436284146635,6.074838163829554
77,44,male,263,15,325,change,valid,anti,2,2,3,1.3020408163265307,1,j,same,1.1183673469387756,0.6806436693103572,0.5047174954970615,0.03529638533746038,0.3533317211722533,1.0010773041931316,5.344115462377886
77,44,male,264,45,355,change,valid,anti,4,1,4,1.3020408163265307,1,f,change,0.5306122448979592,0.6560197433559689,0.5051735617562372,0.035331023281287344,0.3532954796201011,1.0010644753247107,4.754854764385527
77,44,male,265,135,135,same,catch,anti,3,2,1,0.8979591836734694,0,f,change,0.3469387755102041,0,0.5057964032985183,0.03533262689052208,0.35328168858723075,1.0011048862588723,4.166606264079746
77,44,male,266,75,25,change,catch,anti,4,2,1,1.0816326530612246,0,f,change,0.7142857142857143,0,0.5061860801652074,0.03535251163521025,0.35331921302622504,1.0010269508857164,4.721042999800375
77,44,male,267,105,155,change,valid,clock,3,1,3,1.6326530612244898,1,f,change,0.7877551020408163,0.654364827783568,0.5054115372577144,0.03535507740889443,0.35328778229904856,1.0010699275935622,5.344759471553516
77,44,male,268,105,155,change,catch,clock,2,0,1,1.9632653061224492,0,j,same,0.5306122448979592,0,0.5052062753693463,0.035358284626454406,0.3533067048792873,1.001058702334376,5.4148644245224204
77,44,male,269,165,215,change,valid,clock,4,2,1,1.2653061224489797,0,j,same,1.3387755102040817,0.6794849123187849,0.5057980069068435,0.03534641792339244,0.35327912281354656,1.001097830382605,5.521033891303887
77,44,male,270,15,325,change,valid,anti,5,2,2,0.4938775510204082,1,j,same,1.5959183673469388,0.6835777406221385,0.5055946693491933,0.03530344121645612,0.35330798776612937,1.0010991132685376,5.014508808300889
77,44,male,271,45,95,change,valid,clock,2,1,2,1.448979591836735,1,f,change,0.8244897959183675,0.6526564874947413,0.505619044197374,0.03534288998434931,0.3533095913744546,1.0010641546032275,5.203619793403959
77,44,male,272,135,135,same,valid,clock,3,1,1,1.2285714285714286,0,f,change,1.412244897959184,0.6509435201981857,0.5052059546469536,0.0353374377154978,0.3532852165253644,1.0010561365606918,5.567769457543363
77,44,male,273,135,135,same,catch,anti,4,1,1,1.1183673469387756,0,f,change,0.9346938775510205,0,0.5051799761895381,0.03537111349487532,0.35328233003110654,1.0010808321321747,4.979313771019406
77,44,male,274,105,105,same,valid,anti,3,1,1,0.3469387755102041,0,f,change,0.3836734693877551,0.6537998052304761,0.5055148096453195,0.035343852149708255,0.3532986868376611,1.0010744176979642,3.648982606620848
77,44,male,275,165,115,change,valid,anti,3,2,4,1.0448979591836736,1,f,change,0.5306122448979592,0.6824817245936625,0.505133150821166,0.03533102328219684,0.35330061116746947,1.0010654374900696,4.495771284374314
77,44,male,276,105,105,same,valid,clock,3,0,4,1.0816326530612246,1,f,change,1.0816326530612246,0.48798045604335677,0.5058929405304298,0.035329098951478954,0.35332658962488495,1.0010542122308834,5.097813704309374
77,44,male,277,165,215,change,catch,clock,3,0,1,0.3836734693877551,0,j,same,0.7510204081632653,0,0.5047309658084487,0.035344172871191404,0.3533108742612967,1.0010330445984437,4.060207481282305
77,44,male,278,45,95,change,valid,clock,5,1,4,0.5306122448979592,1,f,change,1.3755102040816327,0.6564937937373803,0.5053146793034102,0.03531979802210117,0.3533134400358904,1.0010635131602612,4.837814243122921
77,44,male,279,45,45,same,valid,anti,1,2,2,0.3469387755102041,1,f,change,0.7510204081632653,0.6813864981507458,0.5053518830209214,0.03533583410717256,0.35331055353981355,1.001054532951457,4.0254992995432985
77,44,male,280,45,95,change,valid,clock,4,0,1,0.31020408163265306,0,j,same,1.0081632653061225,0.48536174905851415,0.5053098684784345,0.035317873691383284,0.3533188923038324,1.0010570987260508,4.236782417266113
77,44,male,281,45,355,change,catch,anti,5,0,1,0.8979591836734694,0,j,same,1.412244897959184,0,0.5058951855826308,0.03532396740411059,0.35333524911129643,1.0010362518150941,5.238730801599559
77,44,male,282,45,355,change,catch,anti,3,0,1,1.779591836734694,0,j,same,0.8612244897959185,0,0.5057627275200502,0.03535187019224395,0.35333396622445434,1.0010782663584905,5.568945223299124
77,44,male,283,135,185,change,catch,clock,4,0,1,0.5673469387755102,0,j,same,1.779591836734694,0,0.5048438598469147,0.03531370430937386,0.35334198426608054,1.0010561365606918,5.273543859333586
77,44,male,284,165,215,change,valid,clock,3,2,2,1.8163265306122451,1,f,change,0.2,0.6802835038380167,0.5050497631791586,0.03534096565454092,0.3533150436442156,1.0010535707870076,4.943693136042384
77,44,male,285,45,45,same,valid,clock,2,2,4,0.9346938775510205,1,j,same,2.0,0.6792077444823871,0.5054118579791975,0.03532011874449381,0.3533294761200523,1.0010728140887295,5.862807764544414
77,44,male,286,15,15,same,valid,anti,2,2,2,0.2,1,f,change,0.6775510204081634,0.6781854004277543,0.5053890867384325,0.03532813678612001,0.3533243445726839,1.0010497221264814,3.801828626849783
77,44,male,287,75,75,same,valid,anti,2,0,1,0.6408163265306123,0,j,same,1.8163265306122451,0.4879025208272806,0.5051751653645624,0.03533294761200523,0.35327912281354656,1.0010869258439925,5.379714929724287
77,44,male,288,135,85,change,valid,anti,5,1,1,1.448979591836735,0,f,change,0.23673469387755103,0.6549418919836218,0.505173241034754,0.03534128637602407,0.3532852165253644,1.0010728140887295,4.613675316744775
77,44,male,289,75,75,same,valid,anti,2,2,1,1.0448979591836736,0,f,change,1.3387755102040817,0.6772022913510467,0.5052405925907806,0.035340644933057774,0.35329387601177586,1.0010413833624625,5.297229798381522
77,44,male,290,165,165,same,valid,anti,3,0,1,0.3836734693877551,0,j,same,0.9346938775510205,0.49045615803170933,0.5053682398274759,0.035300875441862445,0.35329515889861796,1.0010907745045188,4.2377109065901095
77,44,male,291,105,55,change,catch,anti,3,2,1,1.412244897959184,0,f,change,0.6775510204081634,0,0.5051286607176735,0.03533166472516314,0.35321722352455254,1.0011501080189191,5.013858063970474
77,44,male,292,135,85,change,valid,anti,5,0,1,1.3755102040816327,0,j,same,1.2285714285714286,0.4929771137816677,0.5058939026957887,0.03531787369229278,0.3532618038416331,1.0010603059427012,5.52167501398344
77,44,male,293,45,45,same,valid,anti,4,0,1,0.42040816326530617,0,j,same,1.8163265306122451,0.4953706621418841,0.5053637497239833,0.0352851600782742,0.35332851395560283,1.001080190688299,5.155781265234509
77,44,male,294,165,115,change,catch,anti,4,2,1,1.3387755102040817,0,f,change,1.0081632653061225,0,0.5049811287353805,0.0353669441119564,0.35330991209593776,1.0010712104804043,5.261179396325133
77,44,male,295,15,15,same,catch,anti,1,1,1,1.889795918367347,0,f,change,1.8530612244897962,0,0.5057739527792364,0.03533166472516314,0.3533262689034018,1.001048759962032,6.663705977738573
77,44,male,296,135,135,same,valid,clock,2,1,2,0.3469387755102041,1,j,same,1.2653061224489797,0.6575512547801428,0.5053791443660884,0.03533519266420626,0.35331055353981355,1.0010577401699265,4.531541375665256
77,44,male,297,45,355,change,catch,anti,4,1,1,0.3469387755102041,0,j,same,0.5673469387755102,0,0.5053040954871904,0.03532300523875165,0.35331857158234925,1.0010869258439925,3.8363421305157317
77,44,male,298,45,95,change,valid,clock,5,0,1,0.6040816326530613,0,j,same,0.5306122448979592,0.4978971176626123,0.506359911326399,0.035330061116837896,0.35332049591306713,1.001015404905047,4.06113693277166
77,44,male,299,165,165,same,valid,anti,4,0,4,0.31020408163265306,1,f,change,1.706122448979592,0.5004370839484908,0.5059724795119109,0.03532364668262744,0.35330798776703887,1.001037213980453,4.944794815084606
77,44,male,300,165,165,same,valid,clock,5,0,3,1.779591836734694,1,j,same,1.3755102040816327,0.49782332872425256,0.5050029378107865,0.035342248541383015,0.35327431198857084,1.001090133060643,6.0856019048305825
77,44,male,301,15,325,change,valid,anti,1,1,2,0.8979591836734694,1,f,change,1.1551020408163268,0.6560196402414924,0.497950909053543,0.035242504092821036,0.3530988772181445,1.001232212774994,4.983082892447783
77,44,male,302,165,115,change,catch,anti,1,1,1,1.448979591836735,0,j,same,2.0,0,0.5056617001846462,0.03536469905975537,0.3532707840495277,1.0010708897589211,6.380582481923739
77,44,male,303,105,105,same,valid,clock,4,2,2,1.889795918367347,1,f,change,2.0,0.68100735403354,0.5058919783659803,0.035327495343153714,0.3532560308512984,1.0011010375992555,6.816701454280519
77,44,male,304,135,135,same,valid,clock,1,0,1,1.5959183673469388,0,j,same,0.7877551020408163,0.49536491482027223,0.5056693975047892,0.035343531428225106,0.35330862920909567,1.001049080683515,5.3096471804710745
77,44,male,305,15,65,change,valid,clock,2,0,4,1.0448979591836736,1,f,change,0.8612244897959185,0.49775338144934284,0.5050029378107865,0.03535636029664602,0.3533095913753641,1.0010638338817444,4.825609178798004
77,44,male,306,45,45,same,valid,anti,5,0,3,1.8530612244897962,1,j,same,0.4571428571428572,0.49536210510068696,0.5052983224977652,0.035375282875975245,0.3533041391065126,1.0010702483159548,5.238388270822725
77,44,male,307,135,185,change,valid,clock,2,1,1,0.8612244897959185,0,f,change,1.8530612244897962,0.6545317946653921,0.505218783516284,0.03529125379100151,0.353339739214789,1.0010673618207875,5.638607901042633
77,44,male,308,15,65,change,valid,clock,4,1,2,0.5306122448979592,1,j,same,1.779591836734694,0.6570457667928971,0.505349958691113,0.03529414028616884,0.3533134400349809,1.0010885294523177,5.238581345285638
77,44,male,309,105,105,same,valid,anti,4,0,3,1.5224489795918368,1,f,change,0.27346938775510204,0.4930366028001467,0.5051742031992035,0.035332626889612584,0.3533015733328284,1.0010529293440413,4.719665179373806
77,44,male,310,75,125,change,valid,clock,4,0,4,1.1551020408163268,1,f,change,0.3836734693877551,0.49064371233800125,0.5056658695666556,0.03533615482865571,0.3533182508608661,1.0010497221264814,4.461662531494767
77,44,male,311,135,85,change,valid,anti,4,1,3,1.3387755102040817,1,f,change,1.0081632653061225,0.6555805774924768,0.5050343685370535,0.0353669441119564,0.3532685389973267,1.0010699275935622,5.261644122069811
77,44,male,312,15,325,change,catch,anti,1,2,1,1.889795918367347,0,f,change,0.7877551020408163,0,0.5054615698427369,0.035320439465067466,0.3533188923038324,1.0010644753247107,5.603768223406405
77,44,male,313,165,115,change,valid,anti,4,1,2,1.9632653061224492,1,j,same,0.8612244897959185,0.6541503214568409,0.5049035140837077,0.035385545970711973,0.353271425492494,1.0010789078014568,5.756525083002998
77,44,male,314,105,105,same,valid,clock,3,1,4,1.0816326530612246,1,j,same,1.1918367346938776,0.6526665745484516,0.5050532911172922,0.03533904132382304,0.35329515889861796,1.0010538915094003,5.202702529339149
77,44,male,315,75,25,change,valid,anti,1,2,2,0.31020408163265306,1,j,same,2.0,0.6799619246967712,0.5054070471542218,0.035295743895403575,0.3533544924130183,1.0010494014049982,5.238656073442144
77,44,male,316,45,95,change,catch,clock,5,1,1,1.779591836734694,0,j,same,0.2,0,0.5052662503276224,0.03531017637124023,0.35334070137923845,1.0010378554234194,4.9088345358259176
77,44,male,317,15,65,change,valid,clock,3,2,3,1.8163265306122451,1,j,same,1.559183673469388,0.6789634226293614,0.5052466863035079,0.03535988823568914,0.35330125261043577,1.0010676825422706,6.297911973439113
77,44,male,318,165,165,same,valid,clock,5,1,1,0.7510204081632653,0,j,same,1.2285714285714286,0.6511748767280863,0.505385879521782,0.0353675855549227,0.35328168858632125,1.0010651167685864,4.908340945128657
77,44,male,319,105,155,change,valid,clock,2,1,4,1.6326530612244898,1,f,change,1.5959183673469388,0.6536635823034722,0.5057136570994771,0.035332626889612584,0.35327174621397717,1.0011048862588723,6.145765126518199
77,44,male,320,105,55,change,valid,anti,3,0,1,1.1551020408163268,0,j,same,1.5959183673469388,0.4883175361413169,0.505394539007284,0.03528195286162372,0.3533544924130183,1.0010484392396393,5.673919039579232
77,44,male,321,45,355,change,catch,anti,1,2,1,0.8979591836734694,0,j,same,0.23673469387755103,0,0.5054153859173312,0.035345135036550346,0.3532807264218718,1.001092378112844,4.060409215232539
77,44,male,322,105,105,same,valid,clock,4,0,4,0.8244897959183675,1,j,same,0.8244897959183675,0.49050892328524653,0.50605715004167,0.03534738008875138,0.3532922724034506,1.0010885294523177,4.580069455491866
77,44,male,323,15,65,change,catch,clock,5,2,1,1.6693877551020408,0,f,change,1.3020408163265307,0,0.5049920332730835,0.03536181256549753,0.35327848136967077,1.001048759962032,5.897865212215038
77,44,male,324,75,125,change,valid,clock,3,2,1,0.6775510204081634,0,j,same,1.8530612244897962,0.6780071290043803,0.5047707352987345,0.03529125379100151,0.35331664725254086,1.001098792546145,5.449364778599374
77,44,male,325,15,15,same,catch,clock,2,1,1,1.8163265306122451,0,j,same,0.4571428571428572,0,0.5054609283997706,0.03534641792339244,0.3533275517902439,1.001054532951457,5.203419983784443
77,44,male,326,105,105,same,valid,clock,5,2,1,1.0081632653061225,0,f,change,1.448979591836735,0.6816503703609229,0.5053339226060416,0.035329098951478954,0.35328233003019704,1.0010943024426524,5.379872724800407
77,44,male,327,15,325,change,catch,anti,1,1,1,0.7510204081632653,0,j,same,0.6040816326530613,0,0.5046790088927082,0.03532653317779477,0.3533067048792873,1.0010744176979642,4.284156219691795
77,44,male,328,135,185,change,valid,clock,3,2,3,0.6775510204081634,1,f,change,1.926530612244898,0.6850141930035202,0.5053990291107766,0.03532653317779477,0.3532771984828287,1.0010859636786336,5.521121127605511
77,44,male,329,15,15,same,valid,anti,5,0,1,1.4857142857142858,0,j,same,1.3755102040816327,0.48824340774595665,0.5052444412513069,0.03532813678612001,0.35327687776134553,1.0011100178071501,5.791648599343716
77,44,male,330,135,135,same,valid,anti,5,1,4,1.926530612244898,1,f,change,2.0,0.6522255273948975,0.5051504697930795,0.03534609720190929,0.3533144022003398,1.0010641546032275,6.85139007199632
77,44,male,331,165,115,change,catch,anti,5,0,1,1.889795918367347,0,j,same,1.1183673469387756,0,0.5054532310787181,0.035299592555020354,0.3533368527196217,1.001060947386577,5.933489054410529
77,44,male,332,75,75,same,valid,clock,3,2,1,0.6040816326530613,0,j,same,1.559183673469388,0.6841468865478701,0.5054917176821618,0.03529221595636045,0.35333941849330586,1.0010676825413611,5.084955971325144
77,44,male,333,75,25,change,valid,anti,3,0,1,0.6408163265306123,0,f,change,0.4938775510204082,0.4903797437199053,0.505910900946219,0.035354756688320776,0.35328425436091493,1.001102320485188,4.060737313532627
77,44,male,334,105,155,change,catch,clock,1,0,1,0.5306122448979592,0,j,same,0.42040816326530617,0,0.5059086558931085,0.035316911526933836,0.3533362112757459,1.0010535707870076,3.8847114530999534
77,44,male,335,15,15,same,valid,clock,5,1,2,1.742857142857143,1,f,change,0.6775510204081634,0.6507727678500512,0.5056485505947421,0.03527874564497324,0.35319862166579696,1.0012225911232235,5.344104878562575
77,44,male,336,135,85,change,valid,anti,3,1,2,1.4857142857142858,1,f,change,1.779591836734694,0.6493227822847171,0.505955160540907,0.03540799648999382,0.35327848137058027,1.001000330984425,6.192806019817908
77,44,male,337,105,155,change,valid,clock,4,2,1,0.7877551020408163,0,j,same,0.4571428571428572,0.6873171864970115,0.5054846618049851,0.035341607098416716,0.35346353779095807,1.0010054625317935,4.17876963458275
77,44,male,338,15,325,change,catch,anti,2,0,1,0.6040816326530613,0,f,change,0.23673469387755103,0,0.5052630431100624,0.03532974039535475,0.3532691804412025,1.0011045655373891,3.7666121012143776
77,44,male,339,45,45,same,valid,clock,3,2,1,1.8530612244897962,0,j,same,2.0,0.6908008096951661,0.5051786933036055,0.035300554720379296,0.3533740564371328,1.0008697972525624,6.78101859929302
77,44,male,340,75,25,change,catch,anti,5,1,1,1.4857142857142858,0,j,same,1.5224489795918368,0,0.5048996654231814,0.03527008615856175,0.3533740564371328,1.0010243851120322,5.9326955889227975
77,44,male,341,75,125,change,valid,clock,1,1,4,1.5959183673469388,1,f,change,1.5959183673469388,0.6479577867193584,0.5058528503177513,0.035399657725974976,0.35314570258560707,1.0013457482564263,6.1100514822474
77,44,male,342,135,85,change,valid,anti,5,2,4,1.779591836734694,1,j,same,0.3469387755102041,0.6941093361473392,0.5058993549646402,0.035277462757221656,0.3532383911569923,1.001145297193034,5.050767679463206
77,44,male,343,165,165,same,valid,clock,1,0,1,0.5673469387755102,0,j,same,0.4571428571428572,0.4924994208257341,0.5048711211911723,0.03523224099808431,0.35322524156708823,1.0011873117364303,3.954311269390928
77,44,male,344,15,65,change,valid,clock,4,2,2,1.4857142857142858,1,j,same,1.9632653061224492,0.6932072501107043,0.5053852380779063,0.035202093157749914,0.35333589055426273,1.0010785870799737,6.380946180332103
77,44,male,345,45,45,same,valid,anti,2,1,1,0.9714285714285715,0,f,change,1.1918367346938776,0.646651719176827,0.5052117276381978,0.03546572639606893,0.3531793783640751,1.0012363821570034,5.084892468428734
77,44,male,346,45,95,change,valid,clock,1,1,1,1.3755102040816327,0,f,change,1.742857142857143,0.6490013197420816,0.5057896681428247,0.03521460130377818,0.3533390977718227,1.0010535707870076,6.051712204872274
77,44,male,347,105,155,change,valid,clock,2,0,1,1.4857142857142858,0,f,change,0.7877551020408163,0.4945113584359494,0.5050600262729859,0.035356681018129166,0.35322460012412193,1.0012238740100656,5.2026550625278105
77,44,male,348,105,105,same,valid,clock,1,0,3,1.889795918367347,1,j,same,1.3387755102040817,0.49646236775112584,0.5054513067480002,0.035297988946695114,0.35348823336244095,1.001028554494951,6.14581387621638
77,44,male,349,135,185,change,valid,clock,1,2,3,1.706122448979592,1,f,change,1.0448979591836736,0.6923076437171651,0.5049368691406926,0.035424674018941005,0.3531966973359886,1.0012129694723626,5.685748538791813
77,44,male,350,75,125,change,valid,clock,5,1,1,0.3836734693877551,0,f,change,1.0448979591836736,0.6514147843083937,0.5050577812216943,0.03536373689530592,0.35337084921957285,1.0009278478801207,4.342488120468261
77,44,male,351,75,75,same,catch,clock,5,2,3,0.8979591836734694,1,j,same,0.4938775510204082,0,0.5029429423266265,0.03531723224932648,0.3532967625069432,1.0011408070895413,4.317061945472233
77,44,male,352,75,25,change,valid,anti,3,1,3,0.7142857142857143,1,f,change,0.4938775510204082,0.6536846467189298,0.5058098736099055,0.03547951742893929,0.35324672992192063,1.0011603711136559,4.13194041760471
77,44,male,353,45,355,change,valid,anti,2,2,4,0.7877551020408163,1,j,same,0.8244897959183675,0.6914045822639637,0.5052858143508274,0.035459632683341624,0.35321273342105997,1.0010410626400699,4.543654713583237
77,44,male,354,165,115,change,valid,anti,5,1,3,1.412244897959184,1,j,same,1.0816326530612246,0.6523691032539942,0.5052591944495362,0.03528836729492468,0.3533208166345503,1.0011302232733215,5.426736258999881
77,44,male,355,165,165,same,valid,anti,1,2,3,1.5959183673469388,1,f,change,0.6775510204081634,0.6904922796670573,0.5052887008459948,0.03555232125563634,0.3531934901193381,1.0011000754338966,5.191792218522096
77,44,male,356,105,155,change,catch,clock,4,1,1,1.3387755102040817,0,j,same,1.6326530612244898,0,0.504875932017967,0.03524699419631361,0.3533544924130183,1.0010028967581093,5.885610436027491
77,44,male,357,15,15,same,valid,anti,1,1,3,1.1551020408163268,1,j,same,1.5224489795918368,0.6510399143785124,0.5057524644253135,0.03522358151167282,0.3533195337477082,1.0011892360671482,5.604093755933718
77,44,male,358,75,25,change,valid,anti,4,1,1,1.412244897959184,0,f,change,0.2,0.6496937562772188,0.5052531007377183,0.03527297265463858,0.353444935933112,1.0009701831440907,4.543704425445867
77,44,male,359,75,75,same,valid,clock,3,0,3,0.9714285714285715,1,f,change,1.706122448979592,0.49436693704691304,0.5051161525716452,0.03517611470033444,0.3535389073913393,1.0010115562445208,5.602759874379444
77,44,male,360,165,115,change,valid,anti,1,2,1,0.9346938775510205,0,f,change,0.27346938775510204,0.6895847813197897,0.505940086620285,0.03528355646994896,0.3532262037324472,1.0010561365606918,4.131769152216293
77,44,male,361,165,215,change,valid,clock,2,0,3,0.9714285714285715,1,f,change,1.6326530612244898,0.49223931532069776,0.5054371949936467,0.03536918916415743,0.35322941095000715,1.0010692861505959,5.520716376820019
77,44,male,362,135,185,change,catch,clock,3,1,1,0.2,0,f,change,1.5959183673469388,0,0.5057498986516293,0.03533134400367999,0.35341254304057657,1.0009541470599288,4.720529524356607
77,44,male,363,105,105,same,valid,anti,3,0,1,1.0816326530612246,0,j,same,0.7510204081632653,0.4900854815829763,0.5055183375834531,0.03521909140908974,0.3534824603721063,1.0009037937525136,4.767850086979706
77,44,male,364,15,15,same,valid,anti,1,0,4,0.9346938775510205,1,f,change,0.9346938775510205,0.492087560180592,0.5047813191158639,0.035385225249228824,0.3532396740438344,1.0011244502829868,4.790478927301592
77,44,male,365,165,215,change,valid,clock,1,1,3,1.1183673469387756,1,f,change,1.6326530612244898,0.6519829510604465,0.504770735299644,0.035303761937029776,0.35326501105828356,1.0010866051225094,5.673301008861927
77,44,male,366,135,135,same,valid,clock,4,0,1,0.2,0,f,change,1.889795918367347,0.4899750374344205,0.5050292369896852,0.03534770081023453,0.3533987520077062,1.0009782011875359,5.01409379441975
77,44,male,367,75,25,change,valid,anti,1,1,1,1.6326530612244898,0,f,change,0.8979591836734694,0.6506824948641434,0.5053024918788651,0.03528387719143211,0.35331536436569877,1.001088850173801,5.450365109584709
77,44,male,368,45,355,change,valid,anti,4,2,4,0.2,1,j,same,0.7510204081632653,0.6928063182273076,0.5051350751518839,0.03531883585765172,0.353294196733259,1.0010494014049982,3.8834365843395062
77,44,male,369,15,325,change,valid,anti,2,0,1,1.0081632653061225,0,f,change,1.6326530612244898,0.49194176663145667,0.5050712515330815,0.03533519266420626,0.3533416635445974,1.000933941592848,5.556119883205611
77,44,male,370,105,105,same,valid,anti,1,1,2,1.742857142857143,1,f,change,1.2653061224489797,0.6528671114553204,0.5050988335988222,0.03529478172913514,0.3533833573665106,1.00102630944275,5.933541332046843
77,44,male,371,45,45,same,catch,anti,3,0,1,0.5306122448979592,0,j,same,1.3387755102040817,0,0.5044035089513272,0.03535251163611974,0.3531283836136936,1.0012046307074343,4.790222029218967
77,44,male,372,105,55,change,valid,anti,2,2,2,0.4571428571428572,1,j,same,0.23673469387755103,0.6919488662069272,0.5054221210739342,0.035206262539759337,0.35340837365856714,1.0009650515985413,3.6249323277206713
77,44,male,373,45,45,same,valid,anti,4,1,3,1.706122448979592,1,f,change,1.3020408163265307,0.6516154896086576,0.5050378964760966,0.035329098951478954,0.35323550466182496,1.0011154700750922,5.932402128566537
77,44,male,374,15,15,same,valid,anti,4,0,1,1.6693877551020408,0,j,same,1.706122448979592,0.49380249574003193,0.5054333463331204,0.035371754937841615,0.3532685389964172,1.00107185192428,6.298248089781737
77,44,male,375,45,95,change,valid,clock,4,2,4,1.3020408163265307,1,j,same,1.3387755102040817,0.6910852170401036,0.5050401415282977,0.03531145925808232,0.35327751920431183,1.001101999763705,5.556207119508144
77,44,male,376,45,355,change,catch,anti,2,1,1,1.0816326530612246,0,f,change,1.5224489795918368,0,0.5047219856014635,0.035355718852770224,0.35336764200292237,1.0011045655373891,5.532317522181074
77,44,male,377,165,165,same,catch,clock,1,1,1,0.8979591836734694,0,f,change,1.6693877551020408,0,0.5050593848300196,0.03532813678612001,0.35332947612096177,1.0010667203769117,5.4974650156764255
77,44,male,378,45,45,same,catch,clock,1,0,1,1.3020408163265307,0,j,same,1.4857142857142858,0,0.5054108958138386,0.03530761059755605,0.3532974039499095,1.0010776249146147,5.710004079579448
77,44,male,379,135,135,same,valid,anti,5,2,1,1.779591836734694,0,j,same,1.448979591836735,0.6902101451120559,0.5048005624175858,0.035327495343153714,0.353297403950819,1.0010840393488252,6.156643685887502
77,44,male,380,105,155,change,valid,clock,5,2,4,0.5673469387755102,1,f,change,2.0,0.6932591507897303,0.5048993447016983,0.03530312049406348,0.35333011756392807,1.001079549244423,5.497392211850638
77,44,male,381,105,55,change,catch,anti,3,2,1,0.3836734693877551,0,f,change,1.412244897959184,0,0.5048521986109336,0.03537849009353522,0.35326020023330784,1.0010202157300228,4.719519892442804
77,44,male,382,105,155,change,valid,clock,1,0,3,0.8979591836734694,1,j,same,0.2,0.49559680337463163,0.5052393097039385,0.03533166472516314,0.35333332478057855,1.0010978303816955,4.0253831982872725
77,44,male,383,165,115,change,valid,anti,2,0,1,0.5306122448979592,0,j,same,0.9346938775510205,0.4936843126831683,0.5047223063229467,0.035440710104012396,0.3532451263126859,1.001136637707532,4.3902201690325455
77,44,male,384,105,155,change,valid,clock,2,2,4,0.4938775510204082,1,j,same,1.2653061224489797,0.69244220653254,0.5050106351318391,0.03532525029095268,0.35333589055426273,1.0010737762540884,4.684714852750403
77,44,male,385,45,45,same,valid,clock,4,1,3,0.9714285714285715,1,f,change,2.0,0.650340705927331,0.5048230129359581,0.03537977298037731,0.35327848136967077,1.001070569037438,5.897358471927873
77,44,male,386,135,185,change,valid,clock,5,0,2,1.4857142857142858,1,f,change,1.2653061224489797,0.4954431015448899,0.5050263504945178,0.03533390977736417,0.35327976425651286,1.001060947386577,5.674309999333673
77,44,male,387,105,105,same,catch,clock,5,0,1,1.779591836734694,0,f,change,1.6693877551020408,0,0.5044336567925711,0.035303761937029776,0.35329163095957483,1.0010317617116016,6.379304085225158
77,44,male,388,75,125,change,valid,clock,2,2,3,0.23673469387755103,1,f,change,1.5224489795918368,0.6916216383694445,0.5058287961901442,0.03532492956946953,0.35324897497412167,1.0010721726457632,4.685544239068804
77,44,male,389,105,155,change,catch,clock,2,2,1,1.3020408163265307,0,f,change,0.9714285714285715,0,0.5047938272618921,0.03535122874927765,0.3532996490021105,1.0010038589234682,5.190376232212657
77,44,male,390,165,115,change,valid,anti,3,1,2,0.5673469387755102,1,j,same,0.3836734693877551,0.6490906178104888,0.5054708707721147,0.03537528287688474,0.3532646903368004,1.0010789078014568,3.872416907422121
77,44,male,391,105,155,change,catch,clock,1,1,1,0.27346938775510204,0,j,same,1.559183673469388,0,0.5052986432192483,0.035361812564588035,0.35317232248689834,1.0011754450333683,4.755679660599526
77,44,male,392,165,165,same,valid,anti,2,0,3,1.5224489795918368,1,j,same,1.8163265306122451,0.4935708511417826,0.5049493772867208,0.03532557101243583,0.35332049591306713,1.0011003961553797,6.262526106746009
77,44,male,393,45,45,same,catch,clock,2,0,1,1.0448979591836736,0,f,change,0.2,0,0.5048602166534693,0.035302799771670834,0.3533108742612967,1.001058702334376,4.166072583168898
77,44,male,394,75,75,same,valid,clock,5,1,4,0.3469387755102041,1,j,same,0.5673469387755102,0.6479107956203578,0.5051703545386772,0.035310497093632875,0.3532794435350297,1.0011331097684888,3.8363180763881246
77,44,male,395,15,325,change,valid,anti,3,2,4,1.1183673469387756,1,j,same,0.9714285714285715,0.6907926399355985,0.5051697130948014,0.035303761937029776,0.3533281932332102,1.001104244815906,5.0140963601934345
77,44,male,396,15,325,change,valid,anti,5,0,1,0.9714285714285715,0,j,same,1.889795918367347,0.4916473856993513,0.5051822212417392,0.03533166472516314,0.35334871942268364,1.00104010047653,5.780245659993852
77,44,male,397,75,125,change,valid,clock,4,1,2,2.0,1,f,change,0.2,0.6467791505336407,0.504736097355817,0.03538747030052036,0.35332594818191865,1.0010192535646638,5.131335215755826
77,44,male,398,75,25,change,valid,anti,5,1,4,0.8979591836734694,1,f,change,1.889795918367347,0.6456821267352085,0.5052434790868574,0.03531723224932648,0.35329163095957483,1.0010904537821261,5.709100606548418
77,44,male,399,45,45,same,valid,anti,5,1,3,0.8612244897959185,1,f,change,1.779591836734694,0.6446072877421059,0.5055003771685733,0.0353374377154978,0.3532778399267045,1.0010712104813138,5.568597240253439
77,44,male,400,75,25,change,catch,anti,2,1,1,1.6693877551020408,0,f,change,1.3020408163265307,0,0.5045766986704621,0.035373358546166855,0.3532672561104846,1.0011542774009285,5.88528522422348
77,44,male,401,15,15,same,valid,clock,1,1,1,0.5306122448979592,0,f,change,1.926530612244898,0.6434921975579752,0.5027825814759126,0.03530632771071396,0.35334134282311425,1.0010638338817444,5.388903927173487
77,44,male,402,75,125,change,catch,clock,4,0,1,1.3020408163265307,0,j,same,1.5224489795918368,0,0.5048502742811252,0.035442955155303935,0.3533237031297176,1.0010365725374868,5.744291795168465
77,44,male,403,105,55,change,catch,anti,5,2,1,1.889795918367347,0,j,same,0.2,0,0.5052720233179571,0.03533936204621568,0.35336154829019506,1.0010420248054288,5.014497583040793
77,44,male,404,105,105,same,valid,clock,1,1,3,0.27346938775510204,1,f,change,1.448979591836735,0.6453204507828477,0.5052999261051809,0.03532140163042641,0.35332723106785124,1.0010789078014568,4.649497044228156
77,44,male,405,45,45,same,valid,anti,1,1,4,1.1551020408163268,1,j,same,1.8530612244897962,0.6442763706833746,0.5048894023284447,0.03529381956468569,0.3533262689024923,1.001038176145812,5.933254606846276
77,44,male,406,135,85,change,valid,anti,1,2,2,1.889795918367347,1,j,same,1.559183673469388,0.6899520721386903,0.5044926695845788,0.03536822699879849,0.35328040570038866,1.0010785870799737,6.368430015959348
77,44,male,407,15,65,change,valid,clock,3,0,2,0.42040816326530617,1,f,change,0.3469387755102041,0.4934089728806315,0.5047043459071574,0.03530825204143184,0.35328521652627387,1.0011000754338966,3.6831615975534078
77,44,male,408,105,105,same,valid,anti,5,2,1,0.6775510204081634,0,f,change,1.1918367346938776,0.6891490735395245,0.5047941479833753,0.03534128637602407,0.35333877704943006,1.0010295166594005,4.790195730040068
77,44,male,409,15,325,change,valid,anti,4,1,3,1.8163265306122451,1,f,change,1.9632653061224492,0.6431890671430691,0.505145017524228,0.03532332596114429,0.3532611623986668,1.0010747384194474,6.710401774489583
77,44,male,410,75,125,change,valid,clock,2,1,1,0.2,0,j,same,0.6040816326530613,0.6420958677937514,0.5048076182947625,0.03537528287688474,0.35329772467139264,1.0010064246971524,3.73009697341422
77,44,male,411,45,95,change,catch,clock,3,0,1,1.8163265306122451,0,f,change,1.412244897959184,0,0.5052226321759008,0.03535603957425337,0.35329387601177586,1.001065116767677,6.156400258116264
77,44,male,412,105,105,same,valid,anti,2,1,3,1.5224489795918368,1,j,same,0.8244897959183675,0.6439134944918562,0.5056639452359377,0.03536437833827222,0.3532707840486182,1.0010708897589211,5.2745028172194
77,44,male,413,135,185,change,catch,clock,5,2,1,0.8612244897959185,0,j,same,0.27346938775510204,0,0.5045337219617068,0.03532332596114429,0.35325346507670474,1.0010667203769117,4.060179578495081
77,44,male,414,45,355,change,catch,anti,4,2,1,1.0081632653061225,0,f,change,1.448979591836735,0,0.5047056287939995,0.03528932946119312,0.35331472292273247,1.001129261108872,5.379406074725921
77,44,male,415,105,55,change,valid,anti,3,1,2,1.0448979591836736,1,j,same,1.706122448979592,0.6428508759684475,0.5053999912761356,0.03545674618817429,0.35311940340670844,1.0012251568969077,5.674215065709177
77,44,male,416,45,355,change,valid,anti,2,0,1,1.3020408163265307,0,f,change,1.4857142857142858,0.4915201571935227,0.5056376460570391,0.035299271833537205,0.3533371734411048,1.001071531202797,5.709925502763326
77,44,male,417,15,15,same,valid,clock,5,2,3,0.3836734693877551,1,j,same,0.6775510204081634,0.6921093947859662,0.5047726596294524,0.03536758555583219,0.35327687776134553,1.0010570987260508,3.977188669030511
77,44,male,418,165,115,change,valid,anti,5,2,4,0.4571428571428572,1,f,change,0.8612244897959185,0.69132130984429,0.5054147444752743,0.03532300523966114,0.35334936086564994,1.0010349689291616,4.24927132029552
77,44,male,419,135,185,change,valid,clock,2,0,2,0.9346938775510205,1,f,change,0.31020408163265306,0.4932531122734692,0.5048438598478242,0.035256615847174544,0.35327912281354656,1.0011574846184885,4.166219794430617
77,44,male,420,75,125,change,valid,clock,5,0,1,0.5306122448979592,0,j,same,0.5673469387755102,0.4913973377905036,0.5050590641085364,0.035332626889612584,0.35327623631746974,1.0009721074748086,4.025425212830669
77,44,male,421,75,125,change,valid,clock,4,2,4,0.8612244897959185,1,f,change,0.23673469387755103,0.6905229611755869,0.5048175606680161,0.03533134400367999,0.35326693538900145,1.001093660999686,4.0244643306150465
77,44,male,422,165,165,same,catch,anti,3,2,1,0.42040816326530617,0,j,same,0.7510204081632653,0,0.505085363287435,0.03532492956946953,0.3533041391065126,1.0011876324579134,4.0951584493486735
77,44,male,423,165,165,same,valid,clock,4,0,1,1.1918367346938776,0,f,change,0.5306122448979592,0.4931029077190087,0.5062816552326694,0.0351892642902385,0.3533589825174204,1.0010221400607406,4.649884796765036
77,44,male,424,105,55,change,valid,anti,1,2,3,1.8163265306122451,1,f,change,0.7142857142857143,0.6897223044440824,0.505679660599526,0.03532653317870427,0.3533663591160803,1.0011799351377704,5.462719309498425
77,44,male,425,75,75,same,valid,anti,4,0,2,1.2653061224489797,1,j,same,0.6775510204081634,0.4947387567889936,0.5051228877264293,0.03523384460640955,0.3533605861257456,1.0010580608905002,4.861451753192341
77,44,male,426,165,215,change,valid,clock,2,2,2,0.27346938775510204,1,j,same,1.412244897959184,0.6889610428172925,0.5047540577706968,0.035273934819088026,0.35316783238249627,1.0010708897589211,4.613187819759332
77,44,male,427,135,135,same,valid,anti,4,2,3,1.3020408163265307,1,f,change,1.1183673469387756,0.6882291775415182,0.505509357376468,0.035318515135259076,0.35327751920431183,1.0011119421369585,5.344497762645005
77,44,male,428,165,215,change,catch,clock,4,2,1,0.8612244897959185,0,j,same,1.3387755102040817,0,0.5050500839006418,0.03535603957425337,0.35330798776612937,1.0010817942966241,5.120498991651402
77,44,male,429,135,185,change,valid,clock,4,1,2,0.4571428571428572,1,f,change,0.5306122448979592,0.6417785737393663,0.5055783125417292,0.03531979802301066,0.3533249860165597,1.0011026412066713,3.9198962272866993
77,44,male,430,105,55,change,valid,anti,5,0,1,1.3755102040816327,0,f,change,1.559183673469388,0.49295802580284254,0.5045985077458681,0.03531755297080963,0.35327848136967077,1.0011080934764323,5.861258999450911
77,44,male,431,165,165,same,catch,clock,3,2,1,0.9346938775510205,0,f,change,1.6326530612244898,0,0.5057101291613435,0.03530825204143184,0.35329900755914423,1.0011039240935133,5.486489598353728
77,44,male,432,135,85,change,catch,anti,3,2,1,1.6326530612244898,0,f,change,0.6775510204081634,0,0.5049557917209313,0.03531210070104862,0.35328233003019704,1.0010869258439925,5.2256787112628444
77,44,male,433,135,135,same,valid,clock,1,2,2,0.9714285714285715,1,j,same,2.0,0.6875222955072293,0.505835852067321,0.03529093306951836,0.3533243445735934,1.001058702334376,5.898635265019038
77,44,male,434,15,65,change,valid,clock,5,1,3,2.0,1,j,same,0.7877551020408163,0.6406853432921809,0.5047037044632816,0.03528419791291526,0.35334936086564994,1.0010256679997838,5.720448381766801
77,44,male,435,45,45,same,catch,clock,4,0,1,0.4571428571428572,0,f,change,1.2653061224489797,0,0.5055965936790017,0.03537624504224368,0.35328425436091493,1.0010189328431807,4.649661574460879
77,44,male,436,165,115,change,catch,anti,4,2,1,1.1183673469387756,0,f,change,1.5224489795918368,0,0.5056485505947421,0.03534641792430193,0.35332466529507656,1.0010439491352372,5.568905133086446
77,44,male,437,75,125,change,valid,clock,1,2,3,0.4571428571428572,1,j,same,0.3836734693877551,0.6868363393593732,0.5047870921061985,0.035309214206790784,0.35330125261134526,1.001072814089639,3.7654661625783774
77,44,male,438,75,75,same,valid,anti,1,0,1,0.7142857142857143,0,f,change,0.31020408163265306,0.4945668572057655,0.5054766437624494,0.035329419672962104,0.3532986868367516,1.0010894916176767,3.9425824767922677
77,44,male,439,135,185,change,catch,clock,4,1,1,0.6775510204081634,0,j,same,1.926530612244898,0,0.5057534265906725,0.035319156578225375,0.3532954796201011,1.0010468356322235,5.521616642633489
77,44,male,440,135,185,change,valid,clock,1,0,3,1.412244897959184,1,f,change,0.7877551020408163,0.4961349684775792,0.5050366135892546,0.03539741267377394,0.3533153643647893,1.0010708897589211,5.13164503291955
77,44,male,441,105,105,same,valid,anti,2,2,2,0.4938775510204082,1,f,change,0.8612244897959185,0.686167553500294,0.505520261914171,0.035342248541383015,0.3532996490021105,1.001083718627342,4.284291884971935
77,44,male,442,45,45,same,valid,anti,4,2,2,2.0,1,f,change,1.412244897959184,0.6855124366139725,0.5053627875595339,0.03531145925808232,0.3533009318889526,1.0010420248063383,6.34541438526594
77,44,male,443,165,215,change,valid,clock,5,2,2,1.742857142857143,1,f,change,1.5959183673469388,0.6848676996519607,0.505326225284989,0.03536309545143013,0.35328906518589065,1.0010712104813138,6.26286094020179
77,44,male,444,45,45,same,catch,anti,1,0,1,0.2,0,j,same,0.23673469387755103,0,0.5058791494975594,0.035330381838321046,0.3532646903368004,1.0010808321321747,3.3657837412056324
77,44,male,445,135,135,same,valid,anti,1,1,2,0.27346938775510204,1,j,same,1.779591836734694,0.6395818053975115,0.5055879341925902,0.03531787369229278,0.35329644178546005,1.001066078933036,4.9793811225772515
77,44,male,446,75,75,same,catch,anti,2,0,1,1.889795918367347,0,j,same,0.31020408163265306,0,0.505702431840291,0.03533102328219684,0.3533458329275163,1.0010378554234194,5.120935814607037
77,44,male,447,105,155,change,valid,clock,1,1,1,1.706122448979592,0,j,same,0.2,0.6385397271539563,0.5055606728483326,0.035330381838321046,0.3532720669354603,1.001069606872079,4.837801093533017
77,44,male,448,105,105,same,valid,anti,4,1,1,0.8979591836734694,0,f,change,0.5306122448979592,0.6403960130414985,0.5053643911669496,0.035330061116837896,0.3533150436442156,1.0010766627492558,4.35532147860431
77,44,male,449,165,115,change,valid,anti,1,0,3,1.6326530612244898,1,j,same,0.9714285714285715,0.494449046273892,0.5047919029320838,0.0353656612260238,0.35327751920431183,1.001044590579113,5.520356847792755
77,44,male,450,135,85,change,catch,anti,1,0,1,0.7877551020408163,0,f,change,2.0,0,0.505192805057959,0.03535090802688501,0.3532868201345991,1.00107922852294,5.721442619038498
77,44,male,451,135,85,change,valid,anti,2,1,1,1.8530612244897962,0,f,change,1.6693877551020408,0.6422159695744921,0.5042277534603272,0.035384583806262526,0.35326436961440777,1.001045873465955,6.449930531679456
77,44,male,452,105,105,same,valid,clock,1,2,4,1.1918367346938776,1,j,same,1.742857142857143,0.6841793933852329,0.5059728002333941,0.03535090802688501,0.35331119498368935,1.0010619095510265,5.862954013639865
77,44,male,453,45,45,same,valid,clock,1,0,4,1.0816326530612246,1,f,change,0.5306122448979592,0.4927317680845592,0.5052883801245116,0.03532140163042641,0.3532980453937853,1.0010397797541373,4.5432781863055425
77,44,male,454,165,115,change,catch,anti,3,0,1,1.779591836734694,0,f,change,1.5224489795918368,0,0.5050702893677226,0.035382980197937286,0.35324352270436066,1.0010991132685376,6.227307977503187
77,44,male,455,75,75,same,valid,anti,5,1,4,1.6693877551020408,1,j,same,1.8530612244897962,0.6439121315588964,0.5053560524029308,0.035333909776454675,0.3533378148849806,1.001045873465955,6.439624460545929
77,44,male,456,15,15,same,valid,clock,4,1,4,1.448979591836735,1,j,same,0.42040816326530617,0.6429190790122771,0.505131867934324,0.03529510245152778,0.3533163265310577,1.001049080683515,4.7903224151114046
77,44,male,457,105,105,same,catch,clock,2,1,1,2.0,0,j,same,1.2653061224489797,0,0.5052640052754214,0.035357001739612315,0.35330927065297146,1.001072814089639,6.18041654051558
77,44,male,458,15,65,change,valid,clock,4,0,1,0.27346938775510204,0,j,same,0.9714285714285715,0.4909958704208603,0.5053461100305867,0.035315949361574894,0.35335064375249203,1.0010676825422706,4.166495294371998
77,44,male,459,105,105,same,valid,anti,5,1,1,0.9714285714285715,0,f,change,0.6408163265306123,0.6419167549224951,0.5051344337080081,0.03531210070104862,0.353306063436321,1.0010731348111221,4.5312831946957886
77,44,male,460,105,105,same,valid,anti,5,0,1,0.8979591836734694,0,f,change,0.6408163265306123,0.49260037783595445,0.5053429028139362,0.03539292257028137,0.3533230616867513,1.0010128391313629,4.461457911049365
77,44,male,461,165,215,change,valid,clock,3,0,3,1.412244897959184,1,f,change,0.8244897959183675,0.4941332993441228,0.5045555310380223,0.03530344121554663,0.35334551220512367,1.0010631924378686,5.167353866364465
77,44,male,462,105,105,same,valid,clock,3,2,3,0.6775510204081634,1,j,same,1.6326530612244898,0.6834950757418173,0.5050734965852826,0.0353146664756423,0.35333524911129643,1.00104010047653,5.226698926992867
77,44,male,463,75,75,same,valid,clock,2,0,1,0.9714285714285715,0,j,same,0.8612244897959185,0.4924732382368895,0.5046167888831405,0.03533102328219684,0.35333460766833014,1.0010779456360979,4.754315310484344
77,44,male,464,135,185,change,valid,clock,3,0,3,1.6693877551020408,1,j,same,1.926530612244898,0.4939834348614365,0.5052665710491056,0.03534321070583246,0.35331536436569877,1.0010529293440413,6.510193177095061
77,44,male,465,105,105,same,catch,anti,4,1,1,1.8163265306122451,0,j,same,1.4857142857142858,0,0.5052434790868574,0.0353220430743022,0.35333268333670276,1.0010965474948534,6.227527992589785
77,44,male,466,135,135,same,valid,anti,4,1,4,1.742857142857143,1,j,same,0.7877551020408163,0.6435881164765554,0.5052656088837466,0.03532845750760316,0.35331119498368935,1.001059664499735,5.461533922093622
77,44,male,467,45,45,same,valid,clock,4,0,3,2.0,1,j,same,0.8979591836734694,0.4923501202489414,0.5055064708813006,0.035384583806262526,0.3531726432083815,1.0011353548206898,5.827273082982174
77,44,male,468,135,85,change,catch,anti,1,1,1,0.3836734693877551,0,f,change,0.9346938775510205,0,0.5052986432192483,0.03532332596114429,0.3533063841587136,1.0010635131602612,4.237494419442555
77,44,male,469,105,105,same,valid,clock,4,1,4,0.5673469387755102,1,f,change,0.5306122448979592,0.6426143356849675,0.5049240402722717,0.035327495343153714,0.3532893859082833,1.0011177151272932,4.025441569637223
77,44,male,470,135,85,change,valid,anti,4,2,3,1.4857142857142858,1,j,same,1.2285714285714286,0.6828111689601546,0.5046770845628998,0.03535251163611974,0.353316967974024,1.0010253472773911,5.638587374854978
77,44,male,471,165,165,same,valid,clock,2,0,1,1.742857142857143,0,f,change,1.412244897959184,0.49069031201930835,0.5043717575035771,0.03532621245631162,0.35328970662976644,1.0010590230567686,6.085154177336335
77,44,male,472,135,135,same,catch,clock,4,0,1,1.448979591836735,0,f,change,0.42040816326530617,0,0.5051674680435099,0.03530632771162345,0.35332658962488495,1.001012197687487,4.8022394713480026
77,44,male,473,15,325,change,valid,anti,1,0,1,1.8530612244897962,0,j,same,1.3020408163265307,0.4922308108278101,0.5053313568323574,0.03532589173391898,0.3533176094169903,1.0010766627492558,6.074523535840854
77,44,male,474,135,135,same,valid,clock,2,2,3,0.8979591836734694,1,f,change,0.7142857142857143,0.682124187388202,0.5053400163187689,0.03528548079975735,0.35330189405431156,1.0010959060518871,4.531551959481476
77,44,male,475,135,135,same,valid,clock,5,2,4,0.8244897959183675,1,j,same,0.3469387755102041,0.6814307008335083,0.5053560524038403,0.035315949361574894,0.3533022147757947,1.0011096970847575,4.095516374766703
77,44,male,476,165,115,change,catch,anti,1,1,1,1.6326530612244898,0,f,change,0.23673469387755103,0,0.5056091018259394,0.03531177998047497,0.3533532095261762,1.001038176145812,4.791425056318985
77,44,male,477,15,15,same,valid,clock,3,0,4,1.1551020408163268,1,f,change,0.31020408163265306,0.49369829139450144,0.5052678539350381,0.03531915657913487,0.3533073463222536,1.0010542122308834,4.389863847223751
77,44,male,478,15,325,change,catch,anti,3,1,1,1.2285714285714286,0,f,change,0.4571428571428572,0,0.5054320634462783,0.03535796390406176,0.3532752741530203,1.001085963679543,4.614335362005477
77,44,male,479,15,15,same,catch,clock,2,1,1,1.8163265306122451,0,f,change,1.1551020408163268,0,0.5051860699022654,0.035315307918608596,0.3533115157051725,1.001085963679543,5.897537434636433
77,44,male,480,45,355,change,valid,anti,5,2,4,0.23673469387755103,1,f,change,0.5306122448979592,0.6807273000692173,0.5053528451862803,0.03538811174530565,0.3533054219924452,1.0010776249146147,3.6954651234400444
