subject,age,gender,ntrial,memory_ori,test_ori,type,trial_type,which_change,trial,quest,pas,pas_rt,vis,test_key,test,test_rt,contrast,fix_dur,target_dur,mask_dur,retention_dur,trial_dur
10,22,female,1,165,215,change,valid,clock,4,0,1,1.7966377240334168,0,f,same,1.232608842763966,0.2,0.5048025870371475,0.035299151028311826,0.353309982947394,1.0010683106229408,6.715237650204017
10,22,female,2,165,115,change,valid,anti,2,1,1,1.4519268237690994,0,j,change,1.1215423826822644,0.2,0.49956334286616766,0.03531101758267141,0.35329555065140994,1.0010744042588158,6.192164738565452
10,22,female,3,45,45,same,valid,anti,4,1,1,1.59427255936248,0,f,same,0.4971849004828073,0.33948538693435915,0.49966885898584223,0.035349824423065,0.3532965128044907,1.0010513125853322,5.709655238105597
10,22,female,4,45,95,change,valid,clock,2,1,1,1.0666906777310032,0,f,same,1.2699054235606582,0.43994886294822894,0.49946167535858876,0.035313583324295905,0.3533032478758287,1.0010394460307452,6.014631140981919
10,22,female,5,15,325,change,valid,anti,4,2,1,1.4028887683703033,0,f,same,1.3320322885740552,0.2,0.5005110636377594,0.03533827858632321,0.3532830426615874,1.0010384838776645,6.369749650978974
10,22,female,6,105,155,change,catch,clock,4,2,1,1.9910933490527896,0,j,change,1.036743342782529,0,0.49920670479559703,0.035313262606450735,0.35332056663105504,1.0010564440683538,8.170159977190451
10,22,female,7,15,65,change,valid,clock,2,0,1,1.647092517752526,0,f,same,1.511035414609296,0.3150270229513009,0.4998298592659012,0.03534757939928568,0.35327342113077975,1.001096533779446,6.839657511993892
10,22,female,8,165,165,same,catch,clock,2,0,1,0.9759750379007528,0,f,same,4.629500511063725,0,0.499867703953214,0.03527573863698308,0.35336995715533703,1.0010266173230775,10.773396595966688
10,22,female,9,15,325,change,valid,anti,2,0,1,5.568835797995234,0,f,same,3.8628601539380725,0.3996559747928428,0.5002387743197687,0.03531230045336997,0.35331158653593775,1.0010586890921331,13.094021277052889
10,22,female,10,165,165,same,catch,anti,2,0,1,0.7300817477319015,0,j,change,0.7469607989974065,0,0.4999895766750342,0.03533026064405931,0.353309982947394,1.0010423324897602,6.674732288926862
10,22,female,11,15,65,change,valid,clock,5,1,1,0.7688286139191405,0,f,same,0.5420395143437418,0.5219745890327315,0.500654103727129,0.03532448772557473,0.3532766283078672,1.0010830636365426,4.991811115241262
10,22,female,12,105,155,change,valid,clock,4,0,1,1.9757171808785188,0,j,change,4.546461249124832,0.46690619962159796,0.49925256742540114,0.035345334375506354,0.3533135108420993,1.0010651034458533,10.184223447862678
10,22,female,13,165,165,same,valid,clock,4,1,1,2.003411474060158,0,f,same,1.097477330871925,0.5923157676589426,0.49949438856310735,0.035319035524935316,0.3533128694066363,1.001018599381041,6.7573504485396825
10,22,female,14,45,95,change,valid,clock,2,0,1,1.6183151609345714,0,j,change,1.7467379002034704,0.5261480498876727,0.4996990064487363,0.035352069446844325,0.35329875782827,1.0010686313405586,7.004608392476484
10,22,female,15,45,95,change,valid,clock,4,2,1,1.5132640818317213,0,j,change,0.9424205911018362,0.3670372117912738,0.500050513036058,0.03532128054871464,0.3532570645288615,1.0010785735887566,6.0857377805759825
10,22,female,16,165,115,change,valid,anti,4,0,1,2.0086536046903802,0,f,same,1.2219132285463274,0.5793366454280041,0.5006492929619526,0.0353690674844529,0.35330324787605605,1.0010638205751548,6.864700752756562
10,22,female,17,15,15,same,valid,clock,4,2,1,1.5445334150949748,0,j,change,1.2037468164760412,0.4895303947352734,0.49956975721988783,0.035349182987602035,0.3532820805085066,1.0010721592350365,6.415710420149708
10,22,female,18,105,105,same,valid,clock,5,1,1,2.5403288061893363,0,f,same,2.590211952699292,0.655190058817081,0.5001425590128292,0.03530877255889209,0.353310624382857,1.0010339938301058,8.759890532638337
10,22,female,19,165,165,same,valid,clock,1,1,1,0.7931313175372452,0,j,change,2.167351131668511,0.7151214254916749,0.4999975946172981,0.035343730786962624,0.3532609131409572,1.0010644620103903,6.616749096458079
10,22,female,20,135,85,change,catch,anti,3,0,1,1.2172952145392628,0,f,same,1.5150880033304475,0,0.4995210081310688,0.035325129161037694,0.3533051721822176,1.0010599719628317,7.911704175134901
10,22,female,21,75,25,change,valid,anti,2,2,1,1.1412575404738163,0,f,same,1.3828724566687924,0.5890718826496524,0.4998792497899558,0.03532673274935405,0.3533013235698945,1.0010737628235802,6.215973216224256
10,22,female,22,75,75,same,valid,clock,5,1,1,2.637787856152954,0,f,same,1.1373874401181183,0.7705518255581851,0.49929394000719185,0.035297868157613266,0.3533359610801199,1.0010423324899875,7.381214666933147
10,22,female,23,135,135,same,valid,anti,2,0,1,2.164754280538773,0,j,change,1.3722897350776293,0.6269063766957922,0.4998000325206249,0.03532833633789778,0.35323974577363515,1.0010843465072412,7.193578782857003
10,22,female,24,135,135,same,valid,clock,4,1,1,2.2736709699497624,0,f,same,2.67837788690008,0.8206341458734543,0.49960279114179684,0.03533378853853719,0.3532910606036239,1.0010551611974279,8.58281139202063
10,22,female,25,15,65,change,valid,clock,5,0,1,2.338234647965919,0,j,change,1.5761369361903235,0.6716318026819171,0.5000405707876325,0.03536169097765196,0.3532458394097375,1.0010792150242196,7.569871074696039
10,22,female,26,75,75,same,valid,clock,2,1,1,2.0660598260362804,0,f,same,1.0818022538114747,0.8678314452902671,0.5004931034470701,0.0353058860996498,0.35330934151193105,1.0010468225375462,6.804735845686082
10,22,female,27,135,85,change,valid,anti,5,1,1,2.151861429432529,0,f,same,1.4534932089632093,0.9134282131376517,0.5006470479381733,0.03532961920859634,0.3532933056276306,1.0010679899050956,7.264868872969146
10,22,female,28,15,15,same,valid,clock,1,2,1,1.057280179294139,0,f,same,6.8522883367484155,0.6758845662617424,0.49983082141898194,0.03532063911325167,0.35332281165506174,1.001059009809751,11.562876221894157
10,22,female,29,75,75,same,valid,anti,3,2,1,1.0432837386190386,0,j,change,3.0754308761975153,0.7550828364566777,0.49960728118958286,0.035363936001431284,0.3533125486890185,1.0010574062214346,7.852692761754497
10,22,female,30,75,25,change,valid,anti,2,1,1,1.0591528498814569,0,j,change,1.307385775593275,0.9553397774714711,0.4997750165409798,0.035302999640407506,0.3532817597908888,1.0010391253131274,6.074596368770244
10,22,female,31,45,355,change,valid,anti,1,0,1,1.3522500109845623,0,j,change,1.1164721567336073,0.7121782405476902,0.49962459994480923,0.03535944595364526,0.35325642309339855,1.001097175214909,6.121595301101024
10,22,female,32,45,95,change,valid,clock,3,2,1,1.4010375858681527,0,f,same,1.5812437239558221,0.8277920650611539,0.49949214353910065,0.03534373078719,0.35331415227733487,1.001059651245214,6.615545442970642
10,22,female,33,15,325,change,valid,anti,1,0,1,1.466948919614424,0,f,same,1.7779600879664486,0.7502722747458377,0.500359364170663,0.03531518691261226,0.35330837935907766,1.0010711970819557,6.88776195819969
10,22,female,34,165,215,change,valid,clock,4,2,1,1.877788279500237,0,f,same,1.5775310959852504,0.8941448639260581,0.49978688309533936,0.03531262117098777,0.3533122279714007,1.0010699142112571,7.086748682732377
10,22,female,35,165,165,same,valid,clock,3,2,1,1.5935387572894797,0,j,change,1.7571897689774687,0.9539979878836427,0.5004927827296797,0.0352866430382619,0.3533388475393622,1.0010429739254505,7.016732803999503
10,22,female,36,105,55,change,valid,anti,4,2,1,1.282960557817887,0,j,change,3.5739740160943256,1,0.5004071511064012,0.03535303160015246,0.3532727796953168,1.0010865915310205,8.441711965367631
10,22,female,37,105,105,same,valid,anti,4,0,1,2.012921074263204,0,f,same,1.6271804392999911,0.7869214580172195,0.5005357588997867,0.035315186912839636,0.3532961920868729,1.0010715177995735,7.264725512162158
10,22,female,38,45,45,same,valid,clock,1,1,1,2.7131712661325764,0,f,same,2.37559825875951,0.9976483425635696,0.49986802467128655,0.035332184950220835,0.3533019650053575,1.0010618962687658,8.724830957723952
10,22,female,39,165,165,same,valid,anti,3,0,1,1.8168490320899764,0,j,change,0.9925285607118894,0.8226559822230832,0.49959284889382616,0.03532256341986795,0.3532772697431028,1.001074724976661,6.427813022869941
10,22,female,40,105,105,same,valid,clock,5,0,1,1.5587639796831354,0,f,same,1.1537074804514305,0.8555383277756634,0.4995739265496013,0.03531486619476709,0.3533317917504064,1.0010301452180101,6.3336496678807634
10,22,female,41,45,45,same,valid,clock,5,0,1,1.7851249211439608,0,j,change,2.524315051249232,0.8887039530740575,0.4993465377078792,0.035305244664414204,0.3533183216072757,1.0010378424422015,7.934485714753009
10,22,female,42,105,155,change,valid,clock,2,0,1,1.3823291609028274,0,j,change,2.4264567077620995,0.9199498010814595,0.4997006100370527,0.03532320485510354,0.35331479371279784,1.0010391253131274,7.464223460691301
10,22,female,43,135,135,same,valid,clock,1,2,1,1.1143108402256985,0,f,same,3.1470920366759856,1,0.49979490103760327,0.03529947174592962,0.353331471033016,1.0010477846903996,7.876762303612395
10,22,female,44,165,215,change,valid,clock,3,2,1,0.8509137407322669,0,f,same,0.436138533364101,1,0.49948733277369683,0.03532320485464879,0.3533115865357104,1.0010253344526063,4.89665930833371
10,22,female,45,75,125,change,valid,clock,5,1,1,1.0221878911752356,0,f,same,3.4704133120931147,1,0.49979971180346183,0.03535303160015246,0.3532682896479855,1.0010776114354485,8.099916388898691
10,22,female,46,15,15,same,valid,clock,2,1,1,1.7265333272184762,0,j,change,1.9005075998866232,1,0.4996537852543952,0.03534501365811593,0.3532750247190961,1.0010869122488657,7.22823842281332
10,22,female,47,75,75,same,valid,anti,4,0,1,1.1771301347303051,0,f,same,2.684139580187093,0.9498727153922786,0.5003003521155733,0.03534886226998424,0.3532682896479855,1.0010493882791707,7.5588990018304685
10,22,female,48,75,75,same,valid,clock,1,1,1,1.210940834962912,0,f,same,0.9601880303666803,1,0.4994507709575373,0.03532865705574295,0.35329875782827,1.0010744042588158,5.826237721723828
10,22,female,49,75,25,change,valid,anti,1,1,1,2.5647694184140164,0,j,change,2.085531238384192,1,0.5005533983726309,0.03532544987865549,0.35330581361768054,1.0010416910549793,8.324870983291476
10,22,female,50,75,75,same,valid,anti,1,2,1,1.7239820180006973,0,f,same,2.3455367483138616,1,0.4996656518092095,0.035388310545840795,0.35330068213443155,1.001063499857537,7.722756876427866
10,22,female,51,45,355,change,valid,anti,2,0,1,2.0047559226131852,0,f,same,2.1647119458039015,0.9788637608968467,0.5099792912587873,0.035295302416216146,0.3533022857227479,1.0010391253131274,7.827954523514563
10,22,female,52,135,185,change,valid,clock,4,2,1,1.0259572861768902,0,j,change,1.3023495457196077,1,0.4991499377647415,0.035320959830642096,0.35332313237267954,1.0010561233502813,5.932251595329944
10,22,female,53,135,185,change,valid,clock,2,1,1,1.6660151821338332,0,f,same,1.0145108718484153,1,0.4996589167376442,0.03533346782114677,0.35327213826030857,1.001019561533667,6.286239896189727
10,22,female,54,105,105,same,catch,clock,1,2,1,1.4384951669449038,0,f,same,1.5308605785685359,0,0.49959413176429734,0.03530652753488539,0.3533022857227479,1.000998394166345,8.135386161737642
10,22,female,55,165,215,change,catch,clock,4,2,1,1.040599652277706,0,j,change,0.5941439515690945,0,0.4998539130924655,0.03534886226998424,0.35330004069919596,1.0010541990445745,6.76877152617044
10,22,female,56,165,165,same,valid,clock,3,0,1,1.047689758233446,0,f,same,0.4137341577488769,1,0.5007198508533293,0.03530203748732674,0.35331222797094597,1.001066065598934,5.097879831571845
10,22,female,57,105,55,change,catch,anti,2,1,1,1.0870360457820425,0,j,change,1.2538605590048064,0,0.4993256910584023,0.035358804518182296,0.3532801562023451,1.0010070535440718,7.511178775416283
10,22,female,58,45,95,change,catch,clock,5,1,1,1.1092300305936078,0,f,same,1.0680967040807445,0,0.4993000336435216,0.03533122279714007,0.3532814390728163,1.0011003823915416,7.322518839758686
10,22,female,59,105,105,same,catch,anti,4,1,1,0.9149908900139962,0,j,change,0.8494519095052055,0,0.5000691146619829,0.03532577059650066,0.35333339533872277,1.0010452189490024,6.922030643292601
10,22,female,60,165,165,same,catch,clock,5,2,1,1.0070663728461113,0,f,same,0.8599682425342507,0,0.5002849576667359,0.03533667499777948,0.3532843255320586,1.0010734421061898,7.028463374200328
10,22,female,61,15,15,same,valid,clock,1,1,1,0.8281190516891002,0,j,change,0.9360479306174057,1,0.5001634056629882,0.03525617485820476,0.3533388475393622,1.0010856293779398,5.391499121073593
10,22,female,62,165,165,same,valid,clock,1,0,1,1.1182309725413688,0,j,change,1.209496322490395,1,0.4995726436791301,0.035311017582898785,0.35329811639303443,1.0010455396668476,5.956114594996052
10,22,female,63,105,155,change,catch,clock,1,0,1,1.041078163070324,0,j,change,0.139394812134924,0,0.4997641121394736,0.03529818887500369,0.3532974749573441,1.0010897987076532,6.3092392031189775
10,22,female,64,15,15,same,catch,anti,4,1,1,0.8496443401186298,0,j,change,1.2126614853655155,0,0.5009228651506419,0.03532865705574295,0.3533394889750525,1.0010647827280081,7.277017017601338
10,22,female,65,15,15,same,catch,anti,1,2,1,1.406931414842802,0,j,change,1.207531926644151,0,0.4994170955997106,0.03537419896747451,0.35328400481466815,1.0010314280884813,7.805460988381128
10,22,female,66,75,75,same,valid,anti,4,1,1,0.9890683375633671,0,f,same,0.6397939452986066,1,0.4995001614811372,0.035289208779886394,0.35334333758737557,1.0010561233502813,5.355358086110755
10,22,female,67,15,15,same,valid,anti,5,0,1,1.106236772399825,0,f,same,1.487837904148364,1,0.49975384917343035,0.03533795786825067,0.3532840048142134,1.0010416910545246,6.321141998719213
10,22,female,68,15,325,change,catch,anti,3,1,1,7.248402585369149,0,j,change,4.502638384070451,0,0.5000841883934299,0.035291453803438344,0.3533157558658786,1.001064462010163,16.944609489331015
10,22,female,69,75,25,change,valid,anti,4,2,2,2.437829998457346,1,j,change,1.9387951983430867,1,0.5007006077921687,0.035310055429363274,0.35330004069919596,1.0010663863163245,8.030049643891289
10,22,female,70,105,55,change,valid,anti,5,0,1,0.9494940197378128,0,f,same,1.3383558792525037,1,0.5001486526489316,0.0353414857631833,0.3532961920868729,1.0010429739254505,5.933597968189588
10,22,female,71,105,105,same,valid,anti,4,1,2,3.1483264790617795,1,j,change,2.7109403538861443,1,0.4993173523985206,0.03532544987865549,0.35332281165483437,1.0010416910549793,9.489346560158538
10,22,female,72,165,165,same,catch,anti,5,1,1,0.9283795706678575,0,f,same,2.313428096858388,0,0.4999838037565496,0.03532512916081032,0.35325353663438364,1.0010487468434803,8.39479513676497
10,22,female,73,45,45,same,valid,clock,1,2,2,1.2434240846796456,1,j,change,3.552362775324127,1,0.5001945152785083,0.0353248084434199,0.3533349989270391,1.0010391253131274,8.383133841585277
10,22,female,74,105,55,change,catch,anti,5,1,1,1.152118003583837,0,j,change,1.4303277702711057,0,0.5000072161478784,0.035345334375506354,0.3532580266819423,1.0010442567959217,7.675793223042547
10,22,female,75,165,115,change,valid,anti,5,1,2,1.1861249830421912,1,j,change,2.155058343358178,1,0.5003519876640894,0.03530460322917861,0.35330196500490274,1.0010670277520148,7.005599730853646
10,22,female,76,75,125,change,catch,clock,4,2,1,0.5556289642709089,0,f,same,1.6908971018988268,0,0.49921728847948543,0.03535014514091017,0.353309982947394,1.0010529161736486,7.369261197938613
10,22,female,77,45,45,same,valid,clock,4,2,2,2.0022321951169033,1,j,change,3.461460477798937,1,0.5002759775716186,0.03534437222242559,0.35326219601165576,1.0010410496188342,9.066032885750246
10,22,female,78,135,185,change,valid,clock,3,0,2,1.048268012227254,1,j,change,5.542919884400817,1,0.4996197891796328,0.03535752164771111,0.35328175979066145,1.0010407289014438,10.231221738757995
10,22,female,79,135,85,change,catch,anti,2,1,1,0.43586624404633767,0,j,change,2.000939702829328,0,0.4998340285960694,0.03531390404168633,0.3532936263454758,1.0010731213878898,7.570217449800111
10,22,female,80,135,85,change,valid,anti,1,2,2,1.0969064533851451,1,f,same,1.7300076619458196,1,0.5001585948975844,0.03531999767801608,0.3532949092164017,1.001070876364338,6.4400111994614235
10,22,female,81,105,105,same,catch,clock,3,1,1,0.7653173966573377,0,f,same,0.8286713275501825,0,0.49984461227950305,0.03530267892301708,0.35334686548185346,1.0010779321537484,6.7457949901972825
10,22,female,82,75,125,change,valid,clock,2,2,1,0.9532011955075177,0,f,same,0.6136086288452134,1,0.49986834538867697,0.035310696865053615,0.35326283744689135,1.0011164182760695,5.226582557383608
10,22,female,83,75,75,same,valid,anti,1,1,2,0.9224767615978635,1,f,same,3.1372132904125465,1,0.49946744827684597,0.03537419896747451,0.35328977773315273,1.0010304659354006,7.770365813803892
10,22,female,84,135,185,change,valid,clock,1,2,2,1.047305538441833,1,j,change,1.69107574165173,1,0.4996762354926432,0.03531550763045743,0.3533122279714007,1.001053557609339,6.3567410207870125
10,22,female,85,45,95,change,valid,clock,2,2,3,4.816290341875629,1,j,change,1.7899000868183066,1,0.500225304176638,0.035367143178518745,0.35329875782827,1.0010407289014438,10.278938757995093
10,22,female,86,75,125,change,valid,clock,4,1,3,1.1955977007105503,1,j,change,1.3592240171369667,1,0.5000421743761763,0.035299792463320045,0.35330421002890944,1.001076970000213,6.180376118462846
10,22,female,87,15,325,change,catch,anti,1,2,1,0.9507028047082713,0,f,same,0.9443971742207395,0,0.5001165808803307,0.035358804518182296,0.35335552485958033,1.0010558026328908,7.0637160211636
10,22,female,88,15,325,change,valid,anti,3,0,2,1.9732075649603757,1,f,same,2.2531004580814624,1,0.5005113843553772,0.03531454547737667,0.3533115865361651,1.0010606133982947,7.88892616341127
10,22,female,89,45,355,change,valid,anti,2,2,3,2.977647901367618,1,j,change,0.8764063069775148,1,0.49956719147803597,0.03531775265400938,0.35335873203621304,1.0010564440681264,7.463519806081422
10,22,female,90,165,165,same,valid,clock,5,0,3,1.5201123666497551,1,f,same,1.029143937137178,1,0.5001874594895526,0.0352423839972289,0.3533917659583494,1.0010426532076053,6.18051947927006
10,22,female,91,45,355,change,catch,anti,3,2,3,1.1523162071157458,1,f,same,1.1427023736637238,0,0.5001832901593843,0.03531839408969972,0.3533221702195988,1.001054519761965,7.511721109028713
10,22,female,92,165,115,change,valid,anti,5,0,2,3.7632859708137403,1,j,change,1.09669413827487,1,0.49944275301504604,0.035334429973772785,0.3533154351484882,1.001053236891039,8.47636679455809
10,22,female,93,105,155,change,valid,clock,4,2,2,1.2043706123813536,1,j,change,1.270531143772132,1,0.4997487176906361,0.035363936001431284,0.35327887333141916,1.0010179579458054,6.074261539502459
10,22,female,94,75,125,change,catch,clock,3,0,2,0.9013401830079601,1,f,same,1.1589922665343693,0,0.4995386476043677,0.03536810533159951,0.35325449878700965,1.0011080796166425,7.228189673724046
10,22,female,95,45,355,change,catch,anti,5,0,1,0.7993853124767156,0,f,same,0.48710249848681997,0,0.4998282556771301,0.03533956145702177,0.3532820805085066,1.0010532368914937,6.404475038061264
10,22,female,96,165,165,same,valid,anti,3,1,2,1.4022175062464157,1,f,same,1.7478395654657106,1,0.49932120101084365,0.03537002963730629,0.35332858457331895,1.00104842612609,6.804428918857411
10,22,female,97,15,65,change,valid,clock,3,1,1,0.907185583611863,0,j,change,0.485058243936237,1,0.4990841906383139,0.03538061332119469,0.3532968335221085,1.001063499857537,4.9550943920266945
10,22,female,98,135,135,same,valid,anti,5,1,2,1.8546517054001015,1,j,change,0.9861735396998483,1,0.49979105242573496,0.035337637150860246,0.3533074172059969,1.001018599381041,6.486742332522226
10,22,female,99,15,15,same,valid,clock,2,2,1,1.1649553705301514,0,j,change,0.6672903556664096,1,0.49974807625494577,0.03531646978308345,0.3533305088794805,1.0010262966052323,5.438605173112592
10,22,female,100,165,115,change,valid,anti,3,2,2,1.2302810737755863,1,j,change,1.1107649854538977,1,0.49945590244033156,0.0353248084434199,0.35330228572320266,1.0010853086605493,5.979421790907054
10,22,female,101,105,105,same,valid,anti,1,0,1,0.6261682542726703,0,j,change,2.084437591063761,0.9999956676016635,0.505693540777429,0.03535271088230729,0.35330645505291614,1.0010679899050956,6.3627483838236
10,22,female,102,75,25,change,catch,anti,2,2,1,0.9196801033481279,0,j,change,0.7278235744820449,0,0.49970606223814684,0.035370029637761036,0.3532718175424634,1.001074724976661,6.792261531163604
10,22,female,103,15,65,change,catch,clock,2,2,1,0.6926248080903861,0,j,change,0.3880238241931693,0,0.5002644317346494,0.035340202892257366,0.35328240122589705,1.0010070535440718,6.239494010116232
10,22,female,104,135,135,same,valid,anti,3,1,2,0.8201565936187762,1,f,same,1.259932386296441,1,0.49997963442683613,0.03530909327673726,0.3532856084029845,1.0010830636365426,5.709485578448039
10,22,female,105,105,55,change,valid,anti,2,1,1,0.7432783184899563,0,j,change,0.47579719994200786,1,0.4995091415767092,0.0353248084434199,0.3533359610801199,1.001041049619289,4.83720562526014
10,22,female,106,135,85,change,valid,anti,5,0,2,2.4406952902927515,1,j,change,1.4749562781607892,1,0.49964416372358755,0.035319035524935316,0.35327085538938263,1.0010801771768456,7.49909830221668
10,22,female,107,165,115,change,valid,anti,1,1,2,1.5469185925499005,1,j,change,0.7261728405355825,1,0.5001383896828884,0.03532801562005261,0.35330356859367384,1.0010577269390524,5.886709042025814
10,22,female,108,135,135,same,valid,clock,5,0,2,1.5853056134897088,1,f,same,1.866891254573602,0.9993116785399652,0.4994940678452622,0.0353815754747302,0.353316076583269,1.0010006391903516,7.074709261396492
10,22,female,109,165,215,change,valid,clock,1,1,2,1.157355323448428,1,j,change,2.1421837731600135,1,0.4999652021306247,0.03533699571562465,0.35330004069919596,1.0010349559829592,6.946223661460408
10,22,female,110,105,155,change,catch,clock,1,0,1,0.7231811859305708,0,j,change,1.0791912911031432,0,0.49992992318493634,0.0353225634194132,0.3533366025153555,1.001061254833985,6.933866729612873
10,22,female,111,45,355,change,catch,anti,2,1,1,0.8429647528050737,0,f,same,0.7535069677524007,0,0.5007406975032609,0.03528792590896046,0.3533295467263997,1.0010519540205678,6.7460320005693575
10,22,female,112,75,25,change,valid,anti,1,2,2,1.4263906399182815,1,j,change,0.9887489027446463,1,0.5008333849154951,0.035348220834748645,0.353278552613574,1.0010663863167792,6.052015919143287
10,22,female,113,45,45,same,valid,anti,5,0,2,2.0460662852906353,1,j,change,1.2317740146190772,0.9883364996786126,0.499339161201533,0.03532897777358812,0.3533058136172258,1.0010458603846928,6.874211956547697
10,22,female,114,135,185,change,valid,clock,4,0,1,1.347748096781288,0,j,change,2.01216418051672,0.9784707028284547,0.4999860487805563,0.03533956145702177,0.35328175979066145,1.0010782528711388,7.0401759842102365
10,22,female,115,105,105,same,valid,clock,1,0,1,0.8660634822176689,0,j,change,0.6507384364435893,0.987267597454718,0.4998763633307135,0.035329619208823715,0.3532801562023451,1.001049708996561,5.1444345699032965
10,22,female,116,105,155,change,catch,clock,1,0,1,0.7887259393583008,0,j,change,0.42935118490777313,0,0.49954955200564655,0.03530492394656903,0.35331671801895936,1.0010519540205678,6.379631925136891
10,22,female,117,15,325,change,valid,anti,2,2,1,0.6571444515680014,0,j,change,0.9784965203734828,1,0.5008923969703574,0.03532577059650066,0.3533032478758287,1.001080818612536,5.309936122657746
10,22,female,118,45,355,change,valid,anti,3,1,2,2.090606595816098,1,f,same,1.4875502203813085,1,0.499948524811316,0.035334109255927615,0.35325802668148754,1.0010506711500966,7.193634267017387
10,22,female,119,135,135,same,valid,anti,1,2,2,1.3897534546904353,1,j,change,1.1877744341177277,1,0.4998240863474166,0.035342447916264064,0.3532868912734557,1.001071838516964,6.238841028900879
10,22,female,120,135,185,change,valid,clock,5,1,1,0.8136216499833608,0,j,change,1.761856532073125,1,0.5005126672258484,0.03533892002178618,0.35324776371589905,1.0010872329667109,6.216795536379777
10,22,female,121,135,135,same,catch,clock,5,0,2,2.0487988000027144,1,j,change,2.579736030098502,0,0.49966533109136435,0.0353142247595315,0.35329426778025663,1.001042011771915,9.807807038278042
10,22,female,122,45,45,same,valid,anti,4,0,1,0.7504896557315988,0,j,change,0.937343950799459,0.9960705158083052,0.5000723218390704,0.03534854155213907,0.353315114430643,1.0010144300508728,5.3800151827754235
10,22,female,123,165,165,same,catch,anti,1,2,1,0.719487801021387,0,j,change,3.305075646077512,0,0.49969034707100946,0.03534212719841889,0.3532888155796172,1.001053236891039,9.206690684145542
10,22,female,124,165,215,change,valid,clock,5,2,1,0.7615124019926043,0,j,change,1.1543787425748633,1,0.5006393507132998,0.03530171676948157,0.35332762242069293,1.001032390241562,5.6160268402222755
10,22,female,125,15,15,same,valid,clock,4,0,1,0.8088567472746035,0,j,change,2.7841842561610974,1,0.49952261171938517,0.035326091313891084,0.3533240945257603,1.0010333523946429,7.275385847433881
10,22,female,126,165,165,same,catch,anti,3,2,1,0.7450977499411238,0,j,change,1.0284697885540481,0,0.4995777751623791,0.03531550763045743,0.35331415227756224,1.0010644620106177,6.933365127146772
10,22,female,127,45,95,change,catch,clock,5,0,1,1.394104631580376,0,j,change,0.8815028317771976,0,0.5007525640576205,0.03528311514355664,0.35333628179796506,1.0010519540205678,7.464890232767175
10,22,female,128,15,65,change,valid,clock,2,2,2,1.3416111637980066,1,f,same,2.208587729277042,1,0.49974486907831306,0.035313583324295905,0.3532824012263518,1.0010955716261378,7.216388545632071
10,22,female,129,165,165,same,valid,clock,4,2,1,2.145240212738372,0,j,change,3.5459795311553535,1,0.49979778749684556,0.03531839408969972,0.3532920227567047,1.0010875536841013,9.372279151393741
10,22,female,130,165,115,change,valid,anti,4,2,2,0.9913412638265982,1,f,same,1.0333305858516724,1,0.4992253064219767,0.03534661724597754,0.35331896304296606,1.0010618962687658,5.650231061059003
10,22,female,131,45,355,change,valid,anti,5,2,2,1.0226631947907663,1,j,change,1.4303508619445893,1,0.4996678968332162,0.03534950370521983,0.35332473596145064,1.001054519761965,6.085799358372242
10,22,female,132,105,55,change,valid,anti,1,0,2,0.9326364565572476,1,j,change,2.91927728193059,1,0.5002621867106427,0.03530171676993632,0.35333082959732565,1.0010282209118486,7.59377031546137
10,22,female,133,135,135,same,valid,clock,1,1,2,0.8425782879899089,1,f,same,1.8026072423826918,1,0.5004334499567449,0.03529850959284886,0.3533327539034872,1.001026296605687,6.274826195066453
10,22,female,134,45,95,change,valid,clock,3,1,3,1.1771981268802847,1,j,change,0.9818964485966717,1,0.5003494219222375,0.03532544987865549,0.35332441524360547,1.0010314280884813,5.768664727179839
10,22,female,135,105,105,same,catch,clock,2,0,3,0.9629654455557102,1,f,same,1.1704123820122732,0,0.49993890328005364,0.035335071409463126,0.3532641203178173,1.0010352767008044,7.2996102959355085
10,22,female,136,165,115,change,valid,anti,1,2,3,3.194850107777256,1,f,same,2.5804820194439344,1,0.4997974667790004,0.03534437222242559,0.3533128694066363,1.0010593305273687,9.406890042261239
10,22,female,137,15,15,same,valid,clock,2,0,2,2.132104899058959,1,f,same,2.212945320520703,1,0.5004728982330562,0.03530492394656903,0.3533282638554738,1.001025975887842,8.00676618108946
10,22,female,138,105,55,change,catch,anti,4,0,2,0.9266884262929125,1,j,change,1.824286796020715,0,0.4992378144115719,0.035348220834748645,0.35330549289983537,1.0010593305278235,7.911274413431329
10,22,female,139,45,355,change,valid,anti,1,2,1,0.868757510807427,0,j,change,2.4764395974734725,1,0.5000598138490204,0.03535174872922653,0.3533138315597171,1.0010465018199284,7.01703267503899
10,22,female,140,165,165,same,valid,anti,1,1,3,1.0400486592880043,1,f,same,1.1090805761500633,1,0.49936802579350115,0.035348541552593815,0.3532753454369413,1.0010872329667109,5.80329133321402
10,22,female,141,45,45,same,valid,anti,1,0,3,1.7137864026603893,1,f,same,1.6354620114707359,0.9958212834328364,0.49985583739862705,0.03524751548047789,0.35334750691708905,1.0010843465074686,6.992775834050462
10,22,female,142,45,45,same,valid,anti,5,2,3,1.0832794794878282,1,f,same,1.0078219837223514,1,0.5000787361927905,0.03532192198417761,0.3532859291208297,1.0010737628235802,5.733517596336242
10,22,female,143,15,15,same,catch,anti,5,0,1,0.8272992972756583,0,j,change,0.8653409052644747,0,0.4993914381848299,0.03532865705574295,0.35329715423995367,1.0010728006704994,6.862550019932314
10,22,female,144,75,75,same,valid,clock,4,2,1,0.8046742678898227,0,j,change,0.8637142251445766,1,0.5007532054933108,0.03532063911370642,0.3533016442875123,1.0010545197624197,5.344930591881166
10,22,female,145,135,85,change,catch,anti,4,1,1,0.7734597773510359,0,j,change,0.5851872686621391,0,0.5002352464248361,0.03533410925638236,0.35329811639303443,1.0010506711500966,6.557744097431623
10,22,female,146,75,25,change,valid,anti,5,0,1,0.921982214921627,0,j,change,1.013376172664266,0.9884626330793531,0.4995886795632032,0.035353673035388056,0.3532801562023451,1.0010667070346244,5.65038372267918
10,22,female,147,105,105,same,catch,clock,5,2,1,0.7795133237355003,0,f,same,0.6919047968781342,0,0.49984461227950305,0.03534180648102847,0.35332281165483437,1.0010452189490024,6.6517672987906735
10,22,female,148,105,155,change,catch,clock,3,2,1,0.79069707027611,0,j,change,0.568239904528582,0,0.4994934264100266,0.035348541552593815,0.35329587136902774,1.00105484047981,6.556473093229215
10,22,female,149,75,75,same,valid,anti,2,2,1,1.473585530757191,0,j,change,4.189833441682822,1,0.5008539108475816,0.03532577059650066,0.3532884948622268,1.0010724799526542,9.373187103171858
10,22,female,150,75,125,change,valid,clock,2,0,2,2.083865751423673,1,j,change,1.4012402794473928,0.9951937977919298,0.4992121569966912,0.03535495590631399,0.3532910606036239,1.0010638205753821,7.157127613889315
10,22,female,151,135,135,same,valid,anti,5,0,2,0.7492404603322029,1,f,same,0.9352358734281552,0.988393377319249,0.5071226588006539,0.03532737418481702,0.3532779111783384,1.0010490675613255,5.315801087040654
10,22,female,152,135,85,change,catch,anti,5,0,2,1.0243989189248168,1,j,change,0.8076963906751189,0,0.49964159798219043,0.03530203748732674,0.35331190725355555,1.0010628584218466,6.968980185099099
10,22,female,153,135,185,change,valid,clock,4,1,2,0.7641798110139462,1,j,change,0.6313632394026172,1,0.5000277420804196,0.03531807337185455,0.35329394706332096,1.0010618962687658,5.050371278832699
10,22,female,154,15,15,same,valid,anti,4,1,3,0.9436078879871275,1,f,same,0.9741944132902063,1,0.4990216506894285,0.03533635428038906,0.3533359610801199,1.0010307866532457,5.555182525247346
10,22,female,155,45,45,same,valid,anti,4,2,3,0.8939399430469166,1,f,same,1.2838986570586712,1,0.5001836108772295,0.035334429973772785,0.353289777732698,1.001068310622486,5.8276251464476445
10,22,female,156,75,75,same,catch,anti,1,2,1,0.724396064537359,0,j,change,0.9533464806204393,0,0.49934621699048876,0.03536233241266018,0.35327759046049323,1.0010423324897602,6.839288365933953
10,22,female,157,105,55,change,valid,anti,5,2,2,2.5084629380239676,1,j,change,0.9067994395136338,1,0.500528703110831,0.035356238776785176,0.353292664192395,1.0010651034458533,7.0171186273792046
10,22,female,158,105,155,change,valid,clock,1,1,2,1.0357427035924047,1,j,change,3.610788878921994,1,0.4997702057753486,0.035340202892257366,0.35328689127391044,1.001043294642841,8.265344818020367
10,22,female,159,45,95,change,valid,clock,5,0,3,9.872855962158155,1,f,same,1.228021296937186,0.9820180540396579,0.4989392262432375,0.03526611710640282,0.35336161849545533,1.0010744042588158,14.729362698672958
10,22,female,160,15,65,change,catch,clock,3,1,1,0.9363186163473074,0,j,change,1.743167991604878,0,0.4999809172973073,0.035310696865053615,0.35329811639303443,1.0010740835409706,7.841299265845009
10,22,female,161,45,355,change,valid,anti,1,1,1,0.7678722337700492,0,f,same,0.34540172616652853,1,0.4995796994680859,0.035353673035388056,0.35330677577030656,1.0010141093334823,4.743459203266866
10,22,female,162,105,105,same,valid,anti,5,2,1,0.832274270070684,0,j,change,0.9551242187717435,1,0.49997803083851977,0.03534950370567458,0.3532737418486249,1.0010551611976553,5.426815590856677
10,22,female,163,105,155,change,valid,clock,3,2,2,1.28481462677928,1,f,same,2.1467934485071964,1,0.49954153406315527,0.035363294565740944,0.35328721199130086,1.0009794718225749,7.051251007454539
10,22,female,164,15,15,same,valid,clock,5,2,3,2.3493077469038326,1,j,change,1.728874566349532,1,0.5001406347068951,0.03532737418481702,0.35334237543384006,1.0010230894285996,7.699553913766067
10,22,female,165,135,135,same,catch,anti,5,2,1,0.7179566947734202,0,j,change,0.7413296378099403,0,0.500512346508458,0.03532352557249396,0.35328368409727773,1.0010625377044562,6.651778203191952
10,22,female,166,45,45,same,valid,anti,1,1,3,1.1156389321772622,1,f,same,0.7087716608716619,1,0.500574565739953,0.03528247370832105,0.35331479371279784,1.0010878744019465,5.474877381609531
10,22,female,167,105,105,same,valid,clock,4,1,2,1.6767932207976628,1,j,change,7.167241446218668,1,0.49914576843457326,0.03531005542981802,0.35330292715843825,1.0009990356020353,12.468414278736418
10,22,female,168,135,85,change,catch,anti,5,2,1,0.8695458348875036,0,f,same,0.35942125851579476,0,0.4997939388845225,0.0353119797355248,0.3533051721819902,1.0010702349291023,6.345149962780852
10,22,female,169,165,165,same,valid,anti,4,0,3,1.5266556489450522,1,f,same,0.9527464178236187,0.975918678173165,0.49973236108826313,0.03532063911325167,0.3531922795555147,1.001146886456354,6.144389990144646
10,22,female,170,75,25,change,valid,anti,3,0,3,0.9170893458544924,1,f,same,0.9105861532702875,0.9702786708308142,0.5004456372294044,0.03532737418481702,0.3533122279714007,1.0010339938298785,5.462550917941826
10,22,female,171,45,45,same,valid,clock,3,0,3,0.8274926900421633,1,f,same,0.6077677182888692,0.9648851504744953,0.49952485674339187,0.035313262606450735,0.35327085538938263,1.0010519540205678,5.061149638214374
10,22,female,172,45,45,same,catch,anti,2,2,1,0.8198249715283055,0,f,same,0.4553880090711573,0,0.49996039136522086,0.035349824423065,0.35326989323630187,1.0010699142112571,6.368593784427048
10,22,female,173,135,135,same,catch,clock,1,1,1,0.6722977209478813,0,j,change,0.37626759657723596,0,0.500672063917591,0.035281832273085456,0.35336354280161686,1.0010397667488178,6.26398818219468
10,22,female,174,165,165,same,valid,clock,3,1,1,0.7522689974716741,0,j,change,0.7938461972667028,1,0.4994443566033624,0.03537419896747451,0.3533022857227479,1.0010602926804495,5.214478030356986
10,22,female,175,135,85,change,valid,anti,1,0,3,1.450004121222264,1,j,change,0.8326556034030546,0.9596552552829991,0.49924294589436613,0.035328977773133374,0.3533115865357104,1.0010481054082447,5.885095832049046
10,22,female,176,135,185,change,catch,clock,1,0,1,1.090959705991736,0,j,change,0.5270863728019322,0,0.499857120269553,0.03534693796382271,0.35330485146414503,1.0010240515816804,6.79332471030375
10,22,female,177,45,45,same,valid,clock,3,1,3,1.5544698905423502,1,f,same,0.8593062812237804,1,0.49993762040958245,0.03530845184104692,0.35332024591343725,1.0010400874662082,6.0391137672236255
10,22,female,178,135,135,same,valid,anti,5,2,3,0.9177362334339705,1,f,same,0.7183142949966168,1,0.49955275918227926,0.035316149065693025,0.35326861036537593,1.0010615755513754,5.285112573512379
10,22,female,179,135,185,change,valid,clock,1,0,3,0.904415544929634,1,j,change,1.0008232823079197,0.9547953982842379,0.4998452537151934,0.0353203183954065,0.353326339549767,1.0010413703366794,5.497680088595189
10,22,female,180,105,155,change,valid,clock,3,0,3,1.090129367893951,1,f,same,0.98654428934924,0.9500412820174384,0.4996986857313459,0.03534661724643229,0.3533128694066363,1.001058368374288,5.744748167659509
10,22,female,181,15,65,change,valid,clock,1,2,3,1.4236485036753947,1,j,change,1.0206064322496786,1,0.4998003532382427,0.03532416700772956,0.3533013235701219,1.001053557609339,6.074690018335332
10,22,female,182,135,135,same,valid,clock,5,1,3,0.9495822171020336,1,f,same,1.6457410134103156,1,0.49969034707100946,0.03534693796382271,0.3532974749573441,1.001049708996561,6.191733052555719
10,22,female,183,75,75,same,valid,clock,5,0,1,0.7805745785690306,0,j,change,1.1989585013761825,0.9455808326062176,0.5003465354629952,0.035311017582898785,0.3533093415121584,1.0010500297144063,5.603713525979856
10,22,female,184,15,15,same,catch,anti,3,2,2,1.1507870251734857,1,f,same,3.005058680111688,0,0.5001589156154296,0.03535142801138136,0.35326155457642017,1.0010728006704994,9.289891587799502
10,22,female,185,75,75,same,catch,anti,2,2,2,0.9282041380924966,1,j,change,0.8975239632241028,0,0.5000950927951635,0.03532577059650066,0.3532824012263518,1.0010221272755189,6.981768161521359
10,22,female,186,165,215,change,valid,clock,2,0,3,2.024917198710682,1,j,change,0.8264182857828928,0.949792572909856,0.4995030479408342,0.035342768634109234,0.3533305088799352,1.0010169957922699,6.521543729696532
10,22,female,187,135,135,same,valid,clock,2,2,3,2.412618701625888,1,f,same,1.1500355836274139,1,0.49954442052239756,0.035332505668066005,0.35327919404926433,1.0010641412927725,7.181162518236761
10,22,female,188,45,95,change,valid,clock,3,0,3,1.2982729031718918,1,j,change,0.9171884476209016,0.9455472869778225,0.4994036254565799,0.0353058860996498,0.3533125486892459,1.0010394460309726,5.838094013259251
10,22,female,189,45,95,change,valid,clock,4,0,3,0.8239224607254982,1,j,change,0.6006112237719208,0.9415269437600076,0.5004154897665103,0.035310696865053615,0.3533128694066363,1.0010253344526063,5.061759643258938
10,22,female,190,105,105,same,catch,clock,1,2,3,1.0354819601111558,1,j,change,0.8345263496844382,0,0.5004167726374362,0.035294660980525805,0.35332249093744394,1.0010336731120333,7.004771637780323
10,22,female,191,75,25,change,valid,anti,5,2,1,0.606865218711846,0,j,change,1.7805085107247578,1,0.500669818894039,0.035326091313891084,0.35330902079431326,1.0010295037823198,6.051759986427442
10,22,female,192,75,25,change,valid,anti,1,0,2,1.7184615044161546,1,f,same,6.229260550088384,0.9375252742715612,0.5000264592090389,0.03531711121877379,0.35330549289983537,1.001024693016916,11.57493392413835
10,22,female,193,165,115,change,catch,anti,3,0,1,0.6662505889175918,0,j,change,0.5143596534580865,0,0.4991332604449781,0.03526419279978654,0.3532904191683883,1.001106155310481,6.344220202199722
10,22,female,194,15,325,change,catch,anti,1,1,1,0.6238568418866635,0,f,same,0.42787107277172254,0,0.5006733467885169,0.035249439786184666,0.3533827858627774,1.0010609341161398,6.181038400491161
10,22,female,195,105,55,change,valid,anti,4,0,1,0.7174874847937645,0,f,same,0.6414215875720402,0.9337918548056725,0.5004619938313226,0.03531743193661896,0.35331735945419496,1.0010445775137669,4.967964792894691
10,22,female,196,15,15,same,valid,anti,2,2,1,1.1296963092127044,0,j,change,0.9912886661254561,1,0.49940907765767406,0.0353309020792949,0.35330004069919596,1.0010118643094756,5.756099008116507
10,22,female,197,105,105,same,valid,clock,2,0,2,0.8949075483151319,1,f,same,2.1157989703037856,0.937143400365043,0.4993795716304703,0.03532993992621414,0.35327855261402874,1.0010202029693573,6.627175628534587
10,22,female,198,15,15,same,valid,anti,5,2,3,1.1913453048691736,1,f,same,0.9644564620925848,1,0.5004058682357027,0.03531005542981802,0.35332056663082767,1.001074724976661,5.756840828131772
10,22,female,199,15,15,same,valid,clock,3,2,3,1.718846365643003,1,f,same,0.7751547703387587,1,0.5003080493406742,0.03532544987865549,0.35326636534136924,1.0010756871297417,6.109790003678427
10,22,female,200,105,55,change,catch,anti,2,0,1,0.8779977081517245,0,j,change,0.6542060360993673,0,0.5002621867110975,0.03528247370832105,0.35336963643749186,1.0010416910545246,6.698617418113827
10,22,female,201,135,135,same,valid,anti,3,2,3,1.580618965897429,1,f,same,1.7377379204085628,1,0.512420594309333,0.03527445576628452,0.3533289052911641,1.001065744881089,6.946830138610949
10,22,female,202,105,155,change,valid,clock,5,2,1,0.5151338659597968,0,j,change,0.38355654750012036,1,0.49939656966762414,0.03530716897012098,0.3533103036652392,1.0010532368914937,4.531175202621398
10,22,female,203,75,75,same,valid,clock,4,0,2,0.8026861389339501,1,f,same,1.2867075025810664,0.9335643381882779,0.4994818805730574,0.03532544987865549,0.3532971542394989,1.0010513125848775,5.732183090031413
10,22,female,204,105,105,same,valid,anti,5,0,2,0.905605086838932,1,j,change,0.6803631293964827,0.9299627348720378,0.5004722567973658,0.03526387208239612,0.35335231768249287,1.0010538783267293,5.203833410252173
10,22,female,205,75,75,same,valid,anti,4,2,3,1.1240959369238226,1,j,change,0.9088420904763552,1,0.499763470704238,0.03537644399148121,0.35328143907327103,1.0010670277520148,5.685806029300238
10,22,female,206,15,325,change,valid,anti,3,2,3,0.7133794119126833,1,j,change,0.6742633996650511,1,0.499989255957189,0.03535944595387264,0.35330709648815173,1.0010541990441197,5.026778323460803
10,22,female,207,75,25,change,valid,anti,2,0,1,0.6252449080452607,0,j,change,0.6872864621536792,0.9265366900032552,0.49942928287191535,0.03525360911635289,0.3533734850498149,1.0010458603846928,4.919466505366927
10,22,female,208,165,165,same,catch,clock,2,1,1,0.6518016155832811,0,j,change,0.30348039629143386,0,0.5002743739833022,0.03528503945017292,0.35332088734867284,1.0010817807660715,6.1455965300910975
10,22,female,209,165,115,change,valid,anti,4,1,3,0.7948943026749475,1,j,change,1.1499300675077393,1,0.5002746947006926,0.0353626531309601,0.35330741720554215,1.0010651034458533,5.592104507783461
10,22,female,210,75,125,change,valid,clock,3,0,2,1.453397955809578,1,j,change,0.5944146372989962,0.9297754832009646,0.4998487816096713,0.03535816308340145,0.353289777732698,1.0010699142112571,5.779657646695341
10,22,female,211,15,325,change,valid,anti,1,1,2,0.8508495971946104,1,j,change,0.8502306120544745,1,0.5005078564608993,0.03530107533424598,0.35331543514803343,1.001043615360686,5.356840443270357
10,22,female,212,105,155,change,valid,clock,4,1,3,1.2451238884323175,1,f,same,1.3701194384748305,1,0.4995517970291985,0.035353352317542885,0.3533128694066363,1.0010404081835986,6.2034783757703735
10,22,female,213,15,65,change,valid,clock,4,2,2,2.1323608317752587,1,j,change,0.762196172106087,1,0.5000861126995915,0.03534629652858712,0.3532564230931712,1.0010766492828225,6.533573850219
10,22,female,214,135,135,same,valid,anti,1,0,3,0.968149205566533,1,f,same,0.8951131283542964,0.9264781541320157,0.5002358878605264,0.03531133830028921,0.3533154351484882,1.0010628584218466,5.485476459802612
10,22,female,215,105,105,same,valid,clock,3,0,4,6.313036179841674,1,j,change,0.7270275531773223,0.9233542407606685,0.5004831611990994,0.03533956145702177,0.35332794313808336,1.001025975887842,10.691950659507711
10,22,female,216,45,45,same,valid,clock,2,1,3,1.5923723070536653,1,j,change,3.6249052680127534,0.9981834605658357,0.49922466498628637,0.035334750691617955,0.3533218495017536,1.0010593305273687,8.829196663125003
10,22,female,217,165,215,change,valid,clock,2,1,4,1.222575510574643,1,f,same,1.9344812247054506,0.9952368042824562,0.5005094600492157,0.035329619208823715,0.3532609131407298,1.0010779321537484,6.7697596573707415
10,22,female,218,15,325,change,catch,anti,2,0,1,0.8893876761662796,0,j,change,0.9072898168606116,0,0.5001486526489316,0.0353331471033016,0.35329779567518926,1.001065744881089,6.957716579853695
10,22,female,219,45,45,same,valid,clock,4,0,3,1.2761469105107608,1,f,same,1.5826677104960254,0.9201860428988875,0.5004700117738139,0.03530684825273056,0.3533106243826296,1.0010766492828225,6.475859739891348
10,22,female,220,135,85,change,catch,anti,5,1,1,0.7942563951910415,0,f,same,0.3766162167053153,0,0.4990893221211081,0.03532577059650066,0.3533032478758287,1.001057406221662,6.2731953456163865
10,22,female,221,75,75,same,valid,anti,3,0,3,1.4616455319055603,1,f,same,0.9915179792733397,0.9171366722685674,0.5004684081850428,0.035329939926668885,0.35327085538938263,1.0010702349291023,6.075512979926316
10,22,female,222,45,45,same,catch,clock,2,0,1,0.6932463589723739,0,f,same,0.8148952199271662,0,0.49940073899779236,0.03533571284469872,0.3533128694066363,1.001074724976661,6.60364970315959
10,22,female,223,15,15,same,valid,anti,3,2,4,1.067209598952104,1,f,same,0.6786325367456811,1,0.5001197880565087,0.035275417918910534,0.3533459033287727,1.0010625377044562,5.356455261325664
10,22,female,224,165,115,change,valid,anti,1,0,4,0.9027731496435081,1,j,change,0.7077280455109758,0.9142606592663198,0.49997450294358714,0.035291774521283514,0.3533388475398169,1.0010554819150457,5.202834374650138
10,22,female,225,165,165,same,valid,anti,2,2,4,1.3900414591757908,1,f,same,0.8254901287905341,1,0.5001185051860375,0.03534918298782941,0.3532859291208297,1.0010849879427042,5.8626555360524435
10,22,female,226,165,165,same,valid,anti,2,1,4,0.7636865472081809,1,f,same,0.9812809913510137,0.9924241665956199,0.5001694992988632,0.035347579399058304,0.353272458977699,1.0010814600477715,5.4037963994305755
10,22,female,227,75,125,change,valid,clock,4,2,4,1.178511786535637,1,j,change,0.9187695858281586,1,0.49966372750259325,0.03532063911325167,0.3533032478762834,1.0010814600482263,5.720713904747299
10,22,female,228,45,355,change,valid,anti,4,0,4,3.81853857287706,1,j,change,1.312974602045415,0.9113658459157858,0.5002323599660485,0.03531133830028921,0.3533080586412325,1.0010368802895755,8.759798165943721
10,22,female,229,105,105,same,catch,anti,3,0,1,0.8915845923370398,0,j,change,0.6300636913256312,0,0.49979522175544844,0.035356238776785176,0.3533026064405931,1.001066065598934,6.663305759095692
10,22,female,230,15,325,change,valid,anti,1,2,3,2.0600389928567893,1,j,change,1.281695005815891,1,0.5000796983454165,0.03534052361010254,0.35326155457642017,1.0010750456940514,6.9698660073568135
10,22,female,231,45,45,same,valid,anti,1,2,3,1.2343163437417388,1,j,change,2.379045973918437,1,0.4992593024967391,0.03531518691261226,0.3533192837603565,1.0010663863163245,7.263187991559789
10,22,female,232,75,75,same,valid,anti,1,0,3,0.7561798289739272,1,j,change,0.7477244278156832,0.9084982905229759,0.4996217134857943,0.03531711121877379,0.35327630759002204,1.0010618962687658,5.120137959921067
10,22,female,233,135,135,same,valid,clock,4,2,4,1.4522748024619432,1,f,same,1.3405322694911774,1,0.5001762343704286,0.03534373078673525,0.3532503294568414,1.0010747249762062,6.427788969043377
10,22,female,234,75,75,same,valid,clock,3,2,4,0.7214954937562652,1,f,same,1.0507538950364506,1,0.5002204934112342,0.0353058860996498,0.35331126581831995,1.0010779321532937,5.368619121124539
10,22,female,235,105,105,same,valid,clock,4,0,1,0.789774365483936,0,f,same,1.7523857387104727,0.9058022536338843,0.49917463302699616,0.035281511555240286,0.35334782763447947,1.0010416910545246,6.179353670469482
10,22,female,236,105,105,same,valid,clock,3,1,3,1.2614987714910058,1,f,same,1.074679113934053,0.9895317993441166,0.5002779018777801,0.035332184950220835,0.35332505667884107,1.0010519540205678,5.956616838897389
10,22,female,237,165,165,same,catch,clock,4,1,3,1.1288874592005413,1,f,same,1.4307479104440972,0,0.5004966313417754,0.0353036410756431,0.3533285845737737,1.0010230894285996,7.75876737929093
10,22,female,238,165,215,change,catch,clock,2,1,3,1.1522270475979894,1,f,same,0.6633064005309279,0,0.500825687690849,0.03530203748732674,0.35333371605656794,1.001032390241562,7.0171199102501305
10,22,female,239,75,75,same,catch,anti,4,1,1,0.7152418195341852,0,j,change,1.4062091586065435,0,0.500163084945143,0.035340202892257366,0.3532769490257124,1.0010705556464927,7.299469821587991
10,22,female,240,165,115,change,valid,anti,3,1,2,1.050464928398469,1,j,change,0.9132064167915814,0.9868026440302702,0.49977790300044944,0.03532577059604591,0.3532904191683883,1.001044898231612,5.591341199683029
10,22,female,241,15,65,change,valid,clock,5,2,3,1.0615659297750426,1,j,change,0.7851156203305436,1,0.4995120280359515,0.0353142247595315,0.35330068213443155,1.0010779321532937,5.473097398434675
10,22,female,242,75,75,same,catch,anti,1,0,1,0.41239291637248243,0,j,change,0.36971148557404376,0,0.5003090114933002,0.035305565382259374,0.35335937347144863,1.0010282209118486,5.909679484362641
10,22,female,243,75,125,change,valid,clock,5,0,1,0.5938960367952859,0,j,change,0.47492741356882107,0.908393041036373,0.5002663560412657,0.03528279442616622,0.35336065634237457,1.0010237308638352,4.755578804024481
10,22,female,244,135,85,change,valid,anti,4,1,3,1.3344322190423554,1,j,change,0.814265971820987,0.9842239909957997,0.49969451640072293,0.03533026064405931,0.35328689127391044,1.0010711970817283,5.815180337952825
10,22,female,245,105,105,same,valid,anti,3,1,3,0.9660039249433794,1,j,change,0.8002695311456591,0.9816008179015596,0.5001104872435462,0.035332505668066005,0.3533138315597171,1.001047143255164,5.4038178875161975
10,22,female,246,105,105,same,catch,anti,3,2,1,0.6191814194130529,0,j,change,0.7411134740877969,0,0.49948444631445454,0.03529337810959987,0.35331800088943055,1.001022447993364,6.533615222801018
10,22,female,247,45,355,change,valid,anti,3,2,1,2.980516721097956,0,j,change,3.484690701463933,1,0.5000649453322694,0.03535944595387264,0.35328047692019027,1.0010724799526542,10.126139550039625
10,22,female,248,75,125,change,valid,clock,4,0,2,0.8788732674429411,1,j,change,0.5929762184628089,0.9109950991584537,0.49921247771453636,0.035353993753233226,0.3532862498382201,1.0010400874662082,5.190072697078449
10,22,female,249,45,95,change,valid,clock,5,2,2,0.735766148055518,1,j,change,0.6299841533391373,1,0.49986417605850875,0.03529594385145174,0.35332730170284776,1.0010564440681264,4.991083086086746
10,22,female,250,105,105,same,valid,anti,5,1,3,1.3471884444134048,1,f,same,1.2518804479914252,0.9790161522908127,0.49986642108251544,0.03533346782114677,0.35331800088943055,1.00103591813604,6.27471586818092
10,22,female,251,105,155,change,valid,clock,1,2,1,0.9699493939556305,0,j,change,1.8124930444350866,1,0.5087486974853164,0.03528536016756334,0.35313807826605625,1.0012312352087065,6.46007818455837
10,22,female,252,45,355,change,valid,anti,5,1,3,1.2738816814712663,1,j,change,0.6791883405007866,0.9765834233902191,0.50002806279781,0.0353119797355248,0.3532933056276306,1.001059971963059,5.6036192349793055
10,22,female,253,45,355,change,valid,anti,4,2,2,1.6055768957544387,1,j,change,0.7083752538078443,1,0.4994273585657538,0.035342447916264064,0.3532788733318739,1.0010593305273687,5.95628040604106
10,22,female,254,75,75,same,catch,clock,1,1,2,0.908663130005607,1,f,same,0.8832651754792096,0,0.4999530148584199,0.03533795786825067,0.35326828964753076,1.0011141732520628,6.945725907607084
10,22,female,255,15,15,same,catch,anti,2,1,1,0.6722492925769075,0,j,change,0.7399704362433113,0,0.5006829683193246,0.035307810405811324,0.3532913813214691,1.0010833843543878,6.617052495392272
10,22,female,256,45,95,change,valid,clock,1,2,2,1.1643184251993262,1,j,change,3.310112517386642,1,0.4996467294654394,0.03535559734154958,0.3533157558658786,1.0010240515816804,8.135503223693831
10,22,female,257,105,55,change,valid,anti,3,0,1,0.8678412203689732,0,j,change,0.3239816331392831,0.9082934925846764,0.49921857135041137,0.035328977773133374,0.3532801562023451,1.001075687129287,4.825139263638903
10,22,female,258,135,135,same,catch,clock,3,0,1,0.7012845064173234,0,j,change,0.36867268097830674,0,0.5001791208292161,0.035329619208823715,0.3532910606036239,1.0010833843543878,6.251652738431858
10,22,female,259,45,45,same,valid,anti,5,1,3,1.2903906245237522,1,f,same,0.8722289590755281,0.9742700620561271,0.4999700128960285,0.03535559734154958,0.3533019650053575,1.0010683106229408,5.814889126291291
10,22,female,260,135,135,same,valid,anti,3,0,4,1.2642476428050031,1,f,same,0.9646966796417473,0.9108238371769226,0.5000813019341876,0.03533058136190448,0.35331960447820165,1.0010205236872025,5.886250415730046
10,22,female,261,105,155,change,catch,clock,2,0,4,1.119645337550537,1,f,same,1.3078062364838843,0,0.5000008017941582,0.03530171676948157,0.3533215287843632,1.0010445775137669,7.546725199782941
10,22,female,262,105,105,same,valid,anti,1,2,1,1.893479713162833,0,j,change,0.8973337776342305,1,0.5002785433130157,0.035300433899010386,0.3533282638559285,1.0010869122488657,6.416041080087325
10,22,female,263,165,165,same,valid,anti,5,0,1,1.81015084315095,0,j,change,7.431306600658445,0.9081991998465679,0.4998074090276532,0.03527445576628452,0.35334975194109575,1.001048746843935,12.87030914298748
10,22,female,264,105,155,change,valid,clock,5,1,2,0.9813727166101671,1,f,same,4.213973862149487,0.9719078039724709,0.4995546834884408,0.03531294188906031,0.35332249093744394,1.001071197082183,8.888859454132216
10,22,female,265,135,135,same,valid,anti,4,2,3,1.0415656539580596,1,j,change,0.6659048552492095,1,0.5001262024106836,0.03535431447062365,0.3532933056276306,1.0010291830649294,5.320814866675846
10,22,female,266,75,125,change,valid,clock,1,1,2,1.614343072353222,1,j,change,0.7439697858280852,0.9695608593008886,0.5001566705909681,0.03533988217486694,0.35330709648815173,1.0010490675613255,5.95670535697991
10,22,female,267,75,125,change,valid,clock,2,1,2,0.8250433690495811,1,j,change,0.6365235870221113,0.9673258232575235,0.5002554516395321,0.03530139605209115,0.3532997199813508,1.0010766492828225,5.085654714694101
10,22,female,268,45,355,change,valid,anti,3,0,2,1.1988186684634456,1,j,change,0.7718494538339655,0.9106609698220658,0.4998930406504769,0.03531839408969972,0.3532974749573441,1.0010407289014438,5.56771905900132
10,22,female,269,15,15,same,valid,anti,3,1,3,0.9923512038299123,1,f,same,0.5764996678972238,0.9652073553111273,0.5004103582832613,0.035348220834748645,0.3533022857227479,1.0010869122488657,5.156792463904367
10,22,female,270,75,75,same,valid,clock,1,2,3,0.6827399681915267,1,j,change,0.6892216726901097,1,0.4996990064482816,0.03533956145702177,0.3533173594546497,1.0010487468434803,4.990811758921609
10,22,female,271,165,165,same,catch,anti,1,2,4,1.0430399931751708,1,f,same,0.6886658689350043,0,0.499818313428932,0.0353142247595315,0.35330966222954885,1.0009679259860604,6.8865236672018
10,22,female,272,45,45,same,valid,clock,1,0,3,2.7272052307771446,1,f,same,0.7243069050196027,0.908109762320694,0.500238774319314,0.035334750691617955,0.35330549289983537,1.0010413703366794,7.087505576478634
10,22,female,273,105,105,same,valid,anti,2,0,3,0.8762969422450624,1,j,change,0.8413114531172141,0.9057113810428954,0.4996258828155078,0.035310376147208444,0.35328657055606527,1.0010525954562581,5.34417466028799
10,22,female,274,165,215,change,catch,clock,3,1,1,0.6330421965058122,0,j,change,0.733754285991381,0,0.4993474998614147,0.035319035524935316,0.35331351084232665,1.0010602926804495,6.521237765020942
10,22,female,275,15,65,change,catch,clock,4,2,1,0.683010653920519,0,j,change,0.6027828032461002,0,0.5004712946442851,0.03531390404168633,0.35328496696729417,1.0010897987076532,6.46397907381197
10,22,female,276,15,15,same,valid,clock,5,1,1,0.5662783951415804,0,j,change,0.5049141967929245,0.9631583096152689,0.5000389671990888,0.035370029637761036,0.3532666860592144,1.0010631791401465,4.719995817841209
10,22,female,277,45,45,same,valid,anti,2,0,2,2.388472508239829,1,f,same,1.3003591717401832,0.903397216496423,0.4997679607522514,0.035316149065693025,0.3532907398862335,1.001080818612536,7.322284715845399
10,22,female,278,75,75,same,catch,clock,5,0,2,1.7657853237665222,1,j,change,0.8966134457041335,0,0.4998814948139625,0.03532031839586125,0.3533176801720401,1.0010586890921331,7.817137036575332
10,22,female,279,105,105,same,valid,clock,5,2,3,0.9545911859722764,1,f,same,0.7995164860117256,1,0.5006204283699844,0.03534629652858712,0.353297795675644,1.0010275794761583,5.380036670860591
10,22,female,280,135,185,change,catch,clock,2,2,3,0.7209496322493578,1,f,same,0.9448827408023135,0,0.500381172973448,0.03531165901813438,0.3533032478758287,1.0010804978946908,6.757735951202449
10,22,female,281,135,85,change,valid,anti,1,1,3,1.8121870797594966,1,j,change,0.7653324703887847,0.966634443079831,0.49999631174659953,0.03528054940215952,0.3533176801720401,1.0010740835414254,6.215453012132457
10,22,female,282,165,165,same,valid,clock,5,1,3,1.4803616540953044,1,f,same,0.7813596954720197,0.9646364167856021,0.5003888701980941,0.035300433899010386,0.35331703873680453,1.0010400874657535,5.933651207325511
10,22,female,283,135,85,change,valid,anti,4,2,1,0.6106047869679969,0,j,change,0.9152439362710538,1,0.4994122848343068,0.03531550763045743,0.3533128694066363,1.001048746843935,5.132066092218793
10,22,female,284,15,325,change,valid,anti,3,1,3,0.9919589660962629,1,j,change,0.7795049850751639,0.962593674830243,0.4992775834052736,0.03537580255579087,0.35330870007692283,1.001032069523717,5.367297764244995
10,22,female,285,15,65,change,valid,clock,2,1,3,1.4728286370109345,1,j,change,0.6966510979609666,0.9605620396870675,0.5000745668626223,0.03535463518846882,0.3532974749573441,1.00105484047981,5.768838876885184
10,22,female,286,15,15,same,valid,clock,4,1,3,0.8633123658796649,1,f,same,1.0888628537395562,0.9585577581247191,0.49923524867017477,0.03532224270202278,0.35329811639303443,1.0010391253131274,5.555274571224345
10,22,female,287,15,65,change,valid,clock,1,1,3,0.630730142684115,1,j,change,0.7429306605149577,0.9566668078071516,0.5000691146619829,0.035327053467426595,0.35328047692019027,1.0010641412927725,4.991435554827149
10,22,female,288,45,355,change,valid,anti,4,1,3,0.7013518571316126,1,j,change,0.6545132836454286,0.9548552779224366,0.49966019960811536,0.03537676470887163,0.3533199251955921,1.001058368374288,4.967687051376288
10,22,female,289,165,115,change,valid,anti,3,0,4,1.1272540440095327,1,j,change,0.8650965183846893,0.9010295704564868,0.49965121951299807,0.0353058860996498,0.3532942677807114,1.001074724976661,5.6147872663532326
10,22,female,290,165,165,same,valid,clock,2,2,4,0.8937959408044662,1,f,same,0.5546581518260609,1,0.5000614174377915,0.03533442997422753,0.3532445565388116,1.0011074381809522,5.014638517488947
10,22,female,291,15,15,same,valid,anti,1,0,4,0.958204070740976,1,j,change,2.9382778807103023,0.8986662468718893,0.5000742461447771,0.0353331471033016,0.35326732749445,1.0010448982311573,7.475735942863594
10,22,female,292,45,45,same,valid,clock,4,1,4,1.3137302129212003,1,f,same,3.622941192883445,0.9530015208797951,0.5002150412105948,0.035284398014482576,0.3533568077300515,1.0010506711500966,8.571636625575138
10,22,female,293,135,185,change,valid,clock,1,1,4,1.6042196184935165,1,j,change,0.6482743624374052,0.9511595402488104,0.4994004182799472,0.03531230045336997,0.35330645505291614,1.001037521724811,5.850167751387289
10,22,female,294,75,75,same,valid,clock,4,1,1,0.6696627044134402,0,j,change,0.5527588616705543,0.9493101751613,0.4996906677888546,0.035327053467426595,0.3532801562023451,1.0010689520581764,4.8613498943395825
10,22,female,295,45,95,change,valid,clock,4,1,4,0.7973356057250385,1,j,change,0.766093212747819,0.9524330723905274,0.5000110647602014,0.035324167008184304,0.3533058136172258,1.001058368374288,5.179808768870771
10,22,female,296,75,25,change,valid,anti,3,1,4,0.8572735725092571,1,j,change,0.7876024652928209,0.9506574272194079,0.4997961839085292,0.03537291609654858,0.35330837935907766,1.0010538783267293,5.2618294314288505
10,22,female,297,15,15,same,valid,anti,4,0,4,1.1326286310450087,1,f,same,0.6327625306803384,0.8964388695336971,0.49967014185676817,0.035305565382259374,0.3532856084029845,1.0010202029693573,5.3674068082591475
10,22,female,298,15,325,change,valid,anti,4,1,4,0.7139515722701617,1,j,change,0.5919989916633313,0.9488873207442075,0.500144162601373,0.03531486619522184,0.3533269809850026,1.0010580476564428,4.896600296278848
10,22,female,299,75,125,change,valid,clock,5,2,1,0.6842839031469339,0,j,change,1.0287946755729536,1,0.5005511533486242,0.03528760519157004,0.3533106243826296,1.0010833843543878,5.344847846717585
10,22,female,300,105,55,change,valid,anti,4,1,2,1.638228201540187,1,j,change,1.0152065085167123,0.9472109823420465,0.5002330014012841,0.03530235820517191,0.35331222797094597,1.001038483877437,6.298829989797923
10,22,female,301,105,105,same,valid,anti,1,1,3,1.0919301977191935,1,j,change,1.2728268409914563,0.9456075711290641,0.5125023773198336,0.03534950370567458,0.3532949092164017,1.001072159234809,6.0870645896561655
10,22,female,302,15,325,change,valid,anti,5,0,1,0.6347974844184137,0,j,change,1.4086312185959287,0.8943024576144265,0.4993449341195628,0.035329298490978545,0.3532859291208297,1.0010295037823198,5.696980795745731
10,22,female,303,135,135,same,catch,anti,5,1,3,0.7918022634330555,1,j,change,0.41320497356127817,0,0.5001197880569634,0.03531967696062566,0.35321537122899826,1.0010878744019465,6.380814731974624
10,22,female,304,75,25,change,valid,anti,4,0,2,2.0574068627815905,1,f,same,1.435503512339892,0.8962438441153648,0.5000633417434983,0.035345013657661184,0.3532731004129346,1.001088515837182,7.2057301346662825
10,22,female,305,75,75,same,valid,anti,5,0,1,2.209643531909933,0,j,change,0.38198759656461334,0.8941597888250601,0.49895109279714234,0.03529658528714208,0.3533366025158102,1.00106766918816,6.203107305403137
10,22,female,306,75,75,same,catch,anti,1,2,1,0.42498268926283345,0,f,same,0.2964351908130993,0,0.4998994550051066,0.035335392127308296,0.3532926641919403,1.0010599719626043,5.838632498259358
10,22,female,307,75,75,same,valid,clock,5,2,3,2.8361594441576017,1,f,same,2.7835351235580674,1,0.5005505119142981,0.03531326260599599,0.3533070964886065,1.0010439360785313,9.23105432412467
10,22,female,308,15,15,same,valid,clock,5,0,3,0.6600960164614662,1,j,change,0.7083104688354069,0.8960577569262183,0.49974390692477755,0.03529626456929691,0.3533234530905247,1.0010833843543878,5.003081776275394
10,22,female,309,15,15,same,valid,anti,2,0,3,6.5433550983052555,1,f,same,0.9228221745488554,0.8940233490959419,0.4994312071785316,0.03529979246377479,0.35333756466843624,1.0010413703366794,11.137739267423058
10,22,female,310,15,325,change,valid,anti,2,1,3,1.25795901035508,1,j,change,0.5349157330310845,0.9440503184749152,0.5004809161755475,0.035323846290339134,0.3532766283078672,1.001031107371091,5.427716486846293
10,22,female,311,105,105,same,valid,clock,2,1,4,0.7454152604532283,1,j,change,0.6787075846850712,0.9424376337066476,0.49962235492148466,0.03530684825273056,0.3532958713694825,1.00109204373166,5.025710012838317
10,22,female,312,165,165,same,valid,clock,2,0,4,0.6729218375712662,1,f,same,0.5709990388095321,0.8919505824418203,0.5004228662728565,0.03532673274912668,0.3533026064405931,1.001054519761965,4.896776370290354
10,22,female,313,75,75,same,valid,anti,5,2,1,0.6054540608784009,0,j,change,0.30147526929886226,1,0.500462314548713,0.035342768634109234,0.3533346782096487,1.0010426532071506,4.567697250198762
10,22,female,314,105,55,change,valid,anti,3,1,4,0.7828808594722432,1,j,change,0.6052234648614103,0.9408204663661595,0.4996800841045115,0.03533635427993431,0.3532868912734557,1.0010702349291023,5.014444483286752
10,22,female,315,105,155,change,valid,clock,2,1,4,0.7075410670977362,1,f,same,1.1256562284825122,0.9391928420355455,0.49946456181805843,0.03531711121831904,0.35331190725446504,1.0010234101464448,5.438269381691498
10,22,female,316,105,105,same,valid,anti,3,2,4,0.2962828499103125,1,j,change,2.3086368952990597,1,0.4996162612851549,0.035353673035388056,0.35333628179796506,1.0010522747379582,6.203631678825332
10,22,female,317,15,15,same,valid,anti,4,2,3,1.0113909301680906,1,f,same,0.7406035329622682,1,0.4998369150553117,0.03533378853899194,0.3532833633789778,1.0010541990441197,5.391358967442102
10,22,female,318,45,45,same,valid,anti,3,2,3,1.0377151173815946,1,f,same,2.1129166804303168,1,0.5000966963834799,0.03529979246377479,0.3532602717050395,1.0010352767003496,6.76983213956828
10,22,female,319,135,85,change,valid,anti,3,1,4,1.4519223337219955,1,j,change,0.7258505192576195,0.9376422182077064,0.4997945803197581,0.03537676470932638,0.3532990785461152,1.0010484261256352,5.873848262687716
10,22,female,320,135,135,same,valid,anti,2,2,4,0.8037756169251224,1,f,same,1.0813333645501189,1,0.5002179276698371,0.03529947174592962,0.35332858457331895,1.0010487468443898,5.521554313379966
10,22,female,321,105,55,change,catch,anti,4,2,1,0.6126621909443202,0,j,change,1.2541697308570292,0,0.4997342853948794,0.035353673035388056,0.35329747495688935,1.001078252870684,7.027824825280732
10,22,female,322,15,65,change,valid,clock,3,2,1,0.634118204353399,0,j,change,0.36065313515973685,1,0.5007204922885649,0.03529594385145174,0.35331832160773047,1.0010641412927725,4.696875921061292
10,22,female,323,135,135,same,valid,clock,2,0,2,1.1599935471595018,1,j,change,2.246892325771114,0.889851709564887,0.5006255598527787,0.03530332035825268,0.3533189630425113,1.0010368802895755,7.075893992540841
10,22,female,324,165,165,same,valid,anti,4,2,2,1.4556016070519036,1,f,same,1.0572121871446143,1,0.5002705253700697,0.03528087012000469,0.35331190725355555,1.0010737628235802,6.086621678527081
10,22,female,325,75,125,change,catch,clock,1,0,3,0.9720003835791431,1,j,change,1.4029541947793405,0,0.49984493299780297,0.035353352317542885,0.3533147937123431,1.00102373086429,7.534614579120898
10,22,female,326,165,115,change,catch,anti,5,1,3,1.5532386553340984,1,j,change,0.9239870211968082,0,0.49996776787247654,0.03533603356299864,0.3533022857227479,1.0010564440681264,7.664537315022244
10,22,female,327,15,325,change,catch,anti,2,1,1,0.7489521351299118,0,j,change,0.522724932946403,0,0.49979490103760327,0.035343089351954404,0.35332505667884107,1.0010246930178255,6.533608487729907
10,22,female,328,135,185,change,catch,clock,2,2,3,1.137339653181698,1,f,same,0.6923967778129736,0,0.4996897056353191,0.03534565509289678,0.3532846462503585,1.0010477846899448,6.969328163791943
10,22,female,329,15,65,change,valid,clock,1,0,2,2.5370180374839038,1,f,same,1.3939259918270182,0.8878194396441286,0.499774695823362,0.035342447916264064,0.35330388931197376,1.0010109021559401,7.593501554038085
10,22,female,330,75,75,same,valid,clock,1,0,1,1.4055260299282963,0,j,change,2.529271422417878,0.8858948591514411,0.4996088847774445,0.03532512916081032,0.35332409452621505,1.0009756232102518,7.640309017907384
10,22,female,331,45,45,same,valid,clock,5,1,3,4.786362249988997,1,f,same,2.450708096550443,0.9361614447410915,0.49982761424143973,0.03533667499777948,0.353294909215947,1.0010413703375889,10.962389757302844
10,22,female,332,135,185,change,valid,clock,3,1,3,0.9390969936885085,1,j,change,0.697755328965286,0.9347275308481489,0.4994501295213922,0.03532544987865549,0.3532634788825817,1.0010612548330755,5.320601589412945
10,22,female,333,135,185,change,valid,clock,2,0,3,0.87325493496337,1,j,change,0.6694654630346122,0.8877577768222324,0.4997541698912755,0.035380292603804264,0.3533022857227479,1.0010558026333456,5.225791988279525
10,22,female,334,45,45,same,catch,anti,4,1,3,1.0616040951799732,1,j,change,0.6672913178199451,0,0.5005922052132519,0.035283756578792236,0.3533058136172258,1.001069593493412,6.899675016765286
10,22,female,335,105,55,change,valid,anti,1,2,1,0.72298073737511,0,j,change,1.9197564341584439,1,0.5000582102602493,0.03530716897057573,0.3533167180185046,1.0010683106229408,6.345882802700544
10,22,female,336,45,355,change,valid,anti,2,1,2,1.1871076620418535,1,j,change,0.48097967708235956,0.9332493967254969,0.4991316568557522,0.03530877255889209,0.3533003614165864,1.001058368374288,5.355171428415815
10,22,female,337,45,95,change,valid,clock,1,1,3,2.0377673943648915,1,j,change,1.6652316688196152,0.9317754910809484,0.5001521805434095,0.03533603356299864,0.35326957251800195,1.001058368374288,7.334796233619272
10,22,female,338,45,95,change,catch,clock,3,1,1,0.33731964039907325,0,j,change,0.5883771267990596,0,0.5000068954304879,0.03535142801138136,0.3532577059640971,1.0010497089970158,6.133682509372193
10,22,female,339,165,215,change,valid,clock,5,1,3,1.1069773095441633,1,j,change,0.6908528428575664,0.9302844041057985,0.5000864334178914,0.035311338300743955,0.3533054928993806,1.0010695934943215,5.485959139925399
10,22,female,340,135,135,same,catch,clock,2,0,1,0.7023278010601643,0,j,change,0.3581175411090953,0,0.4994780319602796,0.035307489687511406,0.35334846907062456,1.001038804595737,6.203361955248511
10,22,female,341,45,355,change,catch,anti,2,2,1,0.5384035379011038,0,j,change,0.4310872297592141,0,0.49997322007311595,0.03531999767801608,0.3532859291199202,1.0010731213887993,6.180386702147189
10,22,female,342,135,85,change,valid,anti,3,2,3,1.2788165645561094,1,j,change,1.4300118633473176,1,0.5000428158118666,0.035334429973772785,0.3532766283078672,1.0010894779907176,6.357664367013967
10,22,female,343,135,135,same,catch,clock,3,1,1,0.6466771883451656,0,j,change,1.1099538904181827,0,0.49905757107080717,0.03533346782114677,0.35331190725355555,1.0010638205749274,6.933149284142928
10,22,female,344,45,45,same,valid,anti,3,0,3,0.9171884476209016,1,f,same,0.6381175539381729,0.8858753961362087,0.499954618447191,0.03530716897057573,0.3532981163925797,1.00107985645991,5.203420967303828
10,22,female,345,75,75,same,valid,clock,2,2,3,0.9592807200242532,1,f,same,1.3556877838955188,1,0.4997500005620168,0.03528151155569503,0.35333403677395836,1.0010336731120333,5.979859570553344
10,22,female,346,15,325,change,valid,anti,4,0,4,1.5813113953881839,1,j,change,0.8005697229036741,0.8840516894512727,0.4997942596019129,0.035307489687511406,0.3532455186914376,1.0010888365550272,6.051257101090414
10,22,female,347,165,215,change,valid,clock,3,1,4,0.9085489545086602,1,j,change,1.0142526941081087,0.9287985219694923,0.49943409363731917,0.03532095983155159,0.3533135108418719,1.0010214858402833,5.520587670264831
10,22,female,348,105,105,same,valid,anti,4,2,4,0.842383291634178,1,j,change,0.7294152963740999,1,0.4997365304188861,0.03532256341986795,0.3533256981136219,1.0010378424422015,5.214538646000619
10,22,female,349,165,115,change,valid,anti,5,2,4,0.6934737478131865,1,j,change,0.7546593064098488,1,0.5001361446584269,0.03533827858609584,0.3532400664907982,1.0010503504327062,5.0857772288509295
10,22,female,350,45,45,same,catch,clock,4,0,1,0.5829913146435501,0,j,change,1.0162812334929185,0,0.49973043678164686,0.03528279442616622,0.3533725228962794,1.0010391253135822,6.709843178670781
10,22,female,351,135,185,change,valid,clock,5,2,3,1.0567301484570635,1,j,change,1.4024875505410819,1,0.5027099041153633,0.035347900116903475,0.3532926641919403,1.0010862708131754,6.112501671740574
10,22,female,352,45,45,same,valid,clock,2,2,2,0.7700694706581999,1,f,same,1.5539355748715025,1,0.4995014443520631,0.035328657055288204,0.3532734211312345,1.001040728900989,6.027058630721513
10,22,female,353,165,215,change,valid,clock,2,2,3,0.9216675908683101,1,j,change,0.5266636668875435,1,0.499411322681226,0.03529594385145174,0.35332633955022175,1.0010641412927725,5.096191894373078
10,22,female,354,75,125,change,valid,clock,1,2,1,0.5046194572369131,0,j,change,0.436536544016235,1,0.5004199798140689,0.035323846290339134,0.35327630759002204,1.0010676691872504,4.555767193594875
10,22,female,355,15,15,same,valid,clock,3,1,2,1.2213776300050085,1,f,same,0.7709819124838759,0.9273883477622502,0.5001297303051615,0.035305244664414204,0.35328528768513934,1.0010590098099783,5.662850660694858
10,22,female,356,135,135,same,valid,anti,4,0,3,1.4388569364982686,1,f,same,0.6404972791915498,0.8821893609427438,0.49959220745859056,0.03531775265400938,0.35328945701530756,1.0010455396668476,5.756677582828161
10,22,female,357,135,135,same,catch,anti,5,0,1,0.4035587476228102,0,j,change,0.9962536966722837,0,0.4993702708170531,0.03531839408969972,0.3533026064405931,1.0010596512447592,6.627576525645964
10,22,female,358,75,125,change,valid,clock,3,2,1,0.6851322014354082,0,j,change,0.4317344380560826,1,0.5002936170449175,0.03532192198417761,0.35332281165483437,1.001010581438095,4.826086984410722
10,22,female,359,45,355,change,valid,anti,5,0,3,0.8396818865385285,1,j,change,0.8236075159547909,0.8803026441954658,0.5005322310053089,0.03530075461640081,0.35329747495779884,1.0010747249762062,5.34481801997299
10,22,female,360,45,355,change,catch,anti,1,0,1,0.579754952442272,0,j,change,0.4052527784569975,0,0.49960247042417905,0.035311338300743955,0.35328272194328747,1.001076970000213,6.144184410105481
10,22,female,361,105,105,same,valid,clock,3,2,2,1.297680216882327,1,j,change,0.7871249166537382,1,0.5009648791683503,0.035367784614209086,0.3532747040017057,1.0010750456940514,5.746068241668581
10,22,female,362,15,15,same,catch,anti,1,1,3,1.193443439992734,1,j,change,1.8320071122352601,0,0.499280149146216,0.03532224270202278,0.35332762241978344,1.0010676691872504,8.181330253588385
10,22,female,363,105,105,same,valid,clock,4,2,3,2.606641678482447,1,j,change,2.886786976424446,1,0.5004850855048062,0.035328657055288204,0.35332184950220835,1.0010234101464448,9.184621137796967
10,22,female,364,165,165,same,valid,anti,2,0,3,1.6398452601297322,1,f,same,1.238876307847022,0.8784319647808785,0.4994549402872508,0.03534918298737466,0.3533305088794805,1.001053878327184,6.580582404080815
10,22,female,365,75,75,same,valid,anti,3,1,2,0.5591632732057406,1,j,change,4.3175990304062,0.9260356787936916,0.49938726885466167,0.035324167008184304,0.3532878534269912,1.0010740835414254,8.500259300251855
10,22,female,366,15,15,same,catch,clock,3,0,1,0.746705507716797,0,j,change,0.4244041145520896,0,0.4998154269696897,0.03533378853899194,0.35330421002890944,1.001066065598934,6.35672434346634
10,22,female,367,135,135,same,valid,anti,4,1,2,0.38151550012571533,1,f,same,1.3042379314738355,0.9247214632266418,0.5004010574702988,0.03534212719841889,0.3532589888354778,1.0010728006700447,5.320771890505966
10,22,female,368,75,25,change,valid,anti,4,1,3,1.3333914901404569,1,j,change,0.6816238706323929,0.9233636967553016,0.4998872677315376,0.03534180648057372,0.35327630759002204,1.0010429739259052,5.674127094646792
10,22,female,369,165,215,change,valid,clock,1,0,3,1.0476948897166949,1,j,change,0.7925004658427497,0.8766666914534196,0.4994873327732421,0.03535014514000068,0.35329619208641816,1.0010638205749274,5.497270532106086
10,22,female,370,45,45,same,catch,anti,4,1,1,0.9057378639627132,0,j,change,0.4802032195566426,0,0.49943313148469315,0.03533282638545643,0.3532769490257124,1.001078252870684,6.568443560261585
10,22,female,371,105,105,same,catch,clock,4,1,1,0.6523542121622086,0,j,change,0.4255436245011879,0,0.5003949638348786,0.03533924073963135,0.35327053467153746,1.0010628584223014,6.28691725194949
10,22,female,372,105,105,same,valid,anti,3,0,1,0.8822590840882185,0,f,same,2.3458504102145525,0.8749688806804554,0.4998125405109022,0.03533731643346982,0.353261233858575,1.0010513125853322,6.88750345974222
10,22,female,373,75,25,change,valid,anti,5,1,2,0.7736204569137044,1,f,same,1.4700704648830651,0.9220084324591613,0.49896777011781523,0.03529337810959987,0.35333724395150057,1.001039766748363,5.885167031377023
10,22,female,374,105,155,change,valid,clock,2,2,3,0.9510517455537411,1,f,same,0.8790586422674096,1,0.49943441435516434,0.03532320485555829,0.3532993992630509,1.0010721592343543,5.461156116712118
10,22,female,375,75,25,change,valid,anti,3,2,2,0.7675399702438881,1,j,change,2.2355722742122452,1,0.5005373624890126,0.03531390404168633,0.3533112658187747,1.0010471432560735,6.746813589578778
10,22,female,376,165,165,same,valid,anti,1,0,3,1.1850194691669458,1,j,change,0.7634399153048435,0.8765074978721019,0.4994963128683594,0.03533026064360456,0.3532631581647365,1.0011026274150936,5.602640725310266
10,22,female,377,75,75,same,catch,clock,1,0,1,0.6677428883258472,0,j,change,0.413303433891997,0,0.5004991970827177,0.03528247370832105,0.35335424198819965,1.001034955983414,6.274848324586856
10,22,female,378,105,105,same,valid,anti,2,2,2,1.1184862638219784,1,j,change,3.1173852399942916,1,0.5007567333877887,0.035273493613203755,0.3533603356245294,1.0010663863167792,7.901099965459252
10,22,female,379,105,55,change,valid,anti,1,1,3,0.9299433901205703,1,j,change,0.7622240745449744,0.9206374769301617,0.49915571068322606,0.03537708542717155,0.3532993992630509,1.0010599719635138,5.320186260004448
10,22,female,380,105,55,change,valid,anti,2,0,3,0.7384739675053424,1,j,change,0.6097500743262572,0.874843974010024,0.4998314628546723,0.035310696865053615,0.35333403677486785,1.0010391253126727,5.0026619568207025
10,22,female,381,75,125,change,valid,clock,3,1,3,1.5099157891563664,1,j,change,3.405194728555216,0.919248270747201,0.5001255609759028,0.03531967696017091,0.35328753270914603,1.0009708124453027,8.571847337097097
10,22,female,382,105,105,same,catch,anti,5,2,3,1.2132605860088006,1,f,same,1.0433802746429137,0,0.4996974028599652,0.03532352557249396,0.35330421002890944,1.0010465018194736,7.439864952195421
10,22,female,383,165,165,same,valid,anti,4,1,3,1.063463937060078,1,f,same,0.7623055368376299,0.9179192686477389,0.5006531415738209,0.03531775265491888,0.3533035685932191,1.001057406221662,5.486774083573437
10,22,female,384,135,135,same,catch,clock,4,1,1,0.7339973899997858,0,j,change,1.1973353491503076,0,0.49906815475333133,0.035334750691617955,0.3533103036643297,1.001054519761965,7.133213940828682
10,22,female,385,45,45,same,catch,anti,1,1,1,0.5834714290249394,0,j,change,0.6262670353207795,0,0.500127805999,0.03524911906788475,0.35333403677395836,1.0010718385174187,6.427465364895397
10,22,female,386,165,165,same,valid,anti,1,2,2,0.9555238330121938,1,f,same,1.3907085519686007,1,0.5003228023542761,0.03533186423283041,0.35330421002890944,1.0010497089970158,6.016448327409307
10,22,female,387,105,105,same,valid,clock,2,2,3,0.9561158778669778,1,j,change,0.897106068075118,1,0.498964562940273,0.03531935624232574,0.3533279431385381,1.0010487468434803,5.485152855654633
10,22,female,388,165,165,same,valid,anti,5,2,3,1.2188702591110996,1,j,change,1.2996943239704706,1,0.49963807008771255,0.03530203748778149,0.3533382061041266,1.0010506711496419,6.156800802564248
10,22,female,389,165,215,change,valid,clock,5,0,3,0.8320571441945503,1,j,change,0.6840529864102791,0.8731579212952121,0.49978848668342835,0.035358804518182296,0.353309982947394,1.0010214858402833,5.226643493744632
10,22,female,390,105,105,same,valid,clock,1,2,3,2.995414699196772,1,f,same,1.2852277111624062,1,0.4995585321012186,0.03535046585875534,0.35328496696820366,1.001073442105735,7.958560708812001
10,22,female,391,135,135,same,valid,clock,3,2,4,0.8666333975515954,1,f,same,1.186213180406412,1,0.4999023414638941,0.03535110729444568,0.3533026064405931,1.0010618962696753,5.673679372753213
10,22,female,392,75,75,same,catch,clock,2,1,1,0.49986064816403086,0,j,change,0.9396418930427899,0,0.5004039439299959,0.0353119797355248,0.3533260188323766,1.0010747249762062,6.545767536763378
10,22,female,393,165,215,change,valid,clock,3,0,3,2.034648414836738,1,j,change,1.6134931704764313,0.87146540613618,0.5006342192309603,0.035326412032191,0.3533022857227479,1.0010465018194736,7.288049706110542
10,22,female,394,45,45,same,catch,anti,5,0,3,0.716256249585058,1,f,same,0.7034281834512512,0,0.4997278710407045,0.03529401954529021,0.3532888155796172,1.001053878327184,6.545216864490612
10,22,female,395,45,45,same,valid,anti,2,1,3,1.1220997900254588,1,f,same,0.6290851816556824,0.9166482332324042,0.4998410843845704,0.03533186423192092,0.3532900984500884,1.0010599719635138,5.485385375978694
10,22,female,396,135,135,same,valid,clock,4,0,3,0.9379488243612286,1,f,same,0.5949601780885132,0.8697350046564503,0.49966052032596053,0.03533731643256033,0.3532769490257124,1.0010753664118965,5.191149025643426
10,22,female,397,45,45,same,valid,clock,3,2,4,0.7029342782097956,1,f,same,0.44280561268806196,1,0.499268924027092,0.03534501365811593,0.3532910606036239,1.0010699142112571,4.790183601256103
10,22,female,398,75,75,same,valid,clock,3,0,4,0.8721949630007657,1,j,change,0.859532707911967,0.8680574604576479,0.5000883577231434,0.035349824423065,0.35333307462133234,1.0010343145477236,5.391845496176757
10,22,female,399,45,95,change,catch,clock,1,2,4,1.2037750396320916,1,f,same,1.17872730882209,0,0.4999440347637574,0.03530171676993632,0.3533269809850026,1.0010580476564428,7.557903173405975
10,22,female,400,45,355,change,catch,anti,1,1,1,0.5574022123746545,0,j,change,0.8215735243702511,0,0.5008737953448872,0.03533346782114677,0.3533170387363498,1.0010384838778918,6.617084246443483
10,22,female,401,135,135,same,valid,clock,5,2,2,1.2593406621608665,1,f,same,0.6190868076946572,1,0.5013846986239514,0.03530396179303352,0.35330645505291614,1.001062216986611,5.6281842856669755
10,22,female,402,45,45,same,valid,anti,3,1,3,1.0954494329234876,1,f,same,0.777589338317739,0.9154182076467829,0.499633259321854,0.03532512916081032,0.3532820805085066,1.001065744881089,5.46212564628604
10,22,female,403,105,55,change,valid,anti,2,2,3,0.9655545994610293,1,j,change,0.8010129547492397,1,0.49913133613881655,0.03534886226952949,0.35330388931106427,1.0010894779907176,5.473207725319298
10,22,female,404,75,75,same,catch,anti,5,2,1,0.5441123127693572,0,j,change,1.5794262168110436,0,0.49998123801469774,0.035334429973772785,0.35328175979066145,1.001069593493412,7.346802621033021
10,22,female,405,15,325,change,valid,anti,5,1,3,0.856443555129772,1,j,change,0.501324082980318,0.9142136936146656,0.4999895766750342,0.03537836829764274,0.3533013235701219,1.0010541990441197,5.08501712792804
10,22,female,406,165,215,change,catch,clock,4,1,1,0.701982388108263,0,j,change,1.9309706488793381,0,0.5001852144660006,0.035321280548487266,0.3533279431385381,1.0010301452175554,7.841684127072767
10,22,female,407,15,15,same,valid,anti,3,0,2,2.5477784366748892,1,j,change,1.7134916631039232,0.8664661495056247,0.49935647995698673,0.0353565594941756,0.3533180008898853,1.001057406221662,7.958454871974027
10,22,female,408,75,75,same,catch,clock,2,2,1,0.8580211654425511,0,j,change,0.48957491115288576,0,0.4993721951232146,0.035339240738721855,0.3533131901249362,1.0010388045948275,6.53324319028161
10,22,female,409,165,215,change,catch,clock,1,2,2,1.964917333411904,1,f,same,1.0116731617335972,0,0.500180403700142,0.03535142801138136,0.35330068213443155,1.0010365595717303,8.170947980552228
10,22,female,410,135,135,same,valid,clock,2,1,3,1.0263187350128646,1,f,same,0.6550453542922696,0.9129601730432486,0.49994050686837,0.035319356243235234,0.35329971998089604,1.0010593305278235,5.344472607021089
10,22,female,411,75,75,same,valid,anti,2,1,3,0.6989814326907435,1,j,change,1.3027206160850255,0.9117014094272482,0.4992374936937267,0.03530877255889209,0.3533292260090093,1.00104810540779,5.697080859664311
10,22,female,412,45,95,change,valid,clock,5,1,3,0.7080102770778467,1,j,change,0.5864877788917511,0.9104218055470106,0.4993670636395109,0.03533603356299864,0.3532958713694825,1.0010522747379582,4.990173851437248
10,22,female,413,105,155,change,valid,clock,5,0,3,0.8849184751670691,1,j,change,0.6675700214909739,0.8649289915212162,0.5003183123062627,0.0352908123686575,0.35332986744379014,1.0010570855029073,5.2387255705325515
10,22,female,414,15,65,change,valid,clock,4,0,3,0.66907547032406,1,j,change,0.50117045920706,0.8633698327974049,0.49999214241688605,0.03534052361010254,0.35330164428796706,1.0010679899050956,4.849695334231001
10,22,female,415,75,75,same,valid,anti,5,1,4,0.7803417375262143,1,j,change,0.5254988202405002,0.9091262691000757,0.5000232520324062,0.035323846290339134,0.35328496696729417,1.0010570855038168,4.943639639038338
10,22,female,416,45,95,change,catch,clock,1,0,1,0.5388310545804416,0,j,change,0.6398622581673408,0,0.5003612884775066,0.03530588609919505,0.35329394706332096,1.0010917230138148,6.416752752639695
10,22,female,417,15,15,same,catch,clock,1,2,2,1.9915417123829684,1,j,change,0.7582449301753513,0,0.4999613535183016,0.03535623877633043,0.3533103036652392,1.0010667070346244,8.194009827431728
10,22,female,418,15,15,same,valid,anti,2,1,4,0.5482335350761787,1,f,same,1.756236275287847,0.9078888288172795,0.5005950916729489,0.03534918298737466,0.3532878534269912,1.0010711970826378,5.886886719626091
10,22,female,419,15,15,same,valid,anti,1,1,4,1.1849966982117621,1,f,same,0.5479557935568664,0.906702961937321,0.49935166919203766,0.03532031839586125,0.3533202459129825,1.001046181102538,5.426169023994589
10,22,female,420,135,185,change,valid,clock,5,0,4,0.7952547893573865,1,j,change,0.6662980551354849,0.8618057825091978,0.4994963128692689,0.03530492394656903,0.3533346782096487,1.0010298244997102,5.085164337347123
10,22,female,421,135,135,same,valid,anti,2,1,4,0.568282559981526,1,f,same,0.6553506775326241,0.9055539523224276,0.49945558172294113,0.03534180648057372,0.3532814390728163,1.0010442567963764,4.872529471550479
10,22,female,422,15,15,same,valid,anti,1,2,4,2.3695947443347904,1,f,same,0.6685081207324401,1,0.5002538480512158,0.03533859930394101,0.3533176801720401,1.0010647827284629,6.639770212190342
10,22,female,423,105,55,change,valid,anti,3,2,4,0.5900175977794788,1,j,change,0.5841067707669936,1,0.500232680683439,0.03530107533424598,0.35333628179796506,1.0010400874662082,4.849480132661483
10,22,female,424,15,15,same,catch,clock,1,0,1,0.5432627316104117,0,j,change,0.6116586652942715,0,0.500532551723154,0.03532352557340346,0.3532958713694825,1.0010455396668476,6.321776699026486
10,22,female,425,105,105,same,catch,clock,3,2,2,1.7385342624311306,1,j,change,1.5916737839270354,0,0.5009777078757907,0.03532095983155159,0.35331094510002004,1.001050991867487,8.560126067709461
10,22,female,426,45,45,same,valid,clock,5,2,3,0.7356856479154885,1,j,change,0.5811061360664098,1,0.5006415957368517,0.03529401954529021,0.35331960447820165,1.0010609341161398,5.003890626288012
10,22,female,427,135,85,change,valid,anti,2,2,3,3.3196824125161584,1,j,change,0.6727181818378085,1,0.49896969442306727,0.03529401954438072,0.3533346782087392,1.0010551611976553,7.675128054555898
10,22,female,428,75,75,same,valid,anti,2,0,3,0.3263520575801522,1,f,same,0.9960513238102067,0.8602075060355587,0.49953127109711204,0.03531358332384116,0.3532468015628183,1.0011087210514233,4.943090570354798
10,22,female,429,105,105,same,valid,clock,1,1,4,0.9132737675063254,1,j,change,1.9140649780456442,0.9044282730137301,0.5004728982321467,0.03534565509289678,0.3533026064405931,1.0010516333031774,6.43981973100108
10,22,female,430,75,125,change,valid,clock,1,0,4,0.8352858091720918,1,j,change,0.6914506606299256,0.8586138249604158,0.5003555155581125,0.03530492394656903,0.35329202275715943,1.0010865915310205,5.214704136327782
10,22,female,431,165,165,same,valid,clock,4,0,4,0.5330465903380173,1,f,same,1.4728026588782086,0.8571071275940143,0.5006133725801192,0.0352953024157614,0.35331319012402673,1.0010465018203831,5.662776574909003
10,22,female,432,165,115,change,catch,anti,4,1,1,0.3311169602893642,0,j,change,0.7878446071481449,0,0.5002009296322285,0.03534437222242559,0.35328657055652,1.001051954020113,6.227759591302856
10,22,female,433,165,165,same,catch,clock,4,0,1,0.6050329585532381,0,j,change,0.5061287546823223,0,0.5004523723009697,0.035333467820237274,0.3532958713694825,1.0010525954558034,6.263018652620303
10,22,female,434,105,105,same,valid,anti,2,1,1,0.6932575840910431,0,j,change,0.5590641714397862,0.9032572622964199,0.5007567333877887,0.03533442997468228,0.35330837935907766,1.001040728900989,4.921029362666559
10,22,female,435,105,155,change,valid,clock,3,1,2,0.9181368098279563,1,j,change,0.6811299653909373,0.9051792027702521,0.49954666554640426,0.03535046585875534,0.353295871368573,1.0010599719635138,5.238096001708982
10,22,female,436,135,85,change,valid,anti,3,0,2,1.5719400245097859,1,j,change,2.6541226495000956,0.8556601421899721,0.49927822484005446,0.035335071409463126,0.35330388931106427,1.0010577269385976,7.8871615746847965
10,22,female,437,75,75,same,valid,clock,2,0,3,0.4397594360752919,1,f,same,1.769960105926657,0.8542466895336742,0.5001374275298076,0.03526611710640282,0.353320245913892,1.0010641412927725,5.850456718025271
10,22,female,438,75,75,same,valid,clock,3,1,3,0.8081813158214572,1,f,same,0.6014813308629527,0.904087135987484,0.5004263941682439,0.03531518691306701,0.3532993992630509,1.001058368374288,5.07359508814443
10,22,female,439,135,135,same,valid,anti,1,1,3,0.9030874529789799,1,f,same,0.7357459428412767,0.9029467514344911,0.5003080493397647,0.035283756578792236,0.35334397902261117,1.001042332490215,5.309678907071429
10,22,female,440,135,185,change,valid,clock,2,2,4,0.7660277863387819,1,j,change,0.6732431966956938,1,0.4997445483604679,0.03534918298737466,0.3533032478762834,1.0010538783262746,5.119779076827399
10,22,female,441,135,185,change,catch,clock,4,0,1,0.6638009472080739,0,j,change,0.42353593176630966,0,0.5006380678423739,0.03529594385145174,0.3533327539034872,1.0010570855038168,6.239734869101085
10,22,female,442,165,115,change,valid,anti,2,0,3,0.31688158493579976,1,j,change,2.6011772904930694,0.8527983019893255,0.5003824558443739,0.035286963756334444,0.3533359610810294,1.0010516333022679,6.522749628208658
10,22,female,443,135,135,same,catch,anti,2,2,1,0.4275243769498047,0,j,change,3.377035074006926,0,0.4992095912548393,0.03531903552448057,0.35332633954931225,1.0010522747388677,8.982255010972949
10,22,female,444,165,165,same,valid,anti,3,2,3,1.346934115285876,1,f,same,2.548348993443142,1,0.5008699467325641,0.03533795786825067,0.3532968335221085,1.0010375217243563,7.536126121589405
10,22,female,445,165,165,same,valid,anti,5,1,1,0.580037825443469,0,j,change,1.980979196005137,0.9017990338594415,0.4991839338399586,0.03530235820562666,0.3533667499777948,1.0010500297139515,6.191215414205544
10,22,female,446,135,85,change,valid,anti,2,0,3,1.912564981412288,1,j,change,0.5680801871203585,0.8513327497806438,0.49990426577005564,0.035254571269433654,0.3533523176829476,1.0010907608611888,6.133278725801574
10,22,female,447,15,15,same,valid,clock,1,0,3,1.1736638179445436,1,f,same,1.2017343129764413,0.8498249091185559,0.5001181844681923,0.03532609131434583,0.3532644410352077,1.00106766918816,6.0397606548031035
10,22,female,448,105,55,change,catch,anti,3,0,3,0.7884164467877781,1,j,change,0.6002677351270904,0,0.4995181216718265,0.035310055429363274,0.3533122279714007,1.0010519540210225,6.568638877334706
10,22,female,449,165,215,change,catch,clock,3,1,1,0.8007557391629234,0,j,change,0.5746173757788711,0,0.5002695632174436,0.03532416700727481,0.3533058136181353,1.0010506711496419,6.5338730798230245
10,22,female,450,45,45,same,valid,clock,2,0,1,0.7559527608500503,0,j,change,0.5707475961398814,0.8483476676860708,0.5005084978956802,0.03532031839586125,0.35331607658372377,1.0010465018194736,4.979940070692464
10,22,female,451,165,165,same,valid,clock,5,2,2,1.209730125686292,1,j,change,0.977678369548812,1,0.5122159764232492,0.03535944595387264,0.35329715423995367,1.0010525954558034,5.827274602012949
10,22,female,452,15,325,change,catch,anti,3,1,3,1.9342220848120633,1,j,change,0.6644853587567923,0,0.49989881356941623,0.035291453803438344,0.3533401304102881,1.0010484261265447,7.7461958873091135
10,22,female,453,15,325,change,catch,anti,4,2,1,0.5671571616094297,0,j,change,0.5079382438852917,0,0.5006040717680662,0.03529498169791623,0.3533481483527794,1.0010541990441197,6.2517162405347335
10,22,female,454,165,215,change,valid,clock,4,1,2,0.9576803387544714,1,j,change,0.6184553145649261,0.90371033500633,0.5000011225120033,0.03533924073963135,0.3532904191679336,1.0010365595717303,5.214505932796783
10,22,female,455,15,325,change,valid,anti,5,2,3,0.7974526676816822,1,j,change,0.6629285950930353,1,0.5003696271369336,0.03536233241266018,0.3532779111783384,1.0010711970826378,5.120781640323003
10,22,female,456,165,165,same,valid,clock,1,2,3,0.7854328101248029,1,f,same,1.8398265302157597,1,0.49967912195188546,0.03534661724643229,0.3532990785461152,1.0010400874652987,6.274165516626454
10,22,female,457,135,85,change,valid,anti,5,2,3,0.7102931455892758,1,j,change,0.5718094924095567,1,0.49984429156120314,0.0353309020792949,0.3532631581647365,1.0010817807660715,4.908191033567164
10,22,female,458,105,155,change,catch,clock,5,1,3,0.5900878349539198,1,j,change,0.5919197743951372,0,0.5003641749362941,0.03534180648057372,0.3533003614165864,1.0010333523950976,6.321828334573183
10,22,female,459,135,135,same,valid,clock,3,1,3,0.8247964164283985,1,f,same,1.454873898615915,0.9025971178483376,0.5007897673103798,0.03531294188906031,0.35330421002890944,1.0010564440681264,5.922026794680278
10,22,female,460,135,85,change,valid,anti,4,0,3,1.5936862874268627,1,j,change,0.7569938104688845,0.8497485346727698,0.4996656518087548,0.03531390404168633,0.35331062438308436,1.0010532368914937,5.992155245321555
10,22,female,461,15,15,same,valid,clock,3,0,3,0.8303605476194207,1,j,change,0.5301700733834878,0.8482962774786871,0.4997711679288841,0.03530781040535658,0.35332088734867284,1.0010378424422015,5.025791475130973
10,22,female,462,45,45,same,valid,anti,2,2,4,1.3445992905089952,1,j,change,0.6596659340402766,1,0.5003641749353847,0.03528503944926342,0.3533215287843632,1.0010679899050956,5.686674212084654
10,22,female,463,15,15,same,valid,anti,5,1,4,0.9258997814949907,1,f,same,0.6681777815128953,0.901472584547335,0.49963935295818374,0.03531294188906031,0.35329522993379214,1.0010801771768456,5.21473268020236
10,22,female,464,105,55,change,valid,anti,5,1,4,0.654232976385174,1,j,change,0.4884543235466481,0.900324304457367,0.49978175161231775,0.03533122279714007,0.3533301881625448,1.001047143255164,4.766731761666961
10,22,female,465,165,165,same,valid,clock,2,1,4,0.6816232291976121,1,f,same,0.6368308345681726,0.8991583515704293,0.5003009935508089,0.03529049164990283,0.35332313237267954,1.0010625377044562,4.95559374946879
10,22,female,466,165,215,change,valid,clock,1,2,4,0.6514555611965989,1,j,change,0.6873874882248856,1,0.5005646234922096,0.035279266531688336,0.3533378853862814,1.0010384838778918,4.967770758693405
10,22,female,467,45,95,change,valid,clock,1,0,1,0.584972067092167,0,j,change,0.654991794437592,0.8469177507248458,0.5000315906918331,0.03533859930394101,0.3533000406987412,1.0010474639730091,4.873414010936358
10,22,female,468,15,325,change,catch,anti,5,2,3,0.4173646819908754,1,j,change,1.307003159389751,0,0.5000421743761763,0.03536457743666688,0.3532891362974624,1.0010744042592705,6.827844838065175
10,22,female,469,165,115,change,valid,anti,2,2,3,0.8006617688797633,1,j,change,0.7163906302967007,1,0.5007326795612244,0.035315828347847855,0.3532910606045334,1.0010602926804495,5.226918990239938
10,22,female,470,135,185,change,valid,clock,3,2,3,0.6813047565319721,1,j,change,0.6361326321593879,1,0.4999514112696488,0.035325449879564985,0.3533138315597171,1.0010346352646593,4.967208861300605
10,22,female,471,135,135,same,valid,clock,1,0,1,0.3506842672259154,0,j,change,0.9540491730776921,0.8482463055489697,0.49979618390807445,0.03532769490266219,0.3533032478762834,1.0010333523941881,4.944193197769891
10,22,female,472,15,65,change,valid,clock,3,0,3,0.6891514355156687,1,j,change,0.614473283735606,0.8496023255727316,0.49965699243148265,0.035334750691617955,0.35333531964442955,1.0010429739259052,4.943827258886813
10,22,female,473,15,65,change,catch,clock,2,0,1,0.6205781449498318,0,j,change,0.5084058502752669,0,0.49995205270533916,0.03532544987865549,0.35329651280426333,1.001062216986611,6.297868157448647
10,22,female,474,135,135,same,valid,clock,3,0,1,0.6338154468548964,0,j,change,0.617497010110128,0.8481976951371291,0.5000960549477895,0.035298188875458436,0.35333211246779683,1.0010529161736486,4.956309270633938
10,22,female,475,105,155,change,valid,clock,1,0,2,1.359855510266243,1,f,same,1.132535622915384,0.849532309016892,0.49920574264342576,0.03532544987865549,0.3533077379233873,1.0010609341161398,6.274406696328697
10,22,female,476,135,85,change,valid,anti,2,1,3,0.6951927946274736,1,j,change,0.5664454890575144,0.8980434918296913,0.4990059355222911,0.035315507630002685,0.35328977773315273,1.001083705072233,4.884082043433409
10,22,female,477,15,65,change,valid,clock,4,1,1,0.5404603004426463,0,j,change,0.35690683183202054,0.8969744524828116,0.4999924631347312,0.03535752164771111,0.3533311503142613,1.0009987148841901,4.555676430489257
10,22,female,478,135,135,same,catch,anti,2,0,1,0.5200232071319988,0,j,change,1.5669951991767448,0,0.4996977235778104,0.03535495590585924,0.35330966222954885,1.0010551611976553,7.239838460914143
10,22,female,479,45,45,same,catch,clock,5,2,1,0.5549593057357924,0,j,change,0.5132547810189863,0,0.5001771965235093,0.035291133085593174,0.35333628179796506,1.001027579476613,6.21549406399663
10,22,female,480,105,105,same,catch,clock,1,0,2,0.726004143031787,1,f,same,2.419100406124926,0,0.5007009285100139,0.035354314471078396,0.3533147937132526,1.0010336731120333,8.3358857116109
