subject,age,gender,ntrial,memory_ori,test_ori,type,trial_type,which_change,trial,quest,pas,pas_rt,vis,test_key,test,test_rt,contrast,fix_dur,target_dur,mask_dur,retention_dur,trial_dur
11,28,female,1,165,115,change,valid,anti,3,0,1,0.6630663014345828,0,j,change,4.644567364449813,0.2,0.5046505519371749,0.035349069617041096,0.35326042160772886,1.0010734386630702,9.000365616993122
11,28,female,2,105,155,change,valid,clock,3,1,2,1.3554188447335491,1,f,same,4.017510488236667,0.2,0.4993895158365831,0.0353272608840598,0.3532790231740819,1.001064458596602,9.053567379523656
11,28,female,3,135,85,change,valid,anti,2,0,2,1.3572655312655115,1,j,change,1.2202454316316107,0.3150270229513009,0.49994980784276777,0.03532084655080325,0.35330724624009235,1.000994221647943,6.227627687725999
11,28,female,4,165,115,change,valid,anti,5,2,2,0.6280623229442881,1,j,change,2.2255269935988053,0.2,0.4998763637272532,0.035349711050230326,0.3532873618071335,1.0010612514299737,6.521636347717049
11,28,female,5,135,185,change,catch,clock,2,0,1,0.35437234627011094,0,j,change,3.130963686214727,0,0.5004754624494581,0.03526921116849735,0.3533832560885912,1.0010320662138383,8.68986859276265
11,28,female,6,165,115,change,catch,anti,1,0,1,0.7738909056620287,0,f,same,0.6474692087952008,0,0.49977662084597796,0.035391404216170486,0.35331301914015967,1.001043932730454,6.674865146662114
11,28,female,7,135,135,same,valid,anti,5,0,1,0.4973414192418204,0,j,change,0.6385436641301112,0.23704404819608071,0.5005450579647004,0.035335599517111405,0.3532982661738515,1.00103463194705,4.850027437310246
11,28,female,8,75,75,same,valid,clock,2,2,2,0.4977782353337261,1,j,change,5.448139634902645,0.11397766455402543,0.4996229975654387,0.035340730983762114,0.3532963418736017,1.0010484227634606,9.619156341995676
11,28,female,9,75,75,same,catch,anti,5,1,1,0.5452131915894824,0,f,same,0.5225115834839471,0,0.4994501312853572,0.0353317509172939,0.35331237770674306,1.0010580442635728,6.333197349469174
11,28,female,10,15,65,change,valid,clock,5,1,2,1.4387695769457878,1,f,same,1.4387330152464983,0.09338226537841544,0.499845895644512,0.03533559951733878,0.35328928610715593,1.001052912796922,6.663654175073589
11,28,female,11,105,55,change,valid,anti,3,0,2,0.5547814524422847,1,j,change,10.567232314640933,0.2914418032347298,0.49927501998854495,0.035345541733931896,0.3533085291066982,1.0010250104473926,14.812586012199517
11,28,female,12,15,15,same,valid,clock,5,2,1,0.4049102362173471,0,f,same,0.8599497693567173,0.056143516159837065,0.49936065133692864,0.035321808700700785,0.353318150606583,1.001047460613563,5.014112815934141
11,28,female,13,105,55,change,valid,anti,1,1,1,0.8908665347237275,0,j,change,1.9147673024233427,0.020575447070561637,0.49967078434769974,0.03534714531701866,0.3533091705401148,1.001042970580329,6.521533718385854
11,28,female,14,15,65,change,valid,clock,2,0,2,0.7734720497032868,1,j,change,1.6630390405182425,0.24588556198962952,0.5002253034540445,0.03536542616666338,0.3532710052575112,1.0010721557964644,6.133695230013245
11,28,female,15,15,15,same,valid,clock,5,1,2,0.6109684456498599,1,f,same,4.4394793229157585,0.10418102663402222,0.4999687301256017,0.035345862450412824,0.3533069255236114,1.001013785364421,8.830745630957153
11,28,female,16,45,45,same,valid,anti,2,0,1,0.2941055164228601,0,j,change,1.9258618538642622,0.21285356744953898,0.4997275511968837,0.03534714531701866,0.3532796646072711,1.0010416877139505,5.909784969100656
11,28,female,17,75,125,change,valid,clock,5,1,2,0.31640141795242016,1,j,change,4.961289499063241,0.06737796641710639,0.49964288199862494,0.03533688238394461,0.3532883239572584,1.0010651000297912,8.994791882148093
11,28,female,18,165,115,change,valid,anti,2,0,1,0.8906134892786213,0,f,same,1.8536986809244809,0.23852743881960997,0.5001730266385493,0.0353461831673485,0.353259138741123,1.0010490641971046,6.498716972999318
11,28,female,19,75,25,change,valid,anti,2,2,2,0.7572453902594134,1,f,same,1.7521318838225852,0.16391670208980944,0.4997862423456354,0.03531218720081597,0.3532998697569383,1.0009477177322879,6.227487213828681
11,28,female,20,75,75,same,valid,anti,4,0,1,0.987866326578569,0,j,change,16.60727411043581,0.26332346206475676,0.4998968895934013,0.03534008955011814,0.3532847960741492,1.0010638171634128,21.325993732554707
11,28,female,21,105,55,change,catch,anti,1,1,2,1.4090853257052913,1,f,same,2.1061113521827792,0,0.49935616130369453,0.035350352483419556,0.3532931347072008,1.0010628550135152,8.806255386035446
11,28,female,22,15,325,change,catch,anti,3,0,2,0.8299791181379987,1,f,same,2.462321404918839,0,0.5001781581049727,0.035297434234962566,0.3533697859888889,1.0010269347471876,8.547980976370582
11,28,female,23,135,135,same,valid,anti,4,0,1,0.3518258559847709,0,f,same,3.6153289093676904,0.28618733171054245,0.5000976582232397,0.0353089800341877,0.35333899718989414,1.001023727581014,7.711864624214286
11,28,female,24,135,135,same,valid,clock,5,0,2,0.3662247511801979,1,j,change,1.1882109687021511,0.30940660072055665,0.4992378168558389,0.035330788767169,0.35331333985686797,1.0010541956630732,5.190063748850662
11,28,female,25,15,15,same,valid,clock,3,0,2,0.43251111203062464,1,f,same,1.0631872757589917,0.28726963819595525,0.4998455749278037,0.0353503524838743,0.35327292955753364,1.0010407255635982,5.19111794451419
11,28,female,26,75,75,same,valid,anti,1,2,2,0.5091870891014878,1,f,same,1.2596823558051256,0.1384402033061635,0.5000450606908089,0.035326298734162265,0.35327709887405945,1.0010612514297463,5.5096806720425775
11,28,female,27,165,115,change,valid,anti,3,2,2,0.3381190673430865,1,j,change,2.4551937978530987,0.11872024934161819,0.49959541593261747,0.035321808700700785,0.3533268099563429,1.001046498463893,6.509703122208975
11,28,female,28,135,135,same,catch,clock,1,2,1,0.2851607287580009,0,j,change,1.0218000735726491,0,0.5000155547581926,0.03532629873370752,0.35330724624009235,1.0010420084304315,6.5225061313008155
11,28,female,29,135,85,change,catch,anti,4,0,1,0.5983950696868305,0,f,same,2.4752132525254638,0,0.49983082196149553,0.03533239235093788,0.3533136605733489,1.0010525920802138,8.31198418738586
11,28,female,30,165,165,same,catch,anti,5,2,2,0.705544902416932,1,f,same,1.6522222297057851,0,0.5001489728888373,0.03530962146805905,0.3532896068240916,1.001072797229881,7.640818507403765
11,28,female,31,45,95,change,valid,clock,4,0,2,0.4923802532184709,1,j,change,4.254066286361194,0.26907028343624967,0.4998853437937214,0.03538306558266413,0.3532357264248276,1.0010699107797336,8.42939053892269
11,28,female,32,135,135,same,valid,clock,1,1,1,0.5325384691618638,0,f,same,2.359467571857749,0.039060975609891524,0.4999847659587431,0.03533592023404708,0.35331815060635563,1.0010086538977703,6.604212549194017
11,28,female,33,75,125,change,valid,clock,4,1,2,0.8430338898087939,1,j,change,1.0423259398521623,0.07895759315026386,0.49975866071281416,0.035304490001180966,0.3533197541901245,1.0010333490804442,5.580125765831326
11,28,female,34,105,55,change,valid,anti,3,1,2,0.8467708803382266,1,f,same,2.1086639360851223,0.058899643196053425,0.49964127841485606,0.03526151396863497,0.3533329035726638,1.0010702314966693,6.898790481257947
11,28,female,35,105,55,change,catch,anti,5,0,1,0.25340817577352936,0,j,change,1.4079172756273692,0,0.49982472834517466,0.035324053717431525,0.35330115262331674,1.001073117946362,6.88673185553489
11,28,female,36,45,45,same,valid,clock,3,0,3,1.3335366676960803,1,f,same,1.9485637826860511,0.25347691643205617,0.5005854682640347,0.03533816525077782,0.3533082083899899,1.0010314247801944,7.028986051070206
11,28,female,37,105,55,change,valid,anti,4,0,2,0.5526185392832303,1,f,same,9.708713583023837,0.239631505431433,0.5001281263062083,0.03531411150106578,0.3532924932737842,1.001063496446477,14.106954837000558
11,28,female,38,105,105,same,valid,anti,3,0,2,0.5167406078926433,1,f,same,1.2320933465084636,0.22748440623509442,0.49930099803805206,0.03530769716780924,0.35330724624009235,1.001045215596605,5.497208642544592
11,28,female,39,15,65,change,valid,clock,3,1,2,0.9003674450777908,1,j,change,1.1519520259189449,0.04177613825106399,0.4995745693495337,0.03532084655080325,0.3533050012233616,1.0010420084304315,5.7557110817547255
11,28,female,40,135,185,change,valid,clock,4,2,2,1.0126118619623412,1,j,change,1.9215440454622694,0.10198742709658835,0.5004122812674723,0.03529807566792442,0.3533216784899196,1.0010147475140911,6.628628067133832
11,28,female,41,135,85,change,valid,anti,2,1,1,0.3225707236360904,0,j,change,1.0669091926051806,0.026529571602768504,0.49989849317717017,0.03532148798421986,0.3533300171229712,1.0010602892803036,5.073751041126343
11,28,female,42,105,105,same,valid,clock,1,1,2,0.3077661218653702,1,j,change,2.6196739786855687,0.04997549678660665,0.49953223475085906,0.035338806684194424,0.3533191127567079,1.0010522713632781,6.568580928199026
11,28,female,43,165,115,change,catch,anti,5,2,1,0.5545797216627761,0,f,same,0.6367287285474958,0,0.5002965025528283,0.03535580466677857,0.3532597801740849,1.0010554785299064,6.451861551749516
11,28,female,44,135,135,same,valid,anti,3,0,2,0.41631941070227185,1,f,same,1.6326193859749765,0.21659731956941525,0.49976667862938484,0.03533624095052801,0.3533348278729136,1.0010455363135407,5.791606652561313
11,28,female,45,105,105,same,catch,anti,4,1,1,0.34097120060596353,0,j,change,1.1736972569424324,0,0.49964673059821507,0.035308017884290166,0.35327357099095025,1.0010676657634576,6.698246674087841
11,28,female,46,165,165,same,valid,clock,4,2,2,0.40711323895948226,1,f,same,2.330043742545058,0.08691939215205413,0.49997225800916567,0.03535997398375912,0.35325657300791136,1.0010525920802138,6.510542437709773
11,28,female,47,75,75,same,valid,anti,3,0,2,0.5553783061477588,1,f,same,0.90984847099935,0.20668641001619642,0.49916148629063173,0.03533720310042554,0.3533101326902397,1.0010574028301562,5.1550536767435915
11,28,female,48,45,45,same,catch,anti,2,2,1,0.31283408653644074,0,j,change,0.638821404758346,0,0.5001579529553055,0.035293264917982015,0.3532957004404125,1.001020520413931,6.168810176467559
11,28,female,49,15,15,same,valid,clock,4,2,2,0.5147977063629696,1,f,same,1.9623154716600766,0.07383301579338017,0.5003375542851245,0.035365105450182455,0.35327581600722624,1.0010609307132654,6.192957254562771
11,28,female,50,75,125,change,valid,clock,1,1,1,0.3509708253673125,0,j,change,1.3261348478858963,0.03768704363196376,0.49930548807151354,0.035327581600540725,0.3533226406398171,1.0010644585963746,5.37924745118471
11,28,female,51,45,355,change,valid,anti,5,2,2,1.594222225215617,1,f,same,1.0080746833646117,0.06113641695825531,0.5062278364744088,0.03533399593379727,0.35326683594075803,1.0010705522131502,6.386800969975411
11,28,female,52,135,135,same,catch,clock,5,0,2,1.352620271152773,1,f,same,1.0760864998487705,0,0.4997304376465763,0.03533912740067535,0.3532918518403676,1.0010567613971944,7.687305104494499
11,28,female,53,15,325,change,valid,anti,1,0,1,0.3460157529607386,0,j,change,0.6764539769988005,0.19755079281732893,0.5001733473550303,0.035281719118302135,0.35332937569000933,1.001055799246842,4.6963217326911035
11,28,female,54,105,105,same,valid,anti,4,0,2,0.3198962674032373,1,j,change,1.2664462701773118,0.20591160900578126,0.5003135005354125,0.03535195606673369,0.35327645744064284,1.0010436120137456,5.250542893127204
11,28,female,55,75,75,same,catch,clock,4,2,2,0.26383627799350506,1,j,change,0.9204949812651648,0,0.4995687964501485,0.03532565730074566,0.35330852910692556,1.00103174549713,6.368346291890248
11,28,female,56,165,165,same,valid,anti,5,2,2,0.6791428654814808,1,f,same,2.1539096804153814,0.049441503866454434,0.5004126019839532,0.03532854375043826,0.353309811973304,1.0010041638643088,6.604894072097522
11,28,female,57,45,45,same,catch,clock,1,0,2,0.5506503011370114,1,f,same,1.2263297474000865,0,0.49947450575155017,0.035343296717201156,0.35323348140809685,1.001085946612875,7.004150073588789
11,28,female,58,165,165,same,valid,clock,2,0,1,0.43277249610855506,0,f,same,1.1590725772180122,0.19762075005916524,0.49991068041026665,0.03522399011899324,0.35340346123848576,1.0010529127966947,5.34429735309368
11,28,female,59,45,95,change,catch,clock,2,2,1,0.25699988165570176,0,f,same,0.6094594737614898,0,0.5000934889062592,0.035351635350252764,0.35332777210624045,1.0010012774146162,6.074815820439653
11,28,female,60,45,355,change,valid,anti,1,1,2,0.7389048873051252,1,f,same,1.2064821968574506,0.0569521910185245,0.4996621249979398,0.03535901183340684,0.3533216784899196,1.001050667779964,5.6855267306114
11,28,female,61,15,65,change,valid,clock,2,2,2,0.5104199239453919,1,j,change,1.5149282380439217,0.03842570117531788,0.49978784592894954,0.03532565730074566,0.35326876024100784,1.0010590064134703,5.685398123230243
11,28,female,62,75,75,same,valid,clock,1,2,2,0.28179384525492424,1,j,change,3.8915984101431604,0.027854925048741652,0.5004395421833578,0.03532341228401492,0.3532992283235217,1.0010644585968294,7.829872960923694
11,28,female,63,15,15,same,valid,anti,3,2,1,0.4999571843254671,0,f,same,0.44757324928013986,0.017521629314074694,0.5000274212748081,0.03533271306741881,0.35329826617362414,1.0010513092133806,4.661752645992692
11,28,female,64,135,185,change,catch,clock,3,0,2,3.181648785109246,1,f,same,3.729687169762201,0,0.49961594179876556,0.03534874890010542,0.353283513207316,1.0010638171634128,12.162925667179024
11,28,female,65,105,105,same,catch,clock,3,0,1,0.4562633879158966,0,f,same,0.686502992125952,0,0.4997390969965636,0.03533624095052801,0.3532626666242322,1.0010602892798488,6.345353473056548
11,28,female,66,165,165,same,valid,anti,2,2,1,0.31493894997993266,0,f,same,1.1581752120018791,0.050270269648780064,0.49942254965253596,0.03533720310088029,0.3533005111903549,1.0010554785303611,5.179272916087029
11,28,female,67,15,15,same,valid,clock,1,0,2,1.1240932939108461,1,f,same,1.7455135748136854,0.20525760338577886,0.4997605850126092,0.0353019242679693,0.3533312999898044,1.0010522713632781,6.603853025817443
11,28,female,68,45,45,same,valid,clock,1,1,1,2.1985309894075726,0,j,change,0.8888777707115878,0.04669024273231717,0.4997766208457506,0.03535227678366937,0.35327068454125765,1.001075042246157,6.769053856986375
11,28,female,69,105,105,same,valid,clock,1,0,2,0.5790106340023158,1,f,same,1.9035008468522392,0.19766750535893277,0.5003449307687333,0.035344579583579616,0.3532645909240273,1.0010609307132654,6.215880477881001
11,28,female,70,45,355,change,valid,anti,3,0,2,0.7445251260655823,1,f,same,5.112744093441506,0.19052159571414562,0.5001274848723369,0.035313790784130106,0.353309811973304,1.0010602892798488,9.537553515583568
11,28,female,71,105,105,same,valid,anti,2,1,2,0.41288678028377035,1,j,change,0.9533498374125884,0.06337503632982047,0.49967238793124125,0.03533335450083541,0.3533130191399323,1.0010509884968997,5.002749824648163
11,28,female,72,45,45,same,valid,anti,5,2,1,1.0870447467091253,0,j,change,1.263003056109028,0.07375572360264396,0.49964705131515075,0.03532116726728418,0.3533184713232913,1.0011016617290807,6.003568614282813
11,28,female,73,45,45,same,valid,clock,4,2,2,0.4470148815739776,1,f,same,1.051783553457426,0.09392953491955251,0.5001136940559263,0.03532245013411739,0.3533306585563878,1.0009733750648593,5.238807549798821
11,28,female,74,75,75,same,valid,clock,5,0,2,0.6171252433837253,1,j,change,1.0913715351775863,0.18373232822327423,0.4996938759477416,0.035379858416490606,0.35328575822404673,1.0010721557964644,5.355746617160548
11,28,female,75,105,105,same,catch,anti,4,1,2,0.38238534299216553,1,j,change,2.1729079732408536,0,0.5002852774696294,0.035338806683739676,0.35327164669070044,1.0010519506467972,7.758856991478751
11,28,female,76,15,325,change,valid,anti,5,1,1,0.2594267446261256,0,j,change,0.6576827515691548,0.05417899986498212,0.49989592744350375,0.035337844533842144,0.35326843952407216,1.0010756836795736,4.625438860660779
11,28,female,77,135,185,change,valid,clock,3,0,2,0.238282857341801,1,j,change,1.2377700314013964,0.1772078025601326,0.5005412093646555,0.03532116726773893,0.35330917054034217,1.0010570821136753,5.179779969128049
11,28,female,78,135,135,same,catch,anti,5,2,1,0.19057240547454057,0,j,change,1.0925389438225466,0,0.500323442752233,0.03533303378389974,0.35330051118990013,1.0010378391139056,6.545761296362343
11,28,female,79,45,45,same,valid,anti,4,0,1,0.24237520193128148,0,j,change,1.1188569529931556,0.17117317549702665,0.5003513451015351,0.03534425886709869,0.35326683594075803,1.001080173713035,5.073833465308326
11,28,female,80,45,45,same,catch,anti,3,1,2,0.35246857217225624,1,j,change,3.008173143379281,0,0.4997390969965636,0.03532918518385486,0.3532706845408029,1.0010583649800537,8.559473857903868
11,28,female,81,15,65,change,catch,clock,4,0,1,0.45405717800758794,0,j,change,0.6695887161617975,0,0.5001018275397655,0.035307055734392634,0.3533252063730288,1.001056440679804,6.369007930360567
11,28,female,82,15,15,same,catch,clock,1,2,1,0.26147901053764144,0,j,change,0.8754557784641293,0,0.5003664187847789,0.03532341228401492,0.35328190962400186,1.0010493849135855,6.416947373923904
11,28,female,83,165,165,same,valid,clock,4,1,2,0.2489659293069053,1,j,change,1.8000710066685315,0.06804216884383368,0.4991480161911568,0.03529262348456541,0.3533008319068358,1.0010811358629326,5.75533327752828
11,28,female,84,15,325,change,valid,anti,1,1,2,0.8294589157144401,1,f,same,4.511575145356801,0.060091743304783035,0.4997185711304155,0.035298717101341026,0.3532992283239764,1.0010798529960994,9.066091685837819
11,28,female,85,75,75,same,catch,anti,4,2,1,1.1696616792019086,0,j,change,0.979333659823169,0,0.4991925958070169,0.035351635350252764,0.353285758223592,1.0010333490804442,7.369381885986968
11,28,female,86,75,125,change,catch,clock,3,1,2,0.665139734645436,1,j,change,1.1142495374465398,0,0.5001804031217034,0.03533271306696406,0.3533191127567079,1.0010631757295414,7.029028064952854
11,28,female,87,165,215,change,catch,clock,1,1,1,1.0320444051458253,0,j,change,0.40422261969706597,0,0.4994164560362151,0.0353574082500927,0.3532957004404125,1.0010256518808092,6.651443529653534
11,28,female,88,75,25,change,valid,anti,4,0,2,1.1142476131467447,1,j,change,1.0755528273261916,0.17665116601453246,0.4993340318542323,0.03531122505091844,0.3532880032403227,1.001061251430201,5.908403642443318
11,28,female,89,105,105,same,catch,anti,3,0,1,0.4351846061131255,0,j,change,1.270170752757167,0,0.49995301500939604,0.035345541733931896,0.3532992283239764,1.0010506677804187,6.8990890684690385
11,28,female,90,75,125,change,catch,clock,4,0,1,0.5360047748295074,0,j,change,0.860922182271679,0,0.499583228699521,0.0353054521510785,0.35333995933933693,1.0010484227632332,6.639453537296504
11,28,female,91,15,325,change,catch,anti,1,1,1,0.5743727503727314,0,j,change,4.839144238148492,0,0.5003304985189061,0.035343617433682084,0.3532921725573033,1.0010253311638735,10.66814388760531
11,28,female,92,15,15,same,valid,anti,1,0,2,0.25414261692594664,1,j,change,1.339452927934417,0.17099716385566013,0.4995983023827648,0.0353237330009506,0.3533143020067655,1.0010481020467523,5.344406717474612
11,28,female,93,15,15,same,valid,clock,2,2,1,5.019856530609104,0,f,same,1.3833965626226927,0.08825808962582854,0.49910343657529666,0.03531411150106578,0.3533146227237012,1.0010529127971495,10.136323823763632
11,28,female,94,165,165,same,catch,anti,3,0,2,0.7585875894837955,1,j,change,1.0664063088811417,0,0.4999635986591784,0.035346824600310356,0.3532828717738994,1.0010397634137007,7.087245836055445
11,28,female,95,105,155,change,valid,clock,5,1,2,11.447102116505448,1,j,change,4.4873757904460945,0.052682966383488405,0.5000376842076548,0.03533688238394461,0.35328672037394426,1.001030141913816,19.617921262135496
11,28,female,96,45,45,same,valid,clock,3,2,2,4.81468542345965,1,f,same,1.2767412749835785,0.10648759999525907,0.4998818159106122,0.035329826617271465,0.35333675217270866,1.0010378391139056,9.749314708675229
11,28,female,97,75,75,same,valid,anti,4,1,1,0.4878581483039852,0,j,change,1.5741870554261368,0.04566887989136795,0.499001769393999,0.035285247001411335,0.35333322428959946,1.0010574028301562,5.7200663113767405
11,28,female,98,75,125,change,valid,clock,1,0,2,0.5334951669606198,1,j,change,0.860836550923068,0.16549594484644747,0.5001576322388246,0.03533175091706653,0.35327100525728383,1.0010734386628428,5.0496485426474464
11,28,female,99,105,105,same,valid,clock,3,2,2,0.9699007414005791,1,f,same,1.2046416039424912,0.1017946331292795,0.500480593915654,0.03532661945064319,0.3532851167906301,1.0010596478464322,5.851708634045281
11,28,female,100,105,155,change,valid,clock,2,0,2,0.42977187103224423,1,f,same,4.508831414325414,0.16032155874573506,0.49907200634243054,0.035320525834322325,0.353302114773669,1.001054195663528,8.605252633324199
11,28,female,101,75,75,same,valid,clock,1,0,2,0.7053476616706575,1,f,same,1.1559911315430327,0.1552748809190378,0.5078625292935612,0.03532469515084813,0.35330115262331674,1.0010323869305466,5.576001670292499
11,28,female,102,135,85,change,valid,anti,3,0,2,1.5168162970244339,1,j,change,0.9560457816619419,0.15049244856581098,0.4993689899702076,0.035331750917521276,0.3532883239572584,1.001035273380694,6.145072012115634
11,28,female,103,75,75,same,valid,anti,5,2,2,0.38088535117049105,1,f,same,1.0800733286573632,0.09713428164724025,0.49909445650882844,0.03532469515084813,0.35328126819058525,1.0010772872628877,5.119218079952589
11,28,female,104,135,185,change,valid,clock,5,0,2,0.8012220587638694,1,j,change,1.278398417968674,0.14578602171789687,0.4999398656259473,0.03531122505091844,0.35332039562308637,1.0010266140307067,5.756096903897742
11,28,female,105,135,135,same,valid,anti,5,2,2,0.4421152931490724,1,f,same,0.9999323287847801,0.09290515118931149,0.5003667395012599,0.03532597801722659,0.3533149434401821,1.0010413669970148,5.108678047618014
11,28,female,106,105,55,change,valid,anti,3,2,2,0.31110895161873486,1,f,same,1.022098019349869,0.08864489864371669,0.5005639802475343,0.0353096214676043,0.35331590559007964,1.0010339905138608,5.00371261606324
11,28,female,107,15,65,change,valid,clock,3,2,2,0.8563888522739944,1,j,change,0.7869373386997722,0.0847413269498032,0.49969547953105575,0.03538755561612561,0.35329666259031,1.0010513092133806,5.32072211280456
11,28,female,108,45,45,same,valid,anti,4,2,2,0.47912984438517014,1,f,same,0.8502676540888388,0.0808108421590452,0.4995970195159316,0.03535291821708597,0.3532620251908156,1.0010654207462721,4.990452906446535
11,28,female,109,45,45,same,catch,anti,1,0,1,0.22622391090226301,0,f,same,0.77607306182108,0,0.500285918903046,0.035333995934252016,0.3532687602405531,1.0010869087627725,6.21576983063278
11,28,female,110,75,75,same,catch,clock,4,2,1,0.286500682966107,0,f,same,0.6641734153472498,0,0.5005168348984625,0.035299999967719486,0.3532915311234319,1.0010885123460866,6.1807902266086785
11,28,female,111,165,215,change,valid,clock,2,1,2,0.3121439042829479,1,j,change,0.9315295586907268,0.05719107427809386,0.5006364622126966,0.03529005775135374,0.353321037056503,1.0010715143630478,4.968027756102401
11,28,female,112,135,135,same,valid,anti,2,1,1,0.14570318250343917,0,f,same,0.401708201078236,0.05100254605073076,0.4995934916328224,0.03533463736721387,0.3532706845408029,1.0010699107797336,4.260140659913304
11,28,female,113,105,155,change,valid,clock,3,2,2,0.24701853774377014,1,j,change,0.785936061285156,0.0771174755122664,0.5001823274214985,0.03529679280154596,0.3533033976405022,1.0010862673298107,4.696477921704627
11,28,female,114,105,155,change,valid,clock,3,0,2,1.108272341042266,1,f,same,6.0839790161503515,0.1413300558936986,0.5004257513669472,0.03529262348502016,0.3533415629231058,1.00103751839697,10.8569584450629
11,28,female,115,75,75,same,valid,anti,5,0,2,0.4034904235609247,1,f,same,1.93766711342505,0.13687963968042288,0.4992487212225569,0.035302244984450226,0.3533312999898044,1.0010567613967396,6.015367138793408
11,28,female,116,135,185,change,catch,clock,5,0,2,0.5382039289715976,1,j,change,1.441941785436029,0,0.4995630235498538,0.035316997951213125,0.35330211477321427,1.001067024330041,7.157710814276925
11,28,female,117,165,115,change,catch,anti,5,1,1,0.14869001676379412,0,j,change,1.6097959055387037,0,0.5001098454563362,0.03535548395029764,0.35331109484013723,1.0012248169268787,6.992961231449044
11,28,female,118,165,215,change,valid,clock,3,2,2,0.280624191593688,1,j,change,0.8179580162645834,0.07370427625033216,0.5001015068228298,0.03533271306741881,0.35333194142276625,1.0010269347471876,4.802415766174363
11,28,female,119,75,125,change,catch,clock,4,1,2,0.1943501270197885,1,j,change,0.7379055341907588,0,0.49963197763236167,0.03532822303395733,0.3533312999898044,1.0010654207462721,6.098009728619218
11,28,female,120,15,15,same,valid,anti,5,2,1,0.22721107678398766,0,f,same,0.325003038790328,0.07020717538487783,0.49935744417052774,0.03535067320035523,0.3533130191399323,1.0010458570304763,4.272290689883903
11,28,female,121,105,55,change,catch,anti,3,2,1,0.67621953311982,0,f,same,3.6934416970784696,0,0.49959798166582914,0.03533720310042554,0.3533149434401821,1.0010481020467523,9.60763587882957
11,28,female,122,15,325,change,valid,anti,3,0,2,0.23171329726574186,1,j,change,0.8805048208523658,0.13268492800646736,0.4993731592871882,0.03539974284967684,0.3532748538573287,1.0010535542301113,4.825417565074076
11,28,female,123,135,185,change,catch,clock,1,0,1,0.24185499950772282,0,j,change,1.5813682221746603,0,0.4996508999147409,0.03532245013411739,0.35329762474020754,1.0010384805468675,7.051147251602288
11,28,female,124,165,215,change,valid,clock,5,0,1,0.07460446816048716,0,j,change,0.4260653485853254,0.12844878550692418,0.5009042606247931,0.0353272608840598,0.35327709887405945,1.0010458570304763,4.226009992889885
11,28,female,125,165,215,change,catch,clock,3,2,2,1.7071824816866865,1,j,change,1.1891990967337733,0,0.4999363377428381,0.03540070499957437,0.35323444355844913,1.0010532335136304,8.135263213766848
11,28,female,126,45,45,same,valid,clock,2,0,1,1.9859593453147681,0,j,change,0.6008456656909402,0.13238274832952757,0.5000364013412764,0.0353314302005856,0.353291210406951,1.0010657414632078,6.2984746394904505
11,28,female,127,165,165,same,valid,anti,1,2,1,0.24043999760078805,0,f,same,0.30616221784566733,0.08183441778774238,0.4999844452418074,0.035338806683739676,0.35331269842345137,1.0010538749465923,4.22577362471111
11,28,female,128,165,215,change,valid,clock,1,2,2,0.48936038514239044,1,f,same,1.0494734313506342,0.09272202256182491,0.49923236467293464,0.03535291821708597,0.35331269842345137,1.0010583649800537,5.226139241704004
11,28,female,129,45,95,change,valid,clock,5,1,1,0.5553087106327439,0,f,same,2.319016220886624,0.06113856518625227,0.49951651963419863,0.035339127400220605,0.3533258478064454,1.0010256518808092,6.6045557160205135
11,28,female,130,135,185,change,valid,clock,4,0,2,0.5208935679311253,1,j,change,0.9693475051608402,0.13605377536012608,0.49946969500160776,0.035299037817821954,0.35332841353965705,1.0010570821132205,5.202600563114174
11,28,female,131,135,135,same,valid,clock,4,2,2,1.000032071665828,1,f,same,1.7052652374886748,0.08967234685468094,0.5000261384075202,0.03533592023359233,0.35327645744064284,1.0010201996974502,6.415818451278483
11,28,female,132,75,75,same,valid,anti,3,2,2,0.7891550944077608,1,j,change,1.8668153509102012,0.08680871442243641,0.5002281899041918,0.035342334566848876,0.3533143020067655,1.001054195663528,6.369654815865488
11,28,female,133,15,15,same,valid,anti,2,1,2,0.9259372222795719,1,j,change,1.9361241455708296,0.07102779335164933,0.4993725178533168,0.03531186648433504,0.3533191127567079,1.0010567613967396,6.5564777228605635
11,28,female,134,135,85,change,catch,anti,1,0,2,1.2523244741773851,1,j,change,1.4958962699693075,0,0.49997482374237734,0.03533944811761103,0.3532838339237969,1.0010654207462721,7.9704180573739905
11,28,female,135,165,165,same,valid,anti,3,0,2,0.3418762630221863,1,f,same,2.3273333660463322,0.1322210263510503,0.500263789453129,0.035331750917521276,0.35326491164096296,1.001074721529676,6.416727041577815
11,28,female,136,135,185,change,valid,clock,5,2,2,0.2678218239348098,1,j,change,1.3118209426056637,0.08412784438718077,0.49890972371258613,0.03534490030051529,0.3532998697569383,1.0010253311638735,5.330951691411883
11,28,female,137,15,15,same,catch,anti,2,0,1,0.2089600537779006,0,j,change,0.4012415583370057,0,0.5001262020059585,0.03530032068465516,0.3533094912568231,1.0010756836795736,5.83925199894702
11,28,female,138,75,25,change,valid,anti,1,2,1,0.181572133827558,0,j,change,1.0717292432977956,0.08135803760252094,0.5002265863204229,0.03533110948410467,0.35330820839044463,1.0010535542301113,4.943975289422724
11,28,female,139,45,95,change,catch,clock,3,1,2,0.262737502714117,1,j,change,0.7140663440900425,0,0.49964705131515075,0.035316035800860845,0.3532806267576234,1.0010724765129453,6.168163611680484
11,28,female,140,165,165,same,catch,clock,2,0,1,0.1188277677770202,0,j,change,0.3247942522439189,0,0.49995333572587697,0.035328543750893004,0.3532876825238418,1.0010657414636626,5.662387985697478
11,28,female,141,75,75,same,valid,clock,1,1,1,0.232309509537572,0,j,change,1.126212910321101,0.0653456898725367,0.5002467914700901,0.035351314633771835,0.35328992754057253,1.0010131439312318,5.09697894527153
11,28,female,142,105,55,change,valid,anti,4,1,2,0.390689018051944,1,f,same,1.4819899955646179,0.0749031711830222,0.4997320412303452,0.03536414330028492,0.35325657300791136,1.0010484227632332,5.591091068457899
11,28,female,143,45,45,same,valid,clock,5,2,2,0.34886916909044885,1,f,same,1.3232426250401659,0.09061515689957396,0.4997480770630318,0.03530288641786683,0.3533136605733489,1.0010423291469124,5.415085934425406
11,28,female,144,15,15,same,valid,clock,4,0,2,0.27330800313166037,1,f,same,2.4861419934532023,0.12833343797989888,0.4992249881893258,0.035412892232670856,0.3533223199233362,1.0010195582640335,6.50933109088237
11,28,female,145,135,185,change,valid,clock,1,0,2,0.276152118477512,1,j,change,0.8872145341092619,0.124659172344622,0.5003859825010295,0.03536125685013758,0.3532876825238418,1.0010493849135855,4.86178009933883
11,28,female,146,135,135,same,valid,anti,4,2,1,0.21333398759543343,0,j,change,2.891548057627915,0.08805762110781465,0.5002358871038268,0.03533688238394461,0.3532777403070213,1.0010567613967396,6.780804915431872
11,28,female,147,15,15,same,valid,clock,2,0,2,1.9218554613398737,1,f,same,1.666498931852857,0.12098328185937314,0.5007115099115254,0.03531892225100819,0.35327838174089266,1.0010699107801884,7.3358070209365
11,28,female,148,15,65,change,valid,clock,2,1,2,0.5578519937512283,1,f,same,2.135346920815664,0.06952528368743943,0.49932408963786656,0.035282681268654414,0.35329666259031,1.0010827394462467,6.415386766653228
11,28,female,149,15,15,same,valid,anti,3,1,2,0.28034099878232155,1,j,change,5.759885529809253,0.06459926886855669,0.5001242777061634,0.03533848596725875,0.3532549694245972,1.0010968509791383,9.713929398075834
11,28,female,150,105,55,change,valid,anti,4,2,2,0.489336972826095,1,j,change,0.8333892983910118,0.09695406072494198,0.49969034806417767,0.03531956368442479,0.3533136605733489,1.0010327076474823,4.9784340495898505
11,28,female,151,75,25,change,valid,anti,4,1,1,1.4174355046816345,0,j,change,0.7012165103656116,0.059764446013239936,0.5100745121017098,0.035319563683970046,0.35331205699003476,1.001048422763688,5.884152331434052
11,28,female,152,165,115,change,valid,anti,5,1,2,0.28032464223269926,1,j,change,2.247755223912918,0.06754633119717757,0.4998083717955524,0.035333354500380665,0.3533922361552868,1.0009400205326529,6.251169573482002
11,28,female,153,75,75,same,valid,clock,3,0,2,0.200176907309924,1,j,change,0.9204212164336241,0.1173681026488204,0.49944307551868405,0.03531539436789899,0.35330435979039976,1.0010721557964644,4.790303901486368
11,28,female,154,165,115,change,valid,anti,1,0,2,0.5230163915075536,1,j,change,0.6344830704897504,0.11394484832215335,0.5000376842076548,0.03533816525032307,0.35330307692356655,1.0010141060811293,4.826714543249636
11,28,female,155,75,25,change,valid,anti,3,1,1,0.16201034182950025,0,f,same,0.3491536447686485,0.06321108432596267,0.49933178683750157,0.03532148798421986,0.3532976247406623,1.0010458570304763,4.20146650900233
11,28,female,156,15,15,same,valid,clock,5,0,2,0.20600336688312382,1,j,change,1.1710423644258299,0.11047741712301819,0.4992798307389421,0.035302244984450226,0.3532847960741492,1.0011035860288757,5.084077796881957
11,28,female,157,45,45,same,valid,clock,1,2,2,0.6778227957061063,1,j,change,1.4926765954128314,0.0946686810296334,0.5005607730809061,0.03532148798421986,0.35328639965746333,1.0010660621796887,5.886801771766841
11,28,female,158,75,25,change,valid,anti,4,2,2,0.8192697474069064,1,f,same,1.6781669246834099,0.09230167216155438,0.49992190549301085,0.03532918518385486,0.35331686773997717,1.0009592635319677,6.203704790576921
11,28,female,159,15,15,same,valid,anti,5,0,2,0.26813901271225404,1,j,change,1.470794097659109,0.10706625388521665,0.5004379386000437,0.035321808700700785,0.35328736180736087,1.00106670361356,5.391787793331332
11,28,female,160,135,135,same,valid,clock,5,2,2,0.41794576488837265,1,f,same,1.1351705266520185,0.08999499419208443,0.49992479194270345,0.03533239235048313,0.3532754952907453,1.001080494429516,5.250468486862246
11,28,female,161,75,75,same,catch,anti,3,1,1,0.0981030571674637,0,j,change,0.31882218730697787,0,0.49933852188723904,0.03534137241740609,0.35329698330679093,1.001029821197335,5.66142070424894
11,28,female,162,75,125,change,valid,clock,2,0,2,0.6092423485820291,1,j,change,1.4255438632949335,0.10382170489064846,0.49990490750997196,0.035330788767169,0.35331430200631075,1.0010327076470276,5.768337055249958
11,28,female,163,15,65,change,valid,clock,1,0,2,0.26352742784911243,1,j,change,3.5256446645416872,0.10051831990100532,0.499256097705711,0.03536446401676585,0.35331558487314396,1.0010221239972452,7.487066940301702
11,28,female,164,75,125,change,valid,clock,4,2,2,0.1303203285933705,1,j,change,1.0685236802751206,0.08778876787893249,0.49981125824524497,0.03534746603327221,0.3532626666242322,1.0010711936465668,4.896445721752116
11,28,female,165,135,85,change,catch,anti,3,0,1,0.18588096216308259,0,f,same,2.8950813930778168,0,0.5001845724382292,0.03536061541717572,0.35327677815712377,1.0010413669970148,8.347820104893799
11,28,female,166,45,95,change,valid,clock,3,0,2,0.2094462602353815,1,j,change,1.5403443919644815,0.09724230012566332,0.5000408913738283,0.03529871710088628,0.35332135777343865,1.0010166718138862,5.485690424394761
11,28,female,167,105,105,same,valid,clock,3,1,2,0.7645089811890102,1,f,same,1.7924238386131037,0.07032711796666269,0.49956334426633475,0.0353237330009506,0.3532822303404828,1.0010570821132205,6.239221274290685
11,28,female,168,15,325,change,valid,anti,4,2,1,0.32454088608255915,0,j,change,1.4944107103970055,0.08571092690179931,0.4991611655741508,0.035350352483419556,0.3533184713232913,1.001018275397655,5.544088758977523
11,28,female,169,165,215,change,valid,clock,5,1,2,0.18349194375787192,1,j,change,1.5970230438124418,0.06615431758811505,0.4996704636314462,0.0353750476665482,0.35328639965746333,1.001030141913816,5.50871948421036
11,28,female,170,75,75,same,valid,clock,3,1,1,0.1238065732159157,0,j,change,1.7933035644127813,0.06226769265149343,0.5002942575360976,0.03535420108346443,0.35330307692356655,1.0010545163800089,5.66276033774011
11,28,female,171,45,95,change,valid,clock,5,0,2,0.10307384469069802,1,j,change,0.993890347614979,0.09411845056372421,0.4999206226266324,0.03532694016757887,0.3532828717738994,1.001069269346317,4.825644953186384
11,28,female,172,135,135,same,valid,clock,3,2,2,0.5320195496046836,1,f,same,1.8862341032777294,0.09346813262045836,0.5004793110492756,0.03532661945064319,0.3533357900228111,1.0010413669970148,6.086751611681393
11,28,female,173,105,105,same,valid,clock,3,0,2,0.2127416239231934,1,f,same,1.2128529126043759,0.09093766160243504,0.5001829688549151,0.0353750476665482,0.35325240369138555,1.0010865880462916,5.096800626808545
11,28,female,174,135,85,change,valid,anti,4,2,2,0.31358809140510857,1,j,change,0.7049971183605521,0.09139732755492641,0.5005633388141177,0.03528749201859682,0.3533280928231761,1.001020520413931,4.708728015273664
11,28,female,175,105,105,same,catch,clock,2,2,2,0.2279285199538208,1,j,change,0.6285312107020218,0,0.5003487793683234,0.03532533658426473,0.3532774195909951,1.0010779286963043,6.074834101289525
11,28,female,176,165,165,same,valid,clock,3,1,2,0.4485244948955369,1,j,change,2.6647375559527973,0.0687417769500843,0.49998540739170494,0.03533014733375239,0.35326491164096296,1.0010792115631375,6.863584451271436
11,28,female,177,45,355,change,catch,anti,5,1,2,0.21800233930753166,1,j,change,1.0366717051256273,0,0.49997514445885827,0.03533656166700894,0.3533107741236563,1.0010032017144113,6.474781567900209
11,28,female,178,45,45,same,valid,anti,1,2,2,0.7200127516944121,1,f,same,1.4506409041387087,0.08936384791486292,0.4999074732436384,0.03538017913342628,0.35325464870766154,1.0010266140307067,5.874305367802663
11,28,female,179,75,25,change,valid,anti,5,2,2,0.33077754226496836,1,j,change,6.362025287226061,0.08743306753229217,0.4993709142700027,0.03533720310042554,0.35330852910692556,1.001069590062798,10.349250501200004
11,28,female,180,45,355,change,valid,anti,1,2,2,0.22754975357747753,1,j,change,1.6487559240376868,0.08560199036757984,0.4996223561320221,0.03530962146805905,0.35333322428959946,1.0010631757299961,5.579503254793053
11,28,female,181,75,75,same,valid,anti,2,2,2,0.3499535121200097,1,f,same,1.608830548390415,0.08384330546040923,0.5001553872220939,0.035336561667463684,0.3532556108575591,1.0010740800967142,5.685785548956119
11,28,female,182,165,165,same,valid,clock,5,1,2,0.22693718475557034,1,f,same,1.1387792305172297,0.06501287749093063,0.49981735186156584,0.03523361161887806,0.35330435979039976,1.0010227654306618,5.050137956271556
11,28,female,183,45,45,same,valid,clock,5,1,2,0.26830899254264295,1,f,same,1.2554434437015516,0.06148243931035119,0.49966725646436316,0.03532245013411739,0.3533053219402973,1.001056119963323,5.225792226277463
11,28,female,184,45,45,same,valid,clock,3,1,2,0.23497241997074525,1,f,same,1.0497377018791667,0.057922914846544576,0.5005960519138171,0.03528460556799473,0.3533223199233362,1.001032066213611,4.991754053939076
11,28,female,185,135,135,same,catch,anti,2,2,2,0.22907572344865912,1,f,same,0.9793243590397651,0,0.49985776216090017,0.03534201385036795,0.35330403907391883,1.0010583649800537,6.4516915719191275
11,28,female,186,165,165,same,catch,clock,1,1,1,0.22068577560685299,0,j,change,0.7487428708695916,0,0.4995354419170326,0.035347145316791284,0.3532790231738545,1.0010307833472325,6.203595426195534
11,28,female,187,135,135,same,catch,clock,2,2,2,0.18964810005854815,1,j,change,6.6926270767608,0,0.4997766208457506,0.03531892225100819,0.35329890760704075,1.0010121817808795,12.10463445196092
11,28,female,188,165,165,same,catch,anti,2,2,2,0.4830134024286963,1,j,change,1.6907512050124751,0,0.49923525112262723,0.03531443221754671,0.35330307692356655,1.0010583649800537,7.381299396379291
11,28,female,189,15,15,same,valid,clock,4,1,2,0.34929604296576144,1,f,same,0.750044980511575,0.05461465019665945,0.49936097205363694,0.035330788767169,0.3533014733402524,1.0010670243295863,4.8253251986761825
11,28,female,190,45,355,change,valid,anti,2,2,2,0.2596105152729251,1,j,change,1.5772960827343923,0.0819904039923206,0.49964095769837513,0.0353314302005856,0.35328736180736087,1.001048743480169,5.485062461173129
11,28,female,191,135,135,same,valid,anti,4,1,1,0.2248137197457254,0,f,same,0.4603570153722103,0.051293718281566564,0.49978784592894954,0.035312507917751645,0.35330852910692556,1.0010266140307067,4.402171315935448
11,28,female,192,75,25,change,valid,anti,1,1,2,0.6260068498668261,1,j,change,1.0045743817304356,0.05666948789261461,0.4997984295787319,0.03532148798421986,0.3533287342565927,1.0010519506467972,5.332657262612884
11,28,female,193,75,25,change,valid,anti,5,1,2,0.22509947829030352,1,j,change,0.9365093262804294,0.053640112981103494,0.49972594761311484,0.035338806683739676,0.3533146227237012,1.0010436120137456,4.83767054509326
11,28,female,194,105,105,same,valid,anti,5,1,1,0.15425060222560205,0,j,change,0.7790069778325233,0.05055909571304101,0.5001095247394005,0.035326298734162265,0.35327292955753364,1.00106670361356,4.649738920602431
11,28,female,195,135,135,same,valid,clock,2,1,2,0.8791699981111378,1,j,change,0.32423492238831386,0.05559673865510839,0.49961241391565636,0.03532501586732906,0.3533136605733489,1.0010278968970852,4.908386323743798
11,28,female,196,45,95,change,valid,clock,2,1,2,0.3132648090117982,1,j,change,1.8086351036572523,0.0527957807821437,0.4997942602622061,0.03532886446737393,0.35334124220617014,1.001044894880124,5.826656814250782
11,28,female,197,15,15,same,catch,anti,4,0,1,0.1295926224906907,0,f,same,0.31846715396341096,0,0.5005117034320392,0.035311225051373185,0.353326489239862,1.0010237275805594,5.686782977771145
11,28,female,198,45,95,change,valid,clock,3,2,2,0.2719709353732469,1,j,change,1.6448717245611988,0.08016267977076012,0.499891437410497,0.03536318114993264,0.35328672037394426,1.0010644585968294,5.592003828074212
11,28,female,199,15,325,change,valid,anti,3,1,2,0.3333176182168245,1,f,same,1.2100626776568788,0.04991551012193002,0.49966340786477303,0.03527690836835973,0.3533656166723631,1.0010464984634382,5.225710443528442
11,28,female,200,135,135,same,valid,anti,2,2,2,0.20382024857462966,1,j,change,1.1145901385402794,0.07838408710254996,0.5001765545216585,0.035348107466688816,0.35330371835698315,1.0010343112307964,5.00330434375428
11,28,female,201,45,45,same,valid,anti,5,0,2,0.25808935615168593,1,f,same,1.248807495276651,0.08774141593558996,0.49961722466559877,0.03536991620012486,0.35329024825705346,1.0010391219807389,5.20309254247195
11,28,female,202,105,105,same,valid,clock,5,2,2,0.31959639732531286,1,f,same,2.6683513912848866,0.07669991098004035,0.49907232705891147,0.03529967925123856,0.3533312999898044,1.001048422763688,6.686202801332001
11,28,female,203,135,185,change,valid,clock,2,1,2,0.29863114922045497,1,j,change,1.096414483949502,0.04717358495889107,0.49932280677103336,0.035332071634002205,0.3533357900228111,1.001039121980284,5.072163814373198
11,28,female,204,165,165,same,valid,clock,4,0,2,0.7774534263285204,1,j,change,1.3098280092763162,0.08468231090554905,0.5006213885299076,0.0353461831673485,0.35330179405673334,1.0010824187297658,5.827676372514816
11,28,female,205,15,15,same,catch,clock,4,2,2,0.23148366413670374,1,j,change,1.879243121509262,0,0.5002756559697445,0.03533367521731634,0.3532957004404125,1.0010519506467972,7.369757765913164
11,28,female,206,165,165,same,valid,anti,2,1,1,0.1174926243184018,0,j,change,1.1196924198939087,0.04458948067437096,0.5006034283969711,0.03533495808414955,0.35329409685709834,1.0010311040641682,4.956707099416235
11,28,female,207,75,75,same,catch,clock,4,1,2,0.17314209640289846,1,j,change,1.3604261939558455,0,0.4992423068893004,0.03530096211761702,0.35331141555661816,1.001053874947047,6.721302353386818
11,28,female,208,135,185,change,valid,clock,3,1,1,0.17374183655829256,0,j,change,1.390458743489944,0.04887854541759254,0.4998718736937917,0.035339127400220605,0.3532642702080011,1.001072797229881,5.320349760761474
11,28,female,209,165,215,change,valid,clock,3,0,1,0.043029912922065705,0,j,change,0.3358198496030127,0.08157683477318954,0.5004119605505366,0.03529037846783467,0.3533149434401821,1.001080815145997,4.107702427536424
11,28,female,210,135,135,same,valid,anti,3,2,1,0.7626937248901413,0,j,change,1.6743292291221223,0.07508747345153866,0.5001011861063489,0.03531796010065591,0.3532694016739697,1.0010891537795032,6.169321078108169
11,28,female,211,45,45,same,valid,anti,3,0,1,0.4581415046809525,0,j,change,1.195100283289321,0.08442000871391572,0.4996326190648688,0.035337523817361216,0.3533040390734641,1.001056119963323,5.367756173234284
11,28,female,212,45,45,same,catch,clock,4,1,2,0.3657106423734149,1,f,same,1.4677527415660734,0,0.4998709115438942,0.035318280817591585,0.35333386572301606,1.0010497056300665,7.075815814987436
11,28,female,213,15,15,same,catch,anti,5,1,1,0.19016124671543366,0,f,same,2.2669658311679086,0,0.5000142718913594,0.035344579583579616,0.3533085291064708,1.0010275761806042,7.711050645330033
11,28,female,214,135,135,same,catch,clock,4,2,2,0.3162077050892549,1,f,same,1.1591036867343973,0,0.5003061240522584,0.035304810717661894,0.3532918518403676,1.0010381598303866,6.6634338427275
11,28,female,215,45,355,change,valid,anti,3,2,1,0.32376026173051287,0,f,same,0.5213303840232584,0.08130095851206465,0.5006605159624087,0.03531347006764918,0.353318792040227,1.0010481020467523,4.556035454585071
11,28,female,216,135,135,same,valid,clock,1,2,1,0.19039023841105518,0,f,same,0.5103237089469985,0.08699723007319068,0.4993449362204956,0.035330788767169,0.35330917054034217,1.0010522713637329,4.425090049220671
11,28,female,217,15,325,change,catch,anti,5,1,1,0.1816814982089454,0,f,same,0.28880920148958467,0,0.4994940694678007,0.0353272608840598,0.35327004310784105,1.0010641378798937,5.697166179658325
11,28,female,218,135,85,change,valid,anti,3,1,1,0.200560163719274,0,f,same,0.7049567080616725,0.05340124374795796,0.5001332577726316,0.03533046805068807,0.35327228812411704,1.0010580442635728,4.661750400975961
11,28,female,219,135,85,change,valid,anti,3,2,2,0.3166628020308053,1,j,change,0.8835205196123752,0.09285618339198556,0.4991566755406893,0.035350352483419556,0.35331141555661816,1.0010394426972198,4.896200373506417
11,28,female,220,165,165,same,catch,anti,4,2,2,0.2714927468323367,1,f,same,1.0077895662534502,0,0.49928432077194884,0.03531988440090572,0.3533155848735987,1.0010590064134703,6.486154180685844
11,28,female,221,135,135,same,valid,anti,5,1,1,0.18821128941908682,0,j,change,0.8195571095347987,0.05762728398181016,0.5002586579867057,0.035351635350252764,0.3533040390734641,1.0010644585968294,4.744026411658524
11,28,female,222,105,155,change,valid,clock,5,2,2,0.7749752486915895,1,f,same,1.2854246785695977,0.09128842436351704,0.4998083717955524,0.035343296717201156,0.35332680995679766,1.0010214825638286,5.768526278079662
11,28,female,223,165,165,same,valid,anti,3,1,1,0.25193031340086236,0,j,change,2.000557084839329,0.06211810059767206,0.4990822692752772,0.035330788767169,0.353304359789945,1.0010532335136304,5.9441407792196514
11,28,female,224,45,95,change,valid,clock,2,0,2,0.2158256353318393,1,j,change,1.1964540283133829,0.08711361055731887,0.4993548784368613,0.03532694016712412,0.3532896068240916,1.0010981338455167,5.108052008696177
11,28,female,225,105,105,same,valid,clock,4,2,2,0.23908272469316216,1,j,change,0.658150997894154,0.08972942343224224,0.500250640070135,0.03531763938417498,0.3532924932737842,1.001067024330041,4.578779076573483
11,28,female,226,15,65,change,catch,clock,3,1,2,0.37462239622163906,1,j,change,2.2545351741187005,0,0.5003952832839786,0.035302244984450226,0.35328543750711106,1.001074721529676,7.864801250281744
11,28,female,227,75,125,change,valid,clock,1,2,2,0.29573026702564675,1,f,same,2.092957479064353,0.08822828163135937,0.5004472393829928,0.03531892225100819,0.3533316207062853,1.0010583649800537,6.1338915086098496
11,28,female,228,45,95,change,catch,clock,3,1,2,0.30271900377692873,1,j,change,1.0422727008867696,0,0.49952004751730783,0.035324053717431525,0.35326555307437957,1.001068948629836,6.5211976073255755
11,28,female,229,165,115,change,valid,anti,3,1,1,0.10665272190635733,0,j,change,0.7404407993926725,0.06632181300058634,0.5003872653678627,0.03531924296748912,0.3532985868905598,1.0010593271299513,4.614599599681696
11,28,female,230,75,75,same,valid,clock,2,1,1,0.1771513753774343,0,j,change,0.8075097088949406,0.07075768790834758,0.4994828443850565,0.035303207134802506,0.35331269842345137,1.0010869087627725,4.719190434176653
11,28,female,231,45,45,same,catch,anti,2,0,1,0.695913139665663,0,j,change,1.935587265880713,0,0.49985423427779097,0.0353096214676043,0.3533232820732337,1.0010349526637583,7.841120814928217
11,28,female,232,105,105,same,valid,anti,1,1,2,0.7625481195259454,1,j,change,3.703429134607177,0.07498039587927391,0.5000453814072898,0.03532918518385486,0.3533178298898747,1.0010420084304315,8.146906511413817
11,28,female,233,165,215,change,catch,clock,5,2,1,0.29056320090649024,0,f,same,0.36920068107383486,0,0.5005357571817513,0.035359332550342515,0.353294417574034,1.0010307833472325,5.921796128757251
11,28,female,234,75,75,same,valid,clock,3,2,2,1.1277780076247836,1,j,change,1.8911288809522375,0.08680024008654191,0.49976122644602583,0.0353574082500927,0.35327132597376476,1.0010516299303163,6.745235513468742
11,28,female,235,45,355,change,valid,anti,4,0,1,0.23236595566959295,0,f,same,0.821463128648702,0.08425859014235328,0.5001903453380692,0.03531699795075838,0.3533300171229712,1.0010266140307067,4.791497288180381
11,28,female,236,135,135,same,valid,anti,1,0,1,0.20112847364180197,0,f,same,0.2998238944815057,0.08686764787821126,0.49904153825946196,0.03531411150106578,0.35330917054034217,1.0010404048471173,4.248120840905813
11,28,female,237,45,95,change,valid,clock,5,2,2,0.7930687998173198,1,j,change,0.8969845257420275,0.08542864259180451,0.4995999059656242,0.03532822303395733,0.35329024825705346,1.0010115403474629,5.426255212848446
11,28,female,238,15,15,same,catch,clock,5,0,1,0.2538039401324568,0,j,change,0.43985391997512124,0,0.49968810304744693,0.03532694016757887,0.3533062840901948,1.001040725564053,5.933242827091362
11,28,female,239,15,15,same,valid,anti,5,1,2,0.2616717612509092,1,f,same,1.1784496364193728,0.07251396904879065,0.4999623157923452,0.03536542616711813,0.35331301914038704,1.0010593271299513,5.155994017992725
11,28,female,240,75,75,same,valid,anti,2,0,1,5.0648216478612085,0,j,change,1.095316029386595,0.08963026510398733,0.49958226654962345,0.03533239235048313,0.35329281399026513,1.0010590064134703,9.93740989866319
11,28,female,241,105,105,same,valid,anti,3,2,2,0.21366817435546182,1,j,change,1.0662497991511373,0.0840987394012324,0.4991496197740162,0.03531571508437992,0.35331494343972736,1.0010625342965795,4.990182863018163
11,28,female,242,105,105,same,valid,anti,1,2,2,0.740822772935644,1,j,change,1.2551897568232562,0.08268862074700667,0.500095413206509,0.035351635350252764,0.35328319249083506,1.0010580442635728,5.721751356711593
11,28,female,243,45,95,change,catch,clock,3,0,1,0.22909977719837116,0,j,change,0.5908800368952143,0,0.49957200361632204,0.0353019242679693,0.35330435979039976,1.0010734386628428,6.073683049194187
11,28,female,244,15,325,change,valid,anti,2,1,1,0.16130476517582792,0,j,change,0.40358375210917075,0.07007732478971146,0.500762503860642,0.03532245013411739,0.35330500122381636,1.0010497056300665,4.331959703875782
11,28,female,245,75,75,same,valid,anti,3,1,1,0.14600625974799186,0,j,change,0.71748582512555,0.07411003956244741,0.5005194006316742,0.03524387455217948,0.3533566366058949,1.0011083967788181,4.578809865372932
11,28,female,246,75,25,change,valid,anti,3,2,1,0.20206945632435236,0,j,change,0.83579467334539,0.08129352052516169,0.5000768116401559,0.03531796010111066,0.353285758223592,1.0010724765129453,4.7791731090624125
11,28,female,247,75,125,change,valid,clock,3,1,2,0.2690068719957708,1,j,change,1.0912884695626417,0.07792005469678684,0.49980644749530256,0.035316035800860845,0.35330788767350896,1.0010554785299064,5.037492739776553
11,28,female,248,105,155,change,valid,clock,4,0,2,0.6546494133931446,1,f,same,1.702952228932645,0.09229044907312031,0.5005450579647004,0.035280115534988,0.3533348278729136,1.0010481020467523,6.098765016355173
11,28,female,249,45,45,same,valid,anti,2,1,2,0.2799712124724465,1,f,same,0.9991860211152925,0.07568549996355664,0.5000027260912248,0.03533688238394461,0.3533207163395673,1.0010381598303866,5.037799665621151
11,28,female,250,105,105,same,catch,clock,1,0,2,0.26760918878881057,1,j,change,1.345684131933922,0,0.5004587851831275,0.03530801788474491,0.3533284135401118,1.0010343112307964,6.816797663386751
11,28,female,251,15,15,same,valid,anti,4,0,2,1.6283952268381654,1,f,same,0.9322351353439444,0.08951581839380261,0.5029244548700262,0.035356125383259496,0.3533033976405022,1.0010179546807194,6.301319075553238
11,28,female,252,135,85,change,valid,anti,1,2,2,0.2377870293844353,1,j,change,0.8837851108573886,0.08607422867040601,0.49933499400412984,0.03536253971697079,0.3532937761406174,1.0010631757299961,4.790075551223708
11,28,female,253,105,105,same,catch,anti,3,1,2,0.17262221469582073,1,j,change,0.7406354744057353,0,0.49955340205042376,0.03533624095052801,0.353302114773669,1.001046498463893,6.13312884439074
11,28,female,254,135,135,same,valid,anti,1,1,1,0.2887848270233917,0,f,same,0.4454254098036472,0.07354047836223312,0.49985295141095776,0.035333354500380665,0.35334124220617014,1.0010048052977254,4.484664451797471
11,28,female,255,135,135,same,valid,anti,2,0,2,0.5568112681871753,1,j,change,1.516853179440659,0.08681166578212966,0.49999983964153216,0.0353131493507135,0.35332392350619557,1.001056119963323,5.803807035048521
11,28,female,256,75,75,same,catch,anti,1,1,1,0.15868707579193142,0,j,change,0.5951526242479304,0,0.4994623185184537,0.035319884400450974,0.353326489239862,1.0010349526637583,6.015276055262348
11,28,female,257,75,25,change,catch,anti,3,1,2,0.10128360429098393,1,j,change,0.9304067296616267,0,0.4999754651753392,0.03533848596725875,0.3533040390734641,1.0010384805473223,6.2278307013716585
11,28,female,258,45,95,change,valid,clock,1,0,1,0.18267796487316446,0,j,change,0.725319329560989,0.08421645899192093,0.49961048961540655,0.0353272608840598,0.35330788767350896,1.0010519506467972,4.660459837133658
11,28,female,259,15,65,change,catch,clock,1,1,2,0.5873511914783194,1,j,change,4.986205655710364,0,0.49985615857758603,0.03533976883363721,0.35330660480667575,1.001053874947047,10.844226955786326
11,28,female,260,45,45,same,valid,clock,1,0,1,0.10684579333565125,0,j,change,0.34052315943108624,0.08658954315684456,0.4997990710121485,0.03530641430097603,0.3533409214896892,1.0010577235466371,4.213507495308477
11,28,female,261,105,55,change,catch,anti,4,0,2,0.24019240433926825,1,f,same,0.8211263761554619,0,0.5000457021242255,0.03533976883363721,0.3532370092916608,1.0010817772963492,6.274669124638876
11,28,female,262,105,155,change,valid,clock,4,2,1,0.15301905024898588,0,j,change,0.3355844435745894,0.08482432749473726,0.4998988138936511,0.03532116726773893,0.35334348722244613,1.0010125024978151,4.249411725465507
11,28,female,263,15,65,change,catch,clock,5,0,2,0.5621034138039249,1,j,change,1.6819876222612038,0,0.49914031899106703,0.03531667723427745,0.3532863996570086,1.0010683071964195,7.4982868919573775
11,28,female,264,105,105,same,valid,clock,2,2,2,0.2111412477865997,1,f,same,1.7491059221292744,0.089351270712966,0.5007589759775328,0.035296472084610286,0.35332905497307365,1.0010137853641936,5.662981632236097
11,28,female,265,15,15,same,valid,clock,2,1,2,0.20439112423082406,1,f,same,1.016449236806693,0.07715436812696963,0.49949952165115974,0.035346824600310356,0.35329666259031,1.0010497056300665,4.908062720633097
11,28,female,266,135,135,same,valid,clock,4,0,2,0.22388845217983544,1,j,change,0.8269419313619437,0.08910823165946133,0.49954730843364814,0.03536093613365665,0.35326459092448204,1.0010756836795736,4.743132895041981
11,28,female,267,45,355,change,valid,anti,4,1,2,0.1559706056768846,1,j,change,0.8123631141206715,0.07505656081847986,0.49984268847765634,0.03533688238394461,0.3532658737908605,1.0010727972294262,4.649324554676696
11,28,female,268,135,185,change,valid,clock,5,1,2,0.10094524821397499,1,j,change,0.9242431968782512,0.07302742047249888,0.500067510856752,0.03531571508437992,0.3532668359412128,1.001056119963323,4.73165733220867
11,28,female,269,15,15,same,valid,clock,3,1,1,0.18806921193800008,0,f,same,0.4222780055401927,0.0709238733744941,0.5003837374847535,0.035298717101341026,0.3533143020067655,1.00109364381251,4.296719036490231
11,28,female,270,105,155,change,valid,clock,1,1,2,0.12785497962295267,1,f,same,0.864600802368841,0.07439409219023546,0.4998590450277334,0.03536382258334925,0.3533216784899196,1.0010105781975653,4.696632186418356
11,28,female,271,105,55,change,catch,anti,4,2,2,0.14028531595567983,1,f,same,0.7934100423444761,0,0.5000309491579173,0.03531443221800146,0.35332488565654785,1.0010227654306618,6.168871754066913
11,28,female,272,165,165,same,valid,anti,3,2,1,0.359484569840788,0,f,same,0.37532380355833084,0.08806450003516085,0.49990041747696523,0.03535772896702838,0.35330820839044463,1.0010201996974502,4.519638603637759
11,28,female,273,15,65,change,valid,clock,4,0,1,0.10936566413829496,0,f,same,0.3422235991656635,0.08656621555968134,0.5001614808388695,0.03532341228401492,0.35327228812411704,1.0010567613967396,4.1665330881774025
11,28,female,274,135,85,change,valid,anti,1,1,2,0.17093139646158306,1,j,change,0.8235237331932694,0.07236979725247555,0.4998154275617708,0.035320525834322325,0.35332969640649026,1.0010638171634128,4.684223658819064
11,28,female,275,45,45,same,valid,anti,1,0,2,0.24173473076007213,1,f,same,2.845566589277496,0.0890126503075376,0.5006104841636443,0.035286529867789795,0.35334220435606767,1.0010452155970597,6.816862448152278
11,28,female,276,135,135,same,valid,clock,2,2,2,0.17151670436714994,1,f,same,1.7763774219320112,0.0927781060335809,0.5003375542851245,0.03533046805068807,0.35329153112388667,1.001086267329356,5.650742122316842
11,28,female,277,15,65,change,valid,clock,1,1,1,0.13534692081520916,0,j,change,0.3228128647151607,0.07035468643227868,0.5001393513889525,0.03535355965004783,0.35328062675716865,1.0010586856965347,4.154634820785304
11,28,female,278,15,325,change,valid,anti,4,1,2,0.12804548531994442,1,j,change,0.49491872558746763,0.07370101870997653,0.5004408250497363,0.03530288641786683,0.3533293756895546,1.0010442534467074,4.331686773997717
11,28,female,279,45,45,same,valid,anti,5,1,1,1.0137500853907113,0,j,change,0.3835177935206957,0.07176746334926207,0.5001152976396952,0.035330788767169,0.3532710052577386,1.0010798529960994,5.120507040211578
11,28,female,280,135,135,same,valid,anti,3,1,1,0.13804960011475487,0,j,change,0.33936857945309384,0.07493934961910062,0.5000944510566114,0.035379858416490606,0.35328704109087994,1.00103174549713,4.213550150624542
11,28,female,281,45,45,same,valid,clock,4,0,2,0.17980402287730612,1,j,change,1.6366520772658077,0.08654256312179576,0.500390472534491,0.03531956368442479,0.3533216784899196,1.0010814565798682,5.544758094647932
11,28,female,282,105,105,same,valid,anti,1,0,1,0.2024863879832992,0,f,same,0.40656834135279496,0.08416356318128361,0.5001634051386645,0.03524964745201942,0.3533765210386264,1.00103751839697,4.319550214126593
11,28,female,283,135,135,same,valid,clock,2,0,1,0.16946732490578142,0,f,same,0.4885258803915349,0.08634111732909851,0.5003128591024506,0.035312507917751645,0.3533245649400669,1.0010227654311166,4.367598701353927
11,28,female,284,165,165,same,valid,clock,2,2,2,0.134367452134029,1,j,change,1.204008509254436,0.09151756984831415,0.4995848322828351,0.0353054521510785,0.3533133398564132,1.001039121980284,5.025672406532522
11,28,female,285,165,215,change,valid,clock,1,1,2,0.13709386446589633,1,j,change,0.8450916079036688,0.07800261114042115,0.500435372866832,0.035320525834322325,0.3532841546407326,1.0010753629630926,4.661783755508623
11,28,female,286,135,135,same,valid,clock,5,1,1,0.22750068392861067,0,f,same,0.3905501477379403,0.07618851085890656,0.49991484972679245,0.03533463736721387,0.35330179405673334,1.001055799246842,4.3316017840825225
11,28,female,287,15,65,change,catch,clock,4,1,1,0.02077025237485941,0,j,change,0.38934104592726726,0,0.49975994357964737,0.03531347006764918,0.3533120569904895,1.0010144267976102,5.614758675144913
11,28,female,288,165,165,same,valid,clock,1,2,2,0.07833632722349648,1,f,same,1.860311537749567,0.09025744045666392,0.5006319721796899,0.035305772867559426,0.35332071634002205,1.0010388012638032,5.627912548263794
11,28,female,289,105,105,same,valid,anti,2,2,1,0.1479042609453245,0,j,change,1.0331114294758663,0.08901264349095069,0.4991958029736452,0.035308980034642445,0.3533393179059203,1.001035594097175,4.89611249714153
11,28,female,290,15,325,change,valid,anti,4,0,1,1.8423777035213789,0,f,same,1.4460998769409343,0.0886556484243887,0.4999924631583781,0.03531539436744424,0.3533271306732786,1.0010375183974247,7.004806580592685
11,28,female,291,45,45,same,valid,anti,1,1,2,0.24926644081824634,1,j,change,0.9405538840874215,0.07942728575594796,0.5000748873403609,0.03535837040044498,0.3532790231738545,1.0010695900637074,4.908601203906528
11,28,female,292,45,355,change,valid,anti,5,0,2,0.21229999708157266,1,j,change,1.9414746616193952,0.09096072088297898,0.4999530150089413,0.03533143020104035,0.35327004310784105,1.0010772872637972,5.838497994077443
11,28,female,293,165,165,same,valid,anti,5,1,1,0.25225872726150556,0,j,change,1.347010295326072,0.07761113341269363,0.5004401836167744,0.035355804667233315,0.35330083190729056,1.0010400841301816,5.309862646675356
11,28,female,294,15,325,change,valid,anti,5,2,2,0.15235131816189096,1,j,change,1.3798940159722406,0.09341707717387102,0.49973813484666607,0.035332071634002205,0.3533033976400475,1.001065100030246,5.249616984127897
11,28,female,295,105,105,same,valid,clock,2,0,2,0.18519687352545589,1,j,change,1.581884896714655,0.08857540313392559,0.5003032376025658,0.03535452180040011,0.3532437443409435,1.0010801737125803,5.462670665361657
11,28,female,296,75,25,change,valid,anti,2,0,1,0.21512390727821185,0,j,change,1.4096802551111978,0.08630281202330561,0.49986513864496374,0.035310583617501834,0.35332071634002205,1.0010307833472325,5.391774964665274
11,28,female,297,105,55,change,valid,anti,5,2,2,4.309940260107396,1,j,change,2.1714487124345396,0.09223425036148937,0.4995819458326878,0.03531924296748912,0.35330243549014995,1.0010471398973095,10.242786360690843
11,28,female,298,105,155,change,valid,clock,1,0,1,0.12920006529748207,0,j,change,0.47107312115349487,0.08849815272700304,0.5003423650350669,0.035318922251462936,0.3533146227227917,1.0010323869300919,4.367521729355758
11,28,female,299,165,165,same,catch,anti,3,2,2,0.7068803665915766,1,f,same,1.09679485390825,0,0.4997711686628463,0.035378896266593074,0.3532957004399577,1.001058044263118,7.01686231986514
11,28,female,300,45,45,same,catch,anti,3,2,1,0.3039418964044671,0,f,same,0.40102507459050685,0,0.5000694351565471,0.035360615416720975,0.35328575822404673,1.001035273380694,6.00410389039007
11,28,female,301,105,105,same,valid,clock,1,2,2,0.3483714168332881,1,j,change,2.849500179120696,0.09105600709250941,0.502453963528751,0.03527530478550034,0.3533422043556129,1.001052592079759,6.889589761697607
11,28,female,302,105,105,same,valid,anti,4,1,2,0.27413320709911204,1,j,change,3.0357143658939094,0.08080434351777521,0.5000873952894835,0.03529615136721986,0.35331077412320155,1.001020841130412,7.040768860465505
11,28,female,303,75,75,same,catch,clock,2,0,1,0.20796551141393138,0,f,same,0.3716038110114823,0,0.49908996647536696,0.03539974284922209,0.3532315571083018,1.001033669796925,5.814183181169028
11,28,female,304,15,65,change,valid,clock,4,2,1,0.16517260810269363,0,j,change,0.5077121131789681,0.08987285771413485,0.5001380685216645,0.03526953188520565,0.3533547123060998,1.001033669796925,4.378432510149651
11,28,female,305,75,25,change,valid,anti,3,0,2,0.15943851492829708,1,j,change,1.606993804074591,0.09069627193188652,0.49976828221224423,0.03529967925078381,0.3533537501552928,1.0010407255631435,5.474111270079447
11,28,female,306,165,215,change,valid,clock,1,0,2,0.2166139568835206,1,f,same,1.3064168668734055,0.08842375531032542,0.49949952165115974,0.03533335450083541,0.3533069255236114,1.00101635109786,5.190596779940279
11,28,female,307,45,45,same,valid,clock,2,2,2,0.16678260573917214,1,j,change,1.2454742870231712,0.09398150724079621,0.5001496143222539,0.035336882383489865,0.3532710052568291,1.0010663828970792,5.0976149264106425
11,28,female,308,135,185,change,valid,clock,4,1,1,0.04846702247050416,0,j,change,1.4803120059959838,0.07897758298197864,0.4994959937685053,0.03532918518430961,0.35329698330679093,1.0010330283639632,5.273586385193084
11,28,female,309,105,105,same,valid,anti,3,1,2,0.2791094468057054,1,f,same,3.358507346175429,0.08208089978349307,0.4996111310492779,0.035345862450412824,0.3533101326902397,1.0010532335136304,7.357736343323268
11,28,female,310,75,75,same,valid,clock,4,2,2,0.23328288460197655,1,f,same,1.1183867823683613,0.09286593795969025,0.50007456662388,0.035325978017681336,0.35331815060635563,1.0010339905138608,5.026599277681271
11,28,female,311,15,15,same,catch,anti,3,1,2,0.39951770628613303,1,j,change,1.323217929857492,0,0.49945141415173566,0.035299037817821954,0.3533325828566376,1.0010497056300665,6.957266749988776
11,28,female,312,165,115,change,valid,anti,4,1,1,0.07940591728674917,0,j,change,0.5892158381429908,0.08030636410081239,0.49983819844510435,0.035356125383259496,0.3532738917074312,1.0010240482970403,4.3665117925911545
11,28,female,313,15,15,same,valid,anti,3,0,1,0.00441017479988659,0,j,change,0.32876440378549887,0.0862642539403761,0.4996909894971395,0.035329826617271465,0.35333771432306094,1.0010234068640784,4.037101786168023
11,28,female,314,75,125,change,valid,clock,2,2,2,0.25487417162912607,1,f,same,1.154049192162347,0.091758250374544,0.4991553926738561,0.03535420108346443,0.353278061023957,1.0011715779610313,5.084151561713952
11,28,female,315,105,55,change,valid,anti,5,0,2,0.18950602257791616,1,j,change,0.7161500402344245,0.08835207476892756,0.5003401200183362,0.03532341228401492,0.3532918518403676,1.0010622135796439,4.602674392089284
11,28,female,316,105,155,change,valid,clock,1,2,2,0.2086980282656441,1,f,same,1.0439266367056916,0.09064955471708806,0.5001053554233295,0.03534297600072023,0.35326843952407216,1.0010349526637583,4.955716405651401
11,28,female,317,105,55,change,catch,anti,4,1,2,0.1889470134383373,1,j,change,0.7198668256132805,0,0.49984268847765634,0.03536414329937543,0.35329698330679093,1.00104329129681,6.1804313446655215
11,28,female,318,75,25,change,valid,anti,1,0,2,0.1653457950997108,1,j,change,3.9998085321531107,0.08624508167186265,0.5002724488031163,0.035365426166208636,0.35331654702258675,1.0010295004803993,7.912051473741485
11,28,female,319,105,105,same,valid,clock,5,1,2,0.11882937136033433,1,j,change,0.9763618992456031,0.08326390560951297,0.49988919239331153,0.0353054521510785,0.35327581600722624,1.001074400813195,4.8265253204199325
11,28,female,320,165,165,same,valid,anti,1,1,2,0.14613999859557225,1,j,change,1.3141442140949948,0.08155904027005081,0.4990319167600319,0.03533239235093788,0.35329505900699587,1.001050667779964,5.155146363858876
11,28,female,321,75,75,same,valid,anti,2,1,1,0.1324774688528123,0,f,same,0.29077038386822096,0.07984310933199648,0.4997535292459361,0.035359973982849624,0.3533159055905344,1.0010509884968997,4.119579206912022
11,28,female,322,75,125,change,catch,clock,1,1,1,0.13058876843842881,0,f,same,0.3358740507183029,0,0.49979875029566756,0.0352942270674248,0.3533380350390871,1.0010679864799386,5.720740778514482
11,28,female,323,75,125,change,valid,clock,3,2,1,0.41945569892595813,0,f,same,1.4775852729471808,0.08953715700399102,0.500472896716019,0.035329826617271465,0.35329922832443117,1.00103174549713,5.650847958815575
11,28,female,324,165,165,same,valid,anti,4,1,2,0.2404018323186392,1,j,change,1.3765406025686389,0.08271889682839494,0.49968104728031904,0.035369916199670115,0.35325753515735414,1.0010551578134255,5.273185810084215
11,28,female,325,165,115,change,valid,anti,1,1,2,0.40408471153386927,1,f,same,3.1010719312944275,0.08107253699823586,0.499760585013064,0.03532565730074566,0.35329505900699587,1.0010327076470276,7.193246220273977
11,28,female,326,45,95,change,valid,clock,4,2,2,1.2003051939736906,1,j,change,0.856877624464687,0.09342729782411714,0.499542497683251,0.03535259749969555,0.35329698330679093,1.0010673450469767,5.720339561971741
11,28,female,327,15,15,same,catch,anti,1,1,2,0.32315506939175975,1,f,same,1.3782201957201323,0,0.5005716774467146,0.03529583065119368,0.3533242442226765,1.001061572146682,6.969814468619006
11,28,female,328,45,45,same,catch,anti,1,2,1,0.45218996560925007,0,j,change,2.299359176040525,0,0.5004116398331462,0.035318280817591585,0.3533438079393818,1.0010157096648982,8.041822414695162
11,28,female,329,105,105,same,valid,anti,5,0,2,0.24247879341237422,1,j,change,3.6339186091672673,0.08420654210116642,0.5001618015558051,0.035327260884514544,0.3532921725573033,1.001024369013976,7.593928128037987
11,28,female,330,15,15,same,valid,anti,2,2,2,0.7595927154980018,1,f,same,2.5167829424917727,0.09238096136240717,0.4994905415842368,0.035334637366759125,0.35324887580736686,1.0010676657630029,6.99316296222878
11,28,female,331,105,155,change,catch,clock,5,1,2,0.5529331623274629,1,f,same,5.005975592820505,0,0.4991890679239077,0.035310583617501834,0.3533056426567782,1.0010522713637329,10.796485073686199
11,28,female,332,15,65,change,valid,clock,3,0,1,0.11588647528242291,0,j,change,1.0682122643975163,0.0821223920612209,0.49996071220903104,0.03532597801677184,0.35331237770697044,1.0010497056300665,4.931720064387264
11,28,female,333,45,355,change,valid,anti,2,1,1,0.18297558993435814,0,j,change,1.974538304312773,0.07941870405016074,0.5001787995379345,0.03532020511738665,0.35331782988941995,1.0010253311638735,5.874431730167089
11,28,female,334,135,135,same,valid,anti,1,2,2,0.32241228960629087,1,f,same,2.324182645572364,0.09133704465883555,0.49959220876553445,0.03531026290147565,0.353288965390675,1.0010702314957598,6.3802304477494545
11,28,female,335,135,135,same,valid,clock,4,1,1,0.4722325118818844,0,j,change,0.9904814502287991,0.08221177481486674,0.5000582100738029,0.035325978017681336,0.35330115262331674,1.0010557992463873,5.238621854852681
11,28,female,336,105,155,change,valid,clock,2,2,1,0.11624599865808705,0,j,change,1.4029673346876734,0.09028780340857932,0.49955147775017394,0.035303848567309615,0.3533143020067655,1.0010564406802587,5.296373624646549
11,28,female,337,15,325,change,catch,anti,1,2,1,0.21947859809642978,0,j,change,0.7350386479611188,0,0.5005447372486742,0.03534105170092516,0.35332488565654785,1.0010246897300021,6.180835126941929
11,28,female,338,75,25,change,catch,anti,2,1,1,0.7115576983705978,0,j,change,1.8126187252983073,0,0.5005758467641499,0.03533944811715628,0.3532735709904955,1.0010538749465923,7.806018697139734
11,28,female,339,165,165,same,valid,clock,1,1,1,0.14605725369710854,0,j,change,0.3390481835085666,0.08482154346407192,0.5006768725115762,0.03524323311921762,0.35331205699003476,1.0010817772963492,4.225942642390692
11,28,female,340,75,75,same,valid,clock,4,0,1,0.12986394878589635,0,j,change,0.5543407877512436,0.08402073019292852,0.49967367079807445,0.03533784453429689,0.3532735709904955,1.0010679864799386,4.378083891139795
11,28,female,341,105,105,same,valid,anti,4,2,1,0.265783669557095,0,j,change,0.9600335726199773,0.09392981770994767,0.49980003316250077,0.035337523817361216,0.3532668359403033,1.001073117946362,4.932189914295122
11,28,female,342,165,165,same,valid,anti,4,0,2,0.25175680568827374,1,f,same,1.087675275663969,0.08584884852797843,0.4998786087444387,0.035351314633771835,0.35328575822404673,1.0010388012633484,5.061797610468602
11,28,female,343,105,105,same,valid,clock,4,0,2,0.14921823710392346,1,j,change,3.0603242381293967,0.08390225247510123,0.49990266249369597,0.03535484251642629,0.3532847960741492,1.0010740800962594,6.922833967871156
11,28,female,344,15,15,same,valid,anti,4,1,2,0.9741851952703655,1,f,same,0.8733056939709058,0.08735310993213516,0.49961465893193235,0.035336882383489865,0.35329698330679093,1.0010218032803095,5.579696967655764
11,28,female,345,45,45,same,valid,anti,3,1,1,0.1136337614580043,0,j,change,0.6158189644247614,0.08586019632349175,0.49987925017740054,0.03529967925078381,0.3533351485893945,1.0010291797643731,4.43769710043216
11,28,female,346,135,135,same,valid,clock,3,0,2,0.7376200963626616,1,f,same,1.7049470865622425,0.08190400536472342,0.4996531449314716,0.0353574082500927,0.3532992283235217,1.0010557992472968,6.180638527627707
11,28,female,347,135,85,change,valid,anti,4,0,2,0.17594516001645388,1,j,change,0.8535412090441241,0.07986558551545857,0.4992172909896908,0.03531924296748912,0.35330083190638106,1.0010570821132205,4.719303647158085
11,28,female,348,135,85,change,valid,anti,1,0,2,0.27747988545252156,1,j,change,3.9068401487229494,0.07785508422456168,0.5002695623534237,0.03530384856821911,0.35329409685709834,1.0010708729296312,7.829902787572792
11,28,female,349,45,45,same,valid,anti,3,2,2,0.16679543440659472,1,f,same,0.9386266976734987,0.09733338556099977,0.49958964303277753,0.03534490030051529,0.3533168677395224,1.0010590064130156,4.790555984781349
11,28,female,350,165,115,change,valid,anti,2,1,1,0.10166301210028905,0,j,change,0.31235365297925455,0.0885450328967429,0.499452055585607,0.035305772868014174,0.35331654702349624,1.0010198789805145,4.166188638483618
11,28,female,351,105,155,change,valid,clock,5,0,2,0.23320013970351283,1,f,same,0.765689218499574,0.0759410067456605,0.5109981760842857,0.0353125079172969,0.35331333985686797,1.0010330283639632,4.731343029880918
11,28,female,352,105,105,same,valid,anti,2,0,1,0.15430319975803286,0,j,change,0.34642274240377446,0.07407825732793227,0.4996508999147409,0.035356125383259496,0.35330788767350896,1.0010609307137202,4.236459903841933
11,28,female,353,165,165,same,valid,clock,2,1,2,0.17457313414251985,1,j,change,2.6187647469523654,0.09128091116240158,0.5000553236232008,0.035362539717425534,0.35327549529120006,1.0010708729305406,6.498293306290179
11,28,female,354,45,95,change,valid,clock,2,2,1,0.16587722260646842,0,j,change,0.3498832751711234,0.09639783417478746,0.5002310763538844,0.03529262348456541,0.35331333985686797,1.001078570129721,4.213519041108157
11,28,female,355,135,85,change,valid,anti,4,1,1,0.06107150794923655,0,j,change,0.2847845281148693,0.08970918092847696,0.50050817554893,0.03533559951756615,0.35326138375785376,1.0010817772963492,4.037652135956705
11,28,female,356,15,65,change,valid,clock,1,2,2,0.2591457968319446,1,j,change,0.6167705307570941,0.10003474546217155,0.49993120627641474,0.03536895405068208,0.3532738917074312,1.0010792115635923,4.578688955191865
11,28,female,357,75,75,same,catch,anti,4,2,1,0.03696163298627653,0,f,same,1.8857751577361341,0,0.5001399928223691,0.03535933254988777,0.3532960211568934,1.0010131439303223,7.157755714609266
11,28,female,358,75,75,same,valid,anti,1,0,2,0.32656557036079903,1,f,same,0.7957740448500772,0.07579078136310381,0.500644800846203,0.03529230276853923,0.35334060077275353,1.0010442534467074,4.802838791450085
11,28,female,359,135,185,change,catch,clock,3,1,1,1.5276998169028957,0,j,change,1.2337684496269503,0,0.49998733169195475,0.03529326491843676,0.35333033783990686,1.0010490641971046,8.029288807597368
11,28,female,360,45,355,change,catch,anti,4,0,2,0.2139208990847692,1,j,change,1.4290534657120588,0,0.49997161657574907,0.03535965326682344,0.3533213577729839,1.0010227654311166,6.863448467407579
11,28,female,361,15,325,change,valid,anti,2,0,2,0.2869416683752206,1,j,change,1.5184711949932534,0.07396729560165194,0.5005328707320587,0.03537119906650332,0.35327549529029056,1.0010686279129004,5.5450897156752035
11,28,female,362,105,55,change,valid,anti,2,1,1,0.25616088687092997,0,j,change,1.4877337102388992,0.09235352635791624,0.4994844479679159,0.03534233456775837,0.35327870245691884,1.0010525920806685,5.497085166629404
11,28,female,363,75,125,change,valid,clock,3,0,2,0.24175237017607287,1,j,change,0.9113090146720424,0.07209297747833643,0.4993709142700027,0.035388197049542214,0.35329088969047007,1.0010471398964,4.814137318687244
11,28,female,364,165,165,same,valid,clock,1,0,2,0.12487071109535464,1,j,change,0.7314636193450497,0.0701817288424623,0.4997378141297304,0.03531090433443751,0.3532761367241619,1.0010497056300665,4.531769069893016
11,28,female,365,75,125,change,valid,clock,5,2,2,0.20413551305136934,1,j,change,1.9722862319222259,0.09904358166442144,0.4996361469484327,0.03534746603327221,0.35330211477412377,1.0010237275801046,5.885637249572028
11,28,female,366,165,215,change,valid,clock,5,2,2,0.2504739390451505,1,f,same,0.7344398699551675,0.09809651955293648,0.5002557715370131,0.0353898006324016,0.3532466307915456,1.0010320662140657,4.684739691926552
11,28,female,367,75,75,same,valid,clock,5,1,2,1.9149061727375738,1,j,change,2.120731221157257,0.09482617054386379,0.5005222870822763,0.03532405371788627,0.35331333985686797,1.0010654207462721,7.688949739530472
11,28,female,368,165,115,change,valid,anti,4,2,2,0.2537349860504037,1,j,change,1.5246879667429312,0.09718621680641798,0.49957360719963617,0.03530865931770677,0.3533300171229712,1.001049705630976,5.438633272365223
11,28,female,369,45,95,change,catch,clock,1,2,1,0.17460552652482875,0,f,same,0.6656499948521741,0,0.49969195164703706,0.03530705573484738,0.35333354500562564,1.0010301419142706,6.073819995208396
11,28,female,370,15,15,same,valid,anti,4,2,2,0.2487157703117191,1,f,same,1.1942122188556823,0.09630599479035348,0.5005068926820968,0.035339127400220605,0.35328704109087994,1.0010432912977194,5.144754502621254
11,28,female,371,15,15,same,catch,clock,1,0,2,0.11275692210801935,1,f,same,0.9278653708433922,0,0.5000145926078403,0.03533559951665666,0.35328960682363686,1.0010699107797336,6.239807544347059
11,28,female,372,165,115,change,valid,anti,1,2,2,1.3820790585814393,1,f,same,2.1664920364446516,0.09544976015263136,0.49932473107128317,0.035374406233131594,0.35330788767350896,1.001058044263118,7.251446672677048
11,28,female,373,75,125,change,catch,clock,1,0,2,0.4660465289316562,1,j,change,1.0693588264584832,0,0.5003330642512083,0.035335278800630476,0.3532703638247767,1.001082418729311,6.781840509529502
11,28,female,374,75,75,same,valid,clock,2,0,2,0.23787330216600822,1,f,same,2.0006051923382984,0.06826146493481203,0.49942768111941405,0.0353686333337464,0.35328832395771315,1.0010246897309116,5.932478559289848
11,28,female,375,165,165,same,catch,clock,1,1,2,0.14475321975533006,1,j,change,1.590151047926156,0,0.4996646907311515,0.035352918216631224,0.35330371835607366,1.0010503470630283,6.96918297751381
11,28,female,376,75,125,change,valid,clock,4,0,1,0.7283295761380941,0,j,change,1.4700214912236333,0.0664352147225889,0.5003782853009398,0.035341372416951344,0.35330500122381636,1.0010346319477321,5.874941028224384
11,28,female,377,165,165,same,valid,anti,4,2,2,0.1542929368251862,1,j,change,0.9270584477244483,0.09461190272172235,0.49921825314049784,0.03532020511738665,0.35330949125636835,1.0010246897309116,4.766079851392533
11,28,female,378,105,155,change,catch,clock,4,1,1,0.48250474580436276,0,j,change,1.096022247473229,0,0.5000081782745838,0.03532437443391245,0.35328094747455907,1.0010708729296312,6.816311456929725
11,28,female,379,135,135,same,catch,anti,5,0,1,0.16075281180292222,0,j,change,1.5505393331723099,0,0.5005989383635097,0.035332392350028385,0.3532886446737393,1.0010253311638735,6.994066741778624
11,28,female,380,165,215,change,catch,clock,2,2,2,0.2737300662574853,1,f,same,1.0086843657363715,0,0.49973396553014027,0.035334316650732944,0.3532915311243414,1.0010519506467972,6.509762454791598
11,28,female,381,15,15,same,valid,clock,3,2,1,0.13750406107465096,0,f,same,0.5141116934255479,0.09371862335436068,0.5000902817400856,0.03532886446737393,0.35330115262331674,1.001052592079759,4.425409803730872
11,28,female,382,45,45,same,valid,clock,4,1,2,0.18350413099142315,1,j,change,1.4892151004942207,0.09335763928022653,0.5005367193316488,0.035325336583809985,0.3533001904734192,1.0010442534467074,5.368799785247575
11,28,female,383,15,325,change,valid,anti,5,0,2,0.21395778149963007,1,j,change,1.8326282377547614,0.06820496286947206,0.4990906079092383,0.035320525834322325,0.3533280928231761,1.0010535542296566,5.767162911555715
11,28,female,384,165,215,change,catch,clock,5,0,1,0.08729073638733098,0,j,change,0.6346325244539912,0,0.4998321048287835,0.03530705573393789,0.35331494343972736,1.0010606099967845,5.897191387987732
11,28,female,385,45,95,change,catch,clock,5,0,2,0.12948005094312975,1,j,change,1.0278866343578557,0,0.5003372335686436,0.03531507365096331,0.35333162070674007,1.001051629930771,6.381505937908514
11,28,female,386,105,55,change,valid,anti,1,0,1,0.06854131969157606,0,j,change,0.4946685665918267,0.0664165346981912,0.49937700788723305,0.03533110948410467,0.3533133398559585,1.0010554785303611,4.260422890573864
11,28,female,387,45,355,change,valid,anti,5,1,2,0.13513300280283147,1,j,change,1.1342741235848735,0.09189883175973777,0.49941773890259356,0.035346824600310356,0.35332039562308637,1.0010461777465025,4.920272083186319
11,28,female,388,135,185,change,catch,clock,4,0,2,0.28203758991639916,1,j,change,1.0913753837776312,0,0.49898894072794064,0.035335278800630476,0.35331109484013723,1.001061572146682,6.603146487014783
11,28,female,389,15,15,same,valid,anti,1,1,2,0.3051920499465268,1,f,same,1.9461099795162227,0.09042859331929762,0.5007509580609621,0.0352942270674248,0.3533242442226765,1.0010365562466177,5.934052636659544
11,28,female,390,45,45,same,catch,clock,3,1,1,0.09730543483237852,0,j,change,4.6480503473840145,0,0.49975256709603855,0.03527402191866713,0.3533678616886391,1.0010147475140911,9.972606307150272
11,28,female,391,105,105,same,valid,clock,5,0,2,0.18389219815071556,1,j,change,1.7809591801460556,0.06815011966799403,0.49957970081595704,0.03533944811715628,0.3533155848726892,1.0010323869300919,5.650338340041344
11,28,female,392,15,325,change,valid,anti,3,2,1,0.13747327227520145,0,j,change,0.40496956879906065,0.09675442345594987,0.49995237357597944,0.03532245013411739,0.3533101326902397,1.0010230861480522,4.201755474713536
11,28,female,393,105,155,change,catch,clock,3,0,2,0.1996839658031604,1,j,change,2.5073048030208156,0,0.4996618042814589,0.03533399593379727,0.35330660480667575,1.001034311229887,7.9582292206878265
11,28,female,394,15,15,same,catch,clock,1,1,2,0.16761486547420645,1,f,same,1.404728710587733,0,0.5006941912115508,0.03530064140068134,0.3533312999898044,1.0010782494127852,6.841060520196152
11,28,female,395,165,165,same,catch,anti,5,0,1,0.04757992018676305,0,j,change,0.3118562214376652,0,0.4995758522163669,0.035378896266593074,0.3532520829749046,1.0010426498629386,5.602588760741128
11,28,female,396,45,355,change,valid,anti,3,1,2,0.3050506138997662,1,j,change,1.1396666535174518,0.08896882935001267,0.5001916282044476,0.03529550993425801,0.3532934554241365,1.0010734386632976,5.062346035958399
11,28,female,397,135,185,change,valid,clock,1,1,2,0.16372264808069303,1,j,change,1.0582783865520469,0.08758935969126913,0.4990145980600573,0.035383707016080734,0.35323797144155833,1.0010503470639378,4.931121927815184
11,28,female,398,135,85,change,valid,anti,2,2,2,0.10848465547132946,1,j,change,0.6897954693640713,0.10006045707824977,0.49962428043181717,0.03534650388337468,0.35327870245782833,1.001049064196195,4.484242709388127
11,28,female,399,135,185,change,valid,clock,2,0,2,0.3451985669098576,1,j,change,2.726760630233912,0.06639802120147312,0.500136144222779,0.03535965326682344,0.35324759294144314,1.0010686279129004,6.780822234131847
11,28,female,400,105,55,change,catch,anti,1,2,1,0.02442032868930255,0,j,change,0.3536937098160706,0,0.5002557715370131,0.035320525834322325,0.35331622630656057,1.0010195582635788,5.627413833856735
11,28,female,401,165,165,same,valid,anti,2,0,2,0.5882613853609655,1,j,change,0.9471304999306085,0.06469863576693552,0.5023725014971205,0.035374406233131594,0.3532863996570086,1.0010455363135407,5.275953594865314
11,28,female,402,135,185,change,valid,clock,2,2,1,0.22903018168290146,0,f,same,1.7452169119032988,0.0991556457535713,0.4996239597148815,0.035349390333067277,0.35327838173998316,1.0010330283639632,5.697105564208869
11,28,female,403,105,105,same,valid,clock,2,1,2,0.12896658356930857,1,f,same,1.772083025845859,0.08627175107427125,0.49964159913179174,0.03532437443391245,0.35332648924031673,1.0010323869310014,5.591187604172774
11,28,female,404,105,55,change,valid,anti,1,2,2,0.18876548780826852,1,f,same,1.6125845369024319,0.10239021606928828,0.5002939368196166,0.035349069617041096,0.35329794545759796,1.0010375183974247,5.497823456382321
11,28,female,405,135,185,change,valid,clock,3,2,1,0.11290284818915097,0,j,change,1.5473597481995967,0.10152884864790833,0.5001159390731118,0.03533175091706653,0.35331654702349624,1.001042649863848,5.367808129333753
11,28,female,406,165,215,change,valid,clock,4,2,2,0.14739977363842627,1,j,change,0.8306237586257339,0.10450340103666786,0.49980195746138634,0.03531699795075838,0.35333354500653513,1.0010304626302968,4.661240461486159
11,28,female,407,45,95,change,valid,clock,3,1,2,0.15072592612523295,1,j,change,0.8915881472103138,0.08499743337406984,0.49969066878020385,0.035315715084834665,0.35333611073929205,1.001033669796925,4.766486520118633
11,28,female,408,165,215,change,valid,clock,3,1,1,0.12869782300731458,0,j,change,0.42227191192432656,0.0836878472453264,0.5004773867494805,0.0352942270674248,0.35333322428959946,1.0010946059628623,4.261608259352215
11,28,female,409,105,155,change,valid,clock,2,1,2,0.3174687629989421,1,f,same,1.8502990843217049,0.0858149381750255,0.49991452900940203,0.03530032068465516,0.353329696406945,1.0010291797643731,5.850878298610951
11,28,female,410,45,45,same,valid,anti,2,2,1,0.09451840705150971,0,j,change,1.2500384058193958,0.10367455000389486,0.49953319690030185,0.03533143020013085,0.35331237770697044,1.0010535542296566,5.061376830209156
11,28,female,411,15,65,change,catch,clock,2,2,2,0.21845102191582555,1,j,change,1.6566654383223067,0,0.4998670629447588,0.035346824600310356,0.35330820838953514,1.0010179546807194,7.098704721623108
11,28,female,412,135,135,same,valid,clock,3,1,2,0.16887528195093182,1,f,same,1.5658779281829993,0.08458704421911963,0.49995814647536463,0.03527915338418097,0.35333643145622773,1.0010551578134255,5.438284011921496
11,28,female,413,105,105,same,valid,clock,4,1,1,0.10340289998384833,0,j,change,2.6423271585754264,0.08331902672515862,0.5003750781343115,0.035323091567079246,0.35328960682454635,1.0010679864799386,6.4748136395664915
11,28,female,414,75,25,change,catch,anti,1,2,1,0.5580649496132537,0,j,change,0.6664264498876946,0,0.4999356963098762,0.035334316650732944,0.3533030769240213,1.0010320662140657,6.475096832377858
11,28,female,415,165,165,same,catch,clock,5,2,2,0.764693713986162,1,j,change,5.431122729606614,0,0.4995043324006474,0.03530865931770677,0.3533312999898044,1.0010583649800537,11.409519576063758
11,28,female,416,15,65,change,valid,clock,5,0,1,0.056111624791810755,0,j,change,0.7149479941899699,0.06296422691646064,0.4996685393307416,0.03532822303350258,0.3532809474736496,1.0010365562466177,4.507690945880313
11,28,female,417,75,25,change,valid,anti,5,0,1,0.10048085048947542,0,j,change,1.0396662365856173,0.06453520358570655,0.4995408941003916,0.03537825483363122,0.353298907606586,1.0010567613962849,4.86110274575185
11,28,female,418,45,95,change,valid,clock,1,2,2,0.27757866618412663,1,j,change,1.818513497521053,0.10649487515643417,0.4994607149355943,0.035330468051142816,0.3533085291064708,1.0010240482979498,5.768128268704459
11,28,female,419,105,155,change,valid,clock,4,1,2,0.3235059334192556,1,f,same,1.9361587829698692,0.0853874562892991,0.49982280404492485,0.03533848596725875,0.3532851167910849,1.0010609307137202,5.968879900269712
11,28,female,420,75,75,same,catch,anti,2,0,1,0.7054490081354743,0,j,change,0.9880943561238382,0,0.4996419198478179,0.03530994218363048,0.35330403907391883,1.0010545163804636,6.9098305108664135
11,28,female,421,15,15,same,valid,anti,2,0,2,0.20658546762297192,1,f,same,1.720945716459937,0.06606124013854395,0.5006355000623444,0.035315394366989494,0.353304359789945,1.0010176339646932,5.627738399116424
11,28,female,422,15,15,same,valid,clock,1,2,2,0.10701416958363552,1,f,same,1.6589335465459953,0.10572980031282525,0.5000485885739181,0.03526247611898725,0.35331622630656057,1.00101635109786,5.450774963702315
11,28,female,423,105,55,change,valid,anti,2,2,2,0.11907375745522586,1,j,change,2.7753235469845094,0.1049814025430886,0.499020370960352,0.035320846550348506,0.35326427020754636,1.0010548370973993,6.615107614871704
11,28,female,424,165,165,same,valid,anti,5,0,1,0.19731483183113596,0,f,same,2.0683630012281355,0.06442742371165078,0.5002734109530138,0.03537248193333653,0.3532706845408029,1.0010660621801435,5.992816908951681
11,28,female,425,45,95,change,valid,clock,4,1,1,0.07712658398031635,0,f,same,0.4130211605643126,0.08420133076820838,0.4997506427962435,0.035294547784360475,0.3533284135401118,1.0010474606142452,4.16677202208939
11,28,female,426,45,355,change,valid,anti,2,0,1,0.16085479970115557,0,f,same,0.3553755479842948,0.06592625190908269,0.4997599435791926,0.03529871710088628,0.35332777210714994,1.0010490641971046,4.248771254294297
11,28,female,427,45,45,same,catch,clock,2,2,2,0.21589042009691184,1,f,same,1.2114719066639736,0,0.500080018807239,0.03531026290147565,0.35330660480667575,1.0010737593802332,6.616702859541874
11,28,female,428,105,55,change,valid,anti,5,1,1,0.11347853459392354,0,f,same,0.373945363351595,0.08621475324478493,0.4999623157927999,0.035384348449952086,0.3532905689744439,1.0010529127966947,4.21399466391631
11,28,female,429,15,15,same,catch,anti,5,2,2,0.16337274620400422,1,f,same,1.4206250318711682,0,0.4998288976621552,0.035342334566848876,0.35331366057289415,1.001051629930771,6.863742243868728
11,28,female,430,75,75,same,valid,anti,1,1,1,0.16876912473526318,0,f,same,0.30469109052319254,0.08839078774343412,0.4994748264689406,0.03537344408323406,0.3532681188071365,1.001039121980284,4.1894088454291705
11,28,female,431,15,15,same,valid,clock,1,1,1,0.2772784753897213,0,f,same,1.0702077634596208,0.09063609168169713,0.500274693819847,0.035325015867783804,0.35332616852338106,1.001048102047207,5.096675868027887
11,28,female,432,105,55,change,catch,anti,2,2,1,0.6890081099627423,0,j,change,1.3056083401725118,0,0.5002034947210632,0.035335278800630476,0.3533184713232913,1.0010532335136304,7.276267255759194
11,28,female,433,45,355,change,valid,anti,4,2,2,0.08776058629609906,1,j,change,3.62269609177838,0.10418456337908463,0.5001553872225486,0.03533110948410467,0.35327421242436685,1.0010974924125549,7.429110873994432
11,28,female,434,15,65,change,valid,clock,5,2,2,0.19102493668287934,1,j,change,10.337774938366238,0.10339629506142262,0.4994934280339294,0.035346183166439005,0.3533184713232913,1.0010250104478473,14.223430789504164
11,28,female,435,105,105,same,catch,anti,1,1,2,0.3068879996480973,1,j,change,1.6496581000037622,0,0.49979746742883435,0.035297434234962566,0.3533033976400475,1.0010503470630283,7.181074702286423
11,28,female,436,45,355,change,valid,anti,1,0,1,0.12539508283680334,0,f,same,0.6658190125326655,0.06752887936415211,0.5001961182379091,0.03533592023450183,0.35330371835698315,1.0011051896126446,4.543558293620663
11,28,female,437,165,215,change,valid,clock,4,1,2,0.255558260266298,1,f,same,2.6090306755859274,0.0927840343811438,0.5002108712051268,0.03533175091706653,0.35332937568909983,1.0010311040632587,6.592753663626354
11,28,female,438,165,215,change,valid,clock,4,0,2,0.24530879722624377,1,f,same,1.6565288130241242,0.06914080690602317,0.499650258481779,0.03533399593379727,0.3532677980911103,1.0010731179472714,5.627098248662151
11,28,female,439,75,75,same,valid,clock,5,2,2,0.24857529641485598,1,f,same,1.8933004534610518,0.10261186676845377,0.49971857112996076,0.03532437443391245,0.35327838173998316,1.0010699107797336,5.86182852755428
11,28,female,440,15,325,change,valid,anti,2,2,1,0.3790024236559475,0,j,change,0.6722718317441831,0.1018267312908556,0.5003256877689637,0.03535420108346443,0.3532745331413025,1.0010586856969894,4.791507551113682
11,28,female,441,75,75,same,valid,anti,5,1,1,0.11608564032849245,0,j,change,0.2833419445760228,0.09154504284700467,0.4997926566784372,0.035325336583809985,0.35331622630656057,1.001054195663528,4.071752976330572
11,28,female,442,165,165,same,catch,anti,2,1,2,0.07867211756729375,1,j,change,0.8357982012294087,0,0.50043665573412,0.035329826617271465,0.3533213577729839,1.0010266140307067,6.169678997901428
11,28,female,443,165,165,same,valid,anti,1,0,1,3.829642044927823,0,j,change,1.413141429312418,0.067489165103295,0.4997727722457057,0.035320525834322325,0.35328287177435413,1.0010695900637074,9.006988416034801
11,28,female,444,165,215,change,valid,clock,2,0,2,0.17013249126011942,1,j,change,1.253305867158815,0.06907122870611182,0.49995044927618437,0.03533367521777109,0.3533059633737139,1.001042649863848,5.143779203256599
11,28,female,445,165,215,change,valid,clock,2,2,2,0.17216038270544232,1,j,change,1.0263872839695978,0.10453661547342916,0.4998009953114888,0.03529550993425801,0.3532985868905598,1.0011058310456065,4.897133017556371
11,28,female,446,15,65,change,catch,clock,5,1,1,1.008509575156495,0,j,change,3.818807273982202,0,0.4993369183039249,0.035277549801321584,0.35329666258985526,1.0010772872637972,10.089572956145275
11,28,female,447,15,15,same,valid,anti,1,2,2,0.14514481479727692,1,j,change,0.9836046435921162,0.10377884026540773,0.5003782853009398,0.03533624095052801,0.3532706845417124,1.0010618928636177,4.861737123306739
11,28,female,448,105,55,change,catch,anti,5,2,2,0.13843221508977877,1,j,change,0.8902950176352533,0,0.5002413392876406,0.03533944811715628,0.3532957004408672,1.0010503470639378,6.239799847146969
11,28,female,449,105,105,same,catch,clock,3,2,1,0.0421594879053373,0,j,change,0.3782936398365564,0,0.49966116284758755,0.03532245013411739,0.3533059633737139,1.0010304626302968,5.6504576466386425
11,28,female,450,135,85,change,valid,anti,5,0,2,0.29609043183518224,1,j,change,1.4277619397207673,0.06745049391060076,0.49964288199862494,0.03531860153452726,0.35332616852338106,1.0010493849131308,5.391555915186473
11,28,female,451,45,95,change,valid,clock,1,1,2,0.11567191583617387,1,j,change,1.5845503728805852,0.09360215641428699,0.505274666558762,0.035327581600540725,0.35330628409064957,1.0010641378803484,5.444283337775232
11,28,female,452,165,165,same,valid,clock,5,0,2,0.10858760551946034,1,j,change,0.6218949415606403,0.0658967524096768,0.4991711077909713,0.035345862450412824,0.35329794545668847,1.0010320662140657,4.401222956770653
11,28,female,453,15,325,change,valid,anti,1,2,1,0.11500450446601462,0,j,change,1.0713761342549333,0.10302640883106237,0.4998138239780019,0.03533399593379727,0.35329698330770043,1.001022444714181,4.885287989128301
11,28,female,454,135,185,change,valid,clock,1,2,2,0.1335223637324816,1,j,change,0.8955900497012408,0.10560280757271784,0.49948637226862047,0.03534008955011814,0.35332071634002205,1.0010214825642834,4.766595884499111
11,28,female,455,165,165,same,valid,clock,5,2,2,0.5014738534136995,1,j,change,1.6261470030467535,0.10491802319929427,0.49989207884300413,0.035294547784360475,0.35329537972393155,1.0010776079798234,5.874379453351139
11,28,female,456,45,45,same,catch,clock,1,2,1,0.15319255796293874,0,f,same,0.3386809629319032,0,0.499710873929871,0.035368312616810726,0.3533155848735987,1.0010413669970148,5.697568358351418
11,28,female,457,45,45,same,valid,clock,5,0,2,0.13020615346158593,1,f,same,0.7344017046725639,0.06438019783245238,0.49981991759432276,0.03534297600072023,0.3532876825238418,1.001039763413246,4.543625002685985
11,28,female,458,75,125,change,valid,clock,2,1,2,0.16450327243273932,1,j,change,1.492939903791921,0.09239924420538459,0.4998192761613609,0.035328223034412076,0.35332873425704747,1.0010503470639378,5.34378452715373
11,28,female,459,105,105,same,catch,clock,1,0,2,0.2419037484405635,1,j,change,0.854537354992317,0,0.49990715252624796,0.035323412284924416,0.3532847960741492,1.0010753629630926,6.286143404606264
11,28,female,460,15,65,change,valid,clock,4,1,2,0.25955022054040455,1,f,same,2.5841379312560093,0.09118806533579009,0.5006290857290878,0.03532469515084813,0.3533005111903549,1.0010734386632976,6.581073162847133
11,28,female,461,165,165,same,valid,clock,3,2,1,0.09493149010995694,0,j,change,0.7807622601158073,0.10418757680393197,0.5001925903543452,0.03533367521686159,0.3533171884564581,1.0010506677808735,4.543320001141183
11,28,female,462,135,85,change,valid,anti,5,1,2,0.13526802451633557,1,j,change,0.7614445334966149,0.08995471387322615,0.4999485249754798,0.035294547784360475,0.3533312999898044,1.001052592079759,4.614186195905859
11,28,female,463,75,75,same,valid,clock,4,1,2,0.2287582139551887,1,f,same,2.0272144122372993,0.08875273178367309,0.49984365062846337,0.03533143020104035,0.35327132597467426,1.001098775279388,5.956588113534963
11,28,female,464,135,135,same,catch,anti,5,1,2,0.1003615438912675,1,f,same,0.7990376575880873,0,0.4998305012450146,0.03535676681713085,0.3532261049249428,1.001089795212465,6.10947406637024
11,28,female,465,75,75,same,valid,anti,4,2,2,0.09172977568778151,1,j,change,1.6775489036781437,0.10666856058995985,0.5006168984964461,0.03532886446737393,0.3532710052577386,1.0010740800962594,5.474036543098009
11,28,female,466,165,115,change,valid,anti,4,0,2,0.16590384208939213,1,f,same,1.0489968463934929,0.06282557642593584,0.5005954104799457,0.035308338600771094,0.3533085291073803,1.001056119963323,4.920751554594062
11,28,female,467,165,115,change,valid,anti,5,0,2,0.21936057436505507,1,f,same,1.10077879626715,0.06125007375657757,0.49973139979647385,0.035332071634002205,0.35328992754057253,1.0010266140307067,5.026178176706708
11,28,female,468,75,125,change,valid,clock,5,0,2,0.17149714065089938,1,f,same,0.8163101740628917,0.059624284569341074,0.4998657800770161,0.03534554173347715,0.35330371835698315,1.0010214825642834,4.743597934199897
11,28,female,469,105,55,change,valid,anti,2,0,2,0.2049180617041202,1,j,change,2.591711975913313,0.058032071157352844,0.49995750504240277,0.035320846550348506,0.3532918518412771,1.001050667779964,6.474634038236218
11,28,female,470,135,135,same,valid,clock,1,0,2,0.17711128579503566,1,f,same,0.7644005789579751,0.05651360668043634,0.5004337692835179,0.03532758160145022,0.353298907606586,1.0010590064130156,4.661786641958315
11,28,female,471,135,85,change,valid,anti,5,2,2,0.18886041993937397,1,j,change,1.487024605703482,0.10598982965107773,0.49937829075406626,0.03533335450083541,0.3533412422066249,1.0010198789805145,5.332131928722447
11,28,female,472,165,165,same,valid,clock,3,0,2,0.3502360634975048,1,j,change,0.7951791154446255,0.05504033387057808,0.4999680886930946,0.03530801788474491,0.3533159055896249,1.0010375183974247,4.837750082824641
11,28,female,473,135,85,change,catch,anti,4,2,2,0.8613644505467164,1,f,same,1.4932686383690452,0,0.500067510856752,0.035353880366528756,0.3532960211578029,1.0010606099967845,7.58164083133579
11,28,female,474,45,45,same,valid,clock,2,1,2,0.17594163213379943,1,f,same,1.3053466353776457,0.08761278456741586,0.5008247228934124,0.035311225051373185,0.3532863996570086,1.0010718350804382,5.192018837613432
11,28,female,475,45,45,same,valid,anti,4,1,2,0.15409120604545024,1,f,same,1.235138871918025,0.08652059908095949,0.4998051646289241,0.035345862450412824,0.35327004310784105,1.0010567613962849,5.096410956066393
11,28,female,476,165,115,change,valid,anti,2,2,2,0.1382574245099022,1,f,same,1.0355729298462393,0.10532589063034564,0.5000457021242255,0.03531699795166787,0.353294417574034,1.0010468191803739,4.8732126861395955
11,28,female,477,75,25,change,valid,anti,2,1,2,0.088550511430185,1,j,change,1.3738978972851328,0.08546334399914944,0.49983402912857855,0.03531924296748912,0.35330820838953514,1.0010606099967845,5.155616855199696
11,28,female,478,75,25,change,catch,anti,5,0,2,0.14441775012710423,1,f,same,0.872125777376823,0,0.5002750145358732,0.035287812734168256,0.3533425250725486,1.0010423291469124,6.239629225883618
11,28,female,479,75,75,same,catch,anti,2,2,2,0.8625456500076325,1,j,change,1.4104650487797699,0,0.5003510243850542,0.03535035248296481,0.3532722881236623,1.0010272554636686,7.464982070335282
11,28,female,480,105,105,same,valid,anti,5,2,1,0.05678096046267456,0,j,change,0.44448955858752015,0.10467338693282084,0.4999090768269525,0.03529069918477035,0.3533325828566376,1.001032707647937,4.201932510310144
