subject,age,gender,ntrial,memory_ori,test_ori,type,trial_type,which_change,trial,quest,pas,pas_rt,vis,test_key,test,test_rt,contrast,fix_dur,target_dur,mask_dur,retention_dur,trial_dur
13,22,male,1,45,355,change,catch,anti,1,2,3,2.2546093827172626,1,f,same,4.709879896907751,0,0.5029900692368301,0.03533945608523936,0.35329449632263277,1.0010375280469361,12.20172624140946
13,22,male,2,135,135,same,valid,clock,5,2,2,3.4528195746745496,1,j,change,3.576932303780495,0.2,0.4994935836828063,0.035352284870896256,0.3532781396208975,1.0010330379718653,10.83237106749607
13,22,male,3,45,45,same,catch,clock,3,2,2,1.9316639448259139,1,f,same,3.182632197429939,0,0.4993726723771488,0.035338173206582724,0.3532967413600545,1.0010663928148915,10.431494604854151
13,22,male,4,45,95,change,valid,clock,4,2,2,0.6869721756465879,1,f,same,4.012665539444015,0.11397766455402543,0.49982777355148755,0.03532406154226919,0.35328359185473346,1.001066072095,8.488597454512274
13,22,male,5,45,95,change,valid,clock,2,0,2,1.1726722488990617,1,j,change,8.07012021855121,0.2,0.49983707442106606,0.03533143809409012,0.3532358046277295,1.0011286124258731,13.04662750465991
13,22,male,6,75,75,same,catch,clock,4,0,1,1.3327716463309116,0,j,change,9.033085759149799,0,0.5000327134036979,0.035322137224284234,0.3532935341636403,1.00108531527394,15.649141048650563
13,22,male,7,135,185,change,catch,clock,2,0,3,1.053304887639115,1,f,same,1.9335901870051657,0,0.5007533704429079,0.035311874195713244,0.3533365105959092,1.0010304722147794,8.254164865291386
13,22,male,8,45,95,change,valid,clock,4,1,3,0.6401208086754195,1,f,same,1.6326746607107907,0.2,0.5002729324164648,0.035307384120869756,0.3532672351529982,1.001044583879093,6.027981826742007
13,22,male,9,135,135,same,valid,clock,5,1,2,1.9572592967003857,1,f,same,3.8821653579166195,0.09338226537841544,0.4992248206212935,0.03528782022249288,0.35334260426930086,1.0010340001308577,9.630270225542972
13,22,male,10,15,325,change,valid,anti,3,2,1,0.9939416059330597,0,j,change,3.238661277721576,0.056143516159837065,0.49967222452437454,0.035326306579690936,0.3533121359030247,1.0010484325148354,7.982220265119622
13,22,male,11,75,125,change,valid,clock,5,2,2,1.6229443474446725,1,f,same,4.4253499372032365,0.16391670208980944,0.499729312620957,0.03535356774932552,0.3533044386315396,1.0010753729650332,9.80760092726473
13,22,male,12,45,95,change,valid,clock,5,1,3,0.39036840424023467,1,j,change,9.232838291872895,0.020575447070561637,0.5001834516360759,0.03536639653520979,0.35325055773159875,1.001108407088168,13.318081724496551
13,22,male,13,165,165,same,valid,anti,3,1,2,2.471378658288586,1,f,same,1.3695219481280674,0,0.4997257847048786,0.03534138040299695,0.35327685674224085,1.0011019926951121,9.183837461850544
13,22,male,14,75,75,same,valid,anti,2,0,2,5.945015503587683,1,f,same,2.7894350459334873,0.0723357464867447,0.49944643789535803,0.03537505596545998,0.353307966547618,1.0010529225899063,12.539742616071635
13,22,male,15,105,155,change,valid,clock,2,0,3,1.3557755834851832,1,f,same,1.4912068295325298,0,0.4995711978365307,0.03533304169218354,0.3532681973117633,1.0010205299058725,8.135314504096868
13,22,male,16,165,165,same,catch,anti,1,1,3,0.36610917040093227,1,f,same,2.8232074658401416,0,0.5000237332535562,0.03534138040299695,0.3533050800708679,1.0010490739541638,8.488973658654231
13,22,male,17,45,355,change,valid,anti,5,0,2,1.9245375543457612,1,j,change,0.8402344717169399,0,0.49978287280146105,0.03535100199223962,0.3533102115850397,1.0009563859771333,8.170593023449783
13,22,male,18,75,25,change,valid,anti,1,2,1,0.7201159850519616,0,f,same,0.8603785518096174,0.1384402033061635,0.49965875429916196,0.0353391353655752,0.35331309806201716,1.001037207327272,5.379244884842365
13,22,male,19,105,105,same,valid,anti,5,2,3,1.6419796997292906,1,f,same,1.1985251386470281,0.1995247481273401,0.499683449711938,0.03532855161711268,0.3533220782121589,1.0010221335041933,6.6752710401708555
13,22,male,20,135,135,same,valid,clock,3,1,2,1.3112859959692287,1,f,same,1.6366384347854819,0,0.49935663639507766,0.03533881464568367,0.3533095701459388,1.0010481117951713,8.181500377807652
13,22,male,21,165,115,change,valid,anti,5,2,2,0.7260290931203599,1,f,same,1.1041742303050341,0.18339343856350443,0.5006760770086203,0.035328551617340054,0.35332560612823727,1.0010192470274433,5.603796101845319
13,22,male,22,135,135,same,valid,anti,4,2,2,0.2921377503696476,1,f,same,1.4226260652701512,0.16948186973724727,0.500341245700838,0.035275632875936935,0.3533515844192152,1.0010696000113057,5.485634646445078
13,22,male,23,15,325,change,catch,anti,1,2,2,0.493957321195694,1,f,same,1.8008411193372922,0,0.4999550992499735,0.03531315707436988,0.3533137395011181,1.0010567712256488,7.593332623473771
13,22,male,24,75,75,same,catch,anti,1,0,2,0.4976741411448984,1,j,change,2.0136588081800255,0,0.500517962224194,0.03532245794417577,0.35327493242448327,1.001090767507776,7.747794090291563
13,22,male,25,105,55,change,valid,anti,3,0,2,0.8680835205268522,1,f,same,0.8822715161186352,0,0.49985407256212966,0.03531957146719833,0.35333266196016666,1.0010975026202686,7.09899941885601
13,22,male,26,15,65,change,valid,clock,5,2,3,2.596572212593628,1,j,change,2.3835386794303304,0.15775515039961915,0.4995561240132247,0.0353054598028848,0.3533050800708679,1.001067354973884,8.794235898277975
13,22,male,27,105,105,same,catch,anti,2,2,2,1.6579595559701374,1,f,same,1.3825351476657488,0,0.5000923672573663,0.03533464529050434,0.35329385488330445,1.0010753729648059,8.288486998667167
13,22,male,28,75,75,same,catch,anti,5,0,3,1.5907816194287534,1,j,change,2.24604264031791,0,0.5001026302859373,0.03532117506551913,0.3533618474477862,1.001029830775451,9.101582815584834
13,22,male,29,105,105,same,valid,clock,2,0,3,0.41304200016156756,1,j,change,1.9047748099094406,0,0.5002719702576996,0.035327910178011734,0.353251840610028,1.001113217882903,7.594180926931131
13,22,male,30,45,45,same,catch,anti,3,2,3,1.5504395783434575,1,f,same,3.7003429775868426,0,0.4994175731271753,0.03537441452635903,0.3532960999207262,1.0010782594417833,10.596365348423433
13,22,male,31,75,25,change,catch,anti,2,0,3,0.6715144509857964,1,f,same,7.365502368835223,0,0.49997851178386554,0.035329193056441,0.3532694801904199,1.0010917296667685,13.387827342504352
13,22,male,32,15,65,change,valid,clock,2,0,3,0.4114948486010235,1,j,change,1.7911460852317305,0,0.5002463126863859,0.03534554975840365,0.35331053230493126,1.0010538847486714,7.499616419306221
13,22,male,33,135,135,same,valid,anti,5,1,1,1.636416817511872,0,f,same,1.6701109818254736,0,0.4998784472550142,0.03534170112266111,0.3532601793208414,1.001077618002455,8.66537234909174
13,22,male,34,15,325,change,valid,anti,5,0,3,0.5054208034155181,1,j,change,3.380939888158764,0,0.4995946103706501,0.03528974454025047,0.35332239893159567,1.0010590162630706,9.183342912160015
13,22,male,35,105,105,same,valid,anti,3,1,3,0.5682937201811455,1,j,change,1.264253101679742,0,0.49958851669748583,0.03532470298159751,0.3532681973117633,1.001074731525705,7.134305840817888
13,22,male,36,15,325,change,valid,anti,5,1,1,0.6170479167976737,0,j,change,2.649910455075542,0,0.4994429099790523,0.035328230897675894,0.3533163052584314,1.0010500361129289,8.58244836093013
13,22,male,37,135,85,change,valid,anti,2,0,3,0.6354530549826904,1,j,change,0.03125380854589821,0,0.4997209739101436,0.03534554975840365,0.35331694669753233,1.0010891639096826,5.9683193136086174
13,22,male,38,135,135,same,valid,clock,3,2,1,0.3284868318928602,0,j,change,0.7793243591700048,0.14745970587764784,0.499497753038213,0.03531347779403404,0.35325921716184894,1.0010670342539925,4.908134027456072
13,22,male,39,15,15,same,valid,anti,1,0,1,0.32090052944386116,0,j,change,0.6059830890944795,0,0.49998171898027977,0.03527242567952271,0.35336152672812204,1.0010336794111936,6.203729777023
13,22,male,40,45,45,same,catch,clock,3,1,1,0.774250895128489,0,j,change,0.7034921237670915,0,0.4999737009893579,0.03530449764389232,0.35330732510851703,1.0010715243290633,6.781291332744104
13,22,male,41,15,65,change,valid,clock,1,0,1,0.83403175381045,0,j,change,3.0327416269722107,0,0.500160359821848,0.03528942382058631,0.3533599231300286,1.001031755093436,9.23111314091011
13,22,male,42,15,15,same,valid,anti,5,1,1,0.5777908702664263,0,j,change,1.2394573038766339,0.0044702481871132516,0.49946022883978003,0.03532117506551913,0.3533121359030247,1.0010586955434064,5.591231909808357
13,22,male,43,45,95,change,catch,clock,1,1,1,0.36525701830782964,0,j,change,0.8174832616418826,0,0.4997700440155768,0.03529808325106387,0.35331053230493126,1.0010971819006045,6.521549152851094
13,22,male,44,135,135,same,valid,clock,2,2,1,0.500333548429353,0,j,change,1.1783473829918876,0.1794104682152581,0.5004862109797159,0.03528525446540698,0.3533499808208944,1.0010638270578056,5.485831247586702
13,22,male,45,45,45,same,valid,anti,4,2,2,1.0104099181908168,1,j,change,2.6173128312232166,0.20766872836952358,0.4998569590391071,0.0352884616618212,0.35334196282974517,1.0010619027398207,7.3932503909572915
13,22,male,46,165,115,change,valid,anti,1,0,1,0.3917147853039751,0,f,same,1.029067142015947,0,0.4998899931622418,0.03532053362619081,0.35330411791187544,1.0010583748237423,6.698405189500363
13,22,male,47,45,45,same,valid,clock,1,1,1,0.30364773693804636,0,j,change,1.0305546397228227,0.03010871189654804,0.5004191805742266,0.03534554975840365,0.3533082872675095,1.0010602991417272,5.132854584430561
13,22,male,48,75,125,change,valid,clock,3,0,1,0.39919621242916037,0,f,same,2.436654021760205,0,0.49963726608325487,0.03531796786887753,0.3533217574924947,1.0010413766826787,8.111443020306751
13,22,male,49,165,215,change,valid,clock,4,1,2,1.1317628547640197,1,j,change,3.0350777488561107,0.05449443927748804,0.4999583064463877,0.03539269554585189,0.35324959557260627,1.001063506337914,7.994531409357478
13,22,male,50,135,185,change,catch,clock,5,2,1,0.5791664368177862,0,j,change,3.0942492402152766,0,0.49931462212157385,0.03532245794417577,0.3533233610903608,1.0010609405810555,9.030401015013467
13,22,male,51,75,125,change,valid,clock,2,1,2,2.360463221795726,1,f,same,3.349194416399314,0.04080943845291013,0.5107854808934462,0.03531476067246331,0.35333362411915914,1.0010311136541077,9.524155641394373
13,22,male,52,75,25,change,valid,anti,4,2,1,0.8448374400416014,0,f,same,1.2629872212467035,0.20010617158541333,0.4996446426350758,0.035333683131739235,0.353268838751319,1.00107858016122,5.827170277756068
13,22,male,53,135,185,change,valid,clock,5,0,2,1.6122156339279172,1,f,same,1.1073948969656158,0,0.4992520817913828,0.03534971911381035,0.35327493242448327,1.001083070236291,7.970316114109437
13,22,male,54,15,325,change,valid,anti,2,1,1,0.30294920955429916,0,f,same,0.3685796738152476,0.028920973142939732,0.4995862716598367,0.035370565890389116,0.3533121359030247,1.001047470355843,4.4256026642822235
13,22,male,55,135,85,change,valid,anti,5,1,2,0.6597491715810975,1,f,same,1.4914634052472593,0.04729648140686732,0.4998864652461634,0.03534554975840365,0.3532813468173117,1.0010526018700148,5.826823579821394
13,22,male,56,45,45,same,valid,clock,1,2,2,2.352416045218888,1,f,same,2.1072104831705474,0.22424073694039406,0.49979762590487553,0.03530096972804131,0.35331951245461823,1.0010458667577495,8.170239911122053
13,22,male,57,165,165,same,valid,anti,1,1,2,0.5441759237046426,1,f,same,2.1702334967292245,0.0372828984812138,0.5005105856726004,0.03531828858854169,0.3532832711350693,1.0010872395916977,6.4877417745030925
13,22,male,58,165,165,same,valid,anti,1,2,2,0.5456807402722461,1,f,same,0.8756791238454298,0.21737671637372355,0.4992379701270693,0.03530032828871299,0.35334100067098007,1.0010375280469361,5.14340561926474
13,22,male,59,165,165,same,valid,anti,4,1,2,0.27429162652333616,1,f,same,0.9231837967304273,0.02818911253436579,0.5002456712470575,0.03531347779403404,0.3532858368921552,1.001059978422063,4.955874108559783
13,22,male,60,105,155,change,catch,clock,1,2,1,0.6041306124334369,0,f,same,1.5422038186161444,0,0.5002533685183153,0.03536062358170966,0.3532605000402782,1.0010763351237983,7.393940258910561
13,22,male,61,105,155,change,valid,clock,5,1,2,0.6598049767992507,1,f,same,0.8744607099195036,0.01981816572688677,0.5002229001522664,0.03533977680490352,0.353297703519047,1.001067996412985,5.297977092920291
13,22,male,62,135,135,same,catch,clock,2,1,3,0.6566401153563675,1,j,change,1.4015769143434227,0,0.4997475936406772,0.035318288588769065,0.3533063629492972,1.001064789216798,7.333944518067256
13,22,male,63,135,135,same,valid,anti,1,1,3,0.3716233032328091,1,f,same,1.1760417294742638,0.012039240205690388,0.5001779994020126,0.0353333624118477,0.3532710837887407,1.0010817873576343,5.36834073768091
13,22,male,64,45,45,same,valid,clock,4,1,2,1.4164140464940829,1,j,change,1.5423946468042686,0.00470099787216971,0.49951410973994825,0.03533143809409012,0.3533050800708679,1.0010692792916416,6.745406973984473
13,22,male,65,165,165,same,valid,anti,4,0,2,0.7116095379456056,1,f,same,1.0723716704490016,0,0.49955740689188133,0.035296479652743074,0.35332336109058815,1.0010853152737127,7.098351244456353
13,22,male,66,105,155,change,valid,clock,5,0,2,0.3787801620787832,1,f,same,0.8978556043191475,0,0.5004932668118727,0.03529647965297045,0.35332432324958063,1.001108407088168,6.557847239951116
13,22,male,67,135,185,change,valid,clock,1,1,2,0.5144525892978891,1,f,same,0.9334208470334033,0,0.49978832503506965,0.035332720972746756,0.35329577920106203,1.0010147569523724,6.698433092109553
13,22,male,68,75,125,change,catch,clock,5,1,2,0.5186742219661937,1,f,same,0.9538048254194109,0,0.49965811285983364,0.035337211047590245,0.3533188710155173,1.0010628648988131,6.745275158210916
13,22,male,69,45,45,same,catch,clock,5,0,1,0.3333601668769006,0,f,same,0.9729370350366935,0,0.4999002561908128,0.03533977680467615,0.3533355484369167,1.0010397730845852,6.592365012309301
13,22,male,70,45,45,same,valid,anti,3,0,3,0.3783882426744185,1,j,change,1.1776385925795694,0,0.5000753691160753,0.03532149578518329,0.3533220782119315,1.0010965404612762,6.792507860838441
13,22,male,71,165,165,same,valid,anti,2,0,1,0.6215238801432861,0,f,same,0.7047717951447794,0,0.5000583709750117,0.03531347779403404,0.35331855029585313,1.0010513189915855,6.61618261519925
13,22,male,72,135,85,change,valid,anti,5,2,1,0.34437271727802,0,j,change,0.8243097792551453,0.2114075473277866,0.4997427828459422,0.03533047593532501,0.35330475935143113,1.0010917296667685,4.979276700230912
13,22,male,73,45,355,change,valid,anti,4,0,3,0.44115403907903783,1,f,same,1.3815024304133203,0,0.49924374308034203,0.035368962292523065,0.3533371520352375,1.0010577333846413,7.075242111259058
13,22,male,74,45,45,same,valid,clock,2,1,1,0.22096717498607177,0,f,same,1.3367745482021292,0,0.4992706835305398,0.03534779479605277,0.35330572150996886,1.0010558090666564,6.82729888633321
13,22,male,75,105,105,same,valid,clock,5,2,1,1.0451916428157801,0,j,change,2.310874512666487,0.23095419253833374,0.5004743443528241,0.035327589458347575,0.3533272097263307,1.0010359244486153,7.1819577240196395
13,22,male,76,165,215,change,valid,clock,3,0,1,1.144064377412633,0,j,change,0.8310410431340642,0,0.4997142387974236,0.03532309938373146,0.3532925720046478,1.001088843189791,7.252265884281769
13,22,male,77,165,165,same,catch,clock,1,0,3,1.0021994953153808,1,j,change,0.9083027259889604,0,0.49937395525557804,0.03529359317599301,0.35330668366896134,1.0010939747044176,7.216370300334802
13,22,male,78,165,115,change,catch,anti,2,1,1,0.2741120235227754,0,j,change,0.781076771302196,0,0.5003354727473379,0.03534490831907533,0.35332015389394655,1.0010275857380293,6.310092918895407
13,22,male,79,105,155,change,valid,clock,2,2,2,1.681822380329777,1,f,same,3.1558116965170484,0.24980014920508894,0.5001606805412848,0.03525927617420166,0.35337082759770055,1.0010509982721487,8.642592915687601
13,22,male,80,75,125,change,catch,clock,3,0,1,0.30495050012996217,0,j,change,1.4891141338580383,0,0.49914881006588985,0.03528910310114952,0.3533371520352375,1.0010619027398207,7.039283986981445
13,22,male,81,15,15,same,catch,clock,2,2,2,1.0019541447882148,1,f,same,2.5013050082293375,0,0.5000128287856569,0.03531091203694814,0.3533214367726032,1.0010724864882832,8.806681744766138
13,22,male,82,15,325,change,valid,anti,1,0,1,0.2680796077470404,0,f,same,0.4660588815609117,0,0.5000218089357986,0.03533047593509764,0.35330636294975193,1.0010330379718653,6.039459420626372
13,22,male,83,165,115,change,catch,anti,4,2,1,0.7385191989196755,0,j,change,0.9195955853579107,0,0.4993412418521075,0.03532213722473898,0.3533259268474467,1.001032396532537,6.933289351979511
13,22,male,84,75,75,same,valid,anti,4,0,2,0.4095621920287158,1,j,change,0.9255176735764508,0,0.500260424350472,0.03531187419594062,0.35332528540811836,1.0010410559630145,6.604629652198582
13,22,male,85,135,185,change,valid,clock,1,2,1,0.2034513923722443,0,f,same,0.553925159429582,0.2445809235765529,0.49975015939753575,0.03528557518529851,0.3533477357832453,1.0010609405808282,4.496221922598579
13,22,male,86,45,95,change,valid,clock,3,0,2,0.40433670687662016,1,f,same,1.132293645774098,0,0.4995958932490794,0.03531059131728398,0.3533470943443717,1.0010564505059847,6.733410134997484
13,22,male,87,105,55,change,valid,anti,3,2,2,0.37995239237625356,1,f,same,2.1938346138599627,0.26128149055407673,0.500346697934674,0.03530353548512721,0.3533034764727745,1.0010859567128136,6.428712361946054
13,22,male,88,165,215,change,catch,clock,4,1,1,0.2831030780102992,0,f,same,1.3224701313797596,0,0.49907761030499387,0.03534426687974701,0.35323869110470696,1.0010423388416712,6.8623490532995675
13,22,male,89,165,165,same,valid,clock,1,2,2,1.5439222344666632,1,f,same,1.0712109860587589,0.25646199062601543,0.5002196929558522,0.035337211047590245,0.35330572150996886,1.0010612613004923,6.392554108611421
13,22,male,90,165,215,change,valid,clock,4,0,1,1.3616261512229357,0,j,change,2.715134246828711,0,0.5002126371236955,0.03533432457061281,0.3533207953332749,1.0010436217203278,9.383810649688257
13,22,male,91,165,165,same,valid,clock,3,2,2,0.427729676958279,1,f,same,1.0760872075197767,0.2521297392186089,0.4998585626372005,0.03532213722473898,0.35329321344397613,1.0010340001308577,5.285123611765357
13,22,male,92,165,215,change,valid,clock,5,0,2,0.34333711354884144,1,f,same,1.0799727260014151,0,0.49956734920078816,0.03543278550114337,0.35332015389394655,1.0010323965329917,6.651168638237323
13,22,male,93,45,95,change,valid,clock,1,0,1,0.923162629233957,0,j,change,1.974091305033653,0,0.49985471400168535,0.03534426687974701,0.3533198331742824,1.0010785801614475,8.1705417083067
13,22,male,94,165,165,same,valid,clock,4,0,1,0.8384086147862035,0,j,change,1.1582629567528784,0,0.49993425247294,0.0353112327566123,0.35331245662246147,1.001070241450634,7.322376801962946
13,22,male,95,135,185,change,valid,clock,5,2,2,0.6262083112569599,1,j,change,1.0322794699659426,0.24782261141706913,0.5001016681267174,0.03534394616008285,0.35328359185496083,1.0010407352433504,5.4032764077346656
13,22,male,96,165,165,same,valid,clock,3,0,1,0.3105278147318131,0,f,same,1.6964545726282267,0,0.49959621396874354,0.03533047593509764,0.3533063629492972,1.0010404145236862,7.216240408879003
13,22,male,97,45,355,change,valid,anti,3,0,2,0.30167948048574544,1,j,change,2.544249689222397,0,0.499895124676641,0.0353064219616499,0.3533480565033642,1.0010481117951713,8.088340622221494
13,22,male,98,135,135,same,catch,anti,3,2,2,0.2591007406058452,1,f,same,0.8534914181836939,0,0.5001552283074489,0.03534394616008285,0.353257292843864,1.001090767507776,6.439833957025712
13,22,male,99,165,215,change,valid,clock,2,2,2,0.32894834746002743,1,j,change,1.171509640190834,0.2439240744297595,0.49986273199237985,0.035300328288940364,0.35331566381910307,1.0010352830090596,5.249548426741967
13,22,male,100,15,15,same,valid,anti,5,2,2,0.9706406823888756,1,f,same,1.511879455597409,0.24000099524137378,0.5000471457874482,0.03527146352053023,0.35335382945686433,1.001045546037858,6.204272113940078
13,22,male,101,135,85,change,catch,anti,3,0,1,0.571608678416851,0,j,change,3.308171808230327,0,0.5120330803069919,0.03529198957812696,0.35332945476375244,1.0010615820206112,9.13644856875635
13,22,male,102,135,135,same,valid,anti,1,0,2,0.4262578945140376,1,j,change,1.015708206702584,0,0.5006629275030718,0.03529423461577608,0.3533342655582601,1.0010372073270446,6.746967916489666
13,22,male,103,45,45,same,valid,clock,5,1,1,0.28843279704733504,0,f,same,0.8838962818331311,0.002523201076304493,0.4991228317749119,0.03533175881329953,0.3533018728744537,1.0010628648988131,4.919161972400161
13,22,male,104,135,185,change,valid,clock,2,2,3,1.0572840562567762,1,j,change,0.9536069413993573,0.2363877823144929,0.4999419497444251,0.03533881464591104,0.3533842978231405,1.0010420181215522,5.709403628237396
13,22,male,105,165,115,change,valid,anti,4,0,1,0.5351806998619395,0,f,same,0.5065430014483354,0,0.49971455951708776,0.03532438226193335,0.35329385488330445,1.0010721657681643,6.309304910730589
13,22,male,106,165,215,change,valid,clock,1,2,3,0.4961074256862048,1,j,change,1.1360255395466083,0.2330516632554939,0.500071199760896,0.035313798513925576,0.3533291340440883,1.0010522811503506,5.3442181304098995
13,22,male,107,15,15,same,valid,anti,2,2,3,3.7228141994132784,1,f,same,1.4301337914066607,0.22963528669912503,0.5002585000329418,0.035319571466970956,0.3533442078673943,1.0010538847491262,8.877873487646411
13,22,male,108,75,125,change,catch,clock,5,1,1,0.49924181876258444,0,j,change,1.343559372262007,0,0.500045221469918,0.03530866699929902,0.3533259268474467,1.001049715393492,7.110814730524908
13,22,male,109,15,65,change,valid,clock,1,2,3,2.478814543224871,1,f,same,3.0406544220181786,0.22645988013802323,0.5000343170017914,0.03528974454047784,0.35333266196039403,1.0010471496361788,9.26664631165977
13,22,male,110,15,65,change,valid,clock,5,0,1,0.49718889232417496,0,j,change,1.7969668260429899,0,0.49965362278499015,0.03531155347627646,0.35324478477787125,1.001062544179149,7.510768803471819
13,22,male,111,135,185,change,valid,clock,3,2,3,1.3871894311332653,1,j,change,1.52636604117788,0.22350182847727887,0.500470495717309,0.03528749950282872,0.35330155215478953,1.0010882017504628,6.68796191646652
13,22,male,112,45,45,same,valid,anti,3,1,1,1.042476751033064,0,j,change,1.1987550946314514,0.01239866253720856,0.4990830625392846,0.0353275894581202,0.3532178443279008,1.0011472141650302,5.956266027964375
13,22,male,113,75,125,change,valid,clock,1,1,3,0.40803813228285435,1,f,same,1.0818059594844271,0.02201775757697569,0.49927164568907756,0.03533849392624688,0.35327878105999844,1.0010715243292907,5.190354164288237
13,22,male,114,105,105,same,valid,clock,2,2,3,1.7649330273243322,1,f,same,0.9549472287899334,0.2204524529200199,0.5000574088162466,0.03532342010294087,0.3533333033992676,1.0010368866078352,6.427603954858114
13,22,male,115,165,165,same,valid,clock,1,1,1,0.5715823794062089,0,j,change,4.262199533802232,0.016409888033720454,0.5005150757478987,0.03528333014719465,0.35332271965125983,1.0010763351237983,8.595939432736941
13,22,male,116,15,15,same,valid,clock,1,0,2,1.3795370604379968,1,j,change,1.1963862593443082,0,0.49929826541983857,0.0353064219616499,0.35336729968184954,1.0010477910755071,7.840624787523211
13,22,male,117,75,125,change,catch,clock,4,1,1,0.25633806159612504,0,j,change,4.792661806267461,0,0.5005535621048693,0.03474387970709358,0.3533012314351254,1.001073448646821,10.372952686155259
13,22,male,118,135,135,same,valid,anti,4,0,3,0.616246438408325,1,f,same,1.1099997819105738,0,0.5005955763781458,0.03531828858831432,0.3533201538944013,1.0010570919448583,6.994053857808012
13,22,male,119,75,75,same,valid,clock,2,0,1,0.2565333798588654,0,j,change,0.5242611581575147,0,0.49928639879317416,0.03530866699929902,0.3533137395011181,1.001083390955955,6.0972142933196665
13,22,male,120,165,215,change,valid,clock,2,1,1,0.21212012361820598,0,j,change,0.8680395819355908,0.025720146530186783,0.4997248225458861,0.03536639653520979,0.3532739702654908,1.0010445838788655,4.838249537842785
13,22,male,121,135,85,change,catch,anti,5,2,1,0.24350895513362047,0,j,change,0.764317566327918,0,0.499094929165949,0.035316684990448266,0.3533086079869463,1.0010349622898502,6.273328184714046
13,22,male,122,45,95,change,catch,clock,1,2,2,2.2170534331758063,1,j,change,0.6378555658329788,0,0.5003136638115393,0.035316684990448266,0.3533544708957379,1.0010692792916416,8.159582076646984
13,22,male,123,45,45,same,valid,anti,5,2,3,0.9218932208846127,1,f,same,1.1563774459682463,0.21755781504954214,0.5003098151755694,0.03532342010294087,0.3532999485569235,1.0010766558430078,5.88606370518437
13,22,male,124,15,15,same,valid,clock,4,0,1,0.466863246426783,0,j,change,0.7082913725130311,0,0.49989159676033523,0.03530994987795566,0.3533426042690735,1.0010012867273872,6.451277875347387
13,22,male,125,15,65,change,valid,clock,2,2,3,1.0826757511572396,1,f,same,1.592163279653505,0.21486056070258036,0.49944451357760045,0.03532374082260503,0.3533098908651482,1.0010824287974174,6.474090022155451
13,22,male,126,165,165,same,valid,anti,2,2,3,0.7597238988732897,1,f,same,1.2332295698379312,0.21208910309889498,0.5004624777261597,0.03525895545499225,0.35335928169024555,1.0010388109258201,5.733795640008793
13,22,male,127,135,85,change,catch,anti,2,2,1,0.3012926925953252,0,j,change,0.639349157212564,0,0.499211350396763,0.03539269554585189,0.3532996278368046,1.0010509982721487,6.238303675319003
13,22,male,128,45,45,same,valid,anti,5,1,1,0.19850461259011354,0,j,change,0.6222038057876489,0.0348905637769264,0.5008790925430731,0.03532983449576932,0.3533009107154612,1.0010696000113057,4.615113015187944
13,22,male,129,15,15,same,valid,clock,3,1,1,0.13230711599908318,0,j,change,0.45991421390999676,0.04330252935537346,0.5000654268073959,0.03531027059716507,0.3533336241193865,1.0010054560825665,4.354743828391747
13,22,male,130,75,25,change,valid,anti,2,0,1,0.3523836525346269,0,j,change,0.1252362100171922,0,0.4999188579299698,0.035317005710112426,0.3533018728744537,1.0010516397110223,5.685180635717643
13,22,male,131,45,95,change,valid,clock,2,2,3,0.6473337934589836,1,j,change,1.8094415372993353,0.20940542652649669,0.5007536911625721,0.03529327245632885,0.35329706207994604,1.0010692792916416,6.169777754115785
13,22,male,132,45,355,change,valid,anti,1,0,1,0.24426617421204355,0,j,change,0.5610037626825033,0,0.49975176299585655,0.035351001992694364,0.3532778189014607,1.0010449045985297,6.0737703288145894
13,22,male,133,15,65,change,valid,clock,4,2,3,0.4203637089044605,1,j,change,2.476689454866573,0.206871777636932,0.5000974987715381,0.035333683131739235,0.3532774981813418,1.0010914089471044,6.687223940566582
13,22,male,134,105,155,change,valid,clock,3,1,1,1.0793043462640526,0,f,same,1.088654927472362,0.051677285151449814,0.4993091698875105,0.03535517134787369,0.3533012314351254,1.0010429802805447,5.95618873452986
13,22,male,135,105,155,change,catch,clock,2,1,1,0.20117332074414662,0,j,change,0.5398186266270386,0,0.49947850985972764,0.03533111737442596,0.3533410006707527,1.001084994554276,5.9913056111827245
13,22,male,136,75,75,same,catch,clock,2,2,3,0.5982620843956283,1,j,change,1.0067655808807103,0,0.5006382320907505,0.03529263101700053,0.3533185502960805,1.0010198884665442,6.8639872892390486
13,22,male,137,135,135,same,catch,anti,1,0,3,0.3782394287600255,1,f,same,1.1989933893264606,0,0.5006725490925419,0.035318930028097384,0.3532996278368046,1.0010519604311412,6.899116353238242
13,22,male,138,75,25,change,catch,anti,5,2,1,0.8709469055042973,0,j,change,1.100272355121433,0,0.5003175124470545,0.03536094430137382,0.3532887233686779,1.0010792216007758,7.287571985523755
13,22,male,139,15,15,same,valid,clock,1,2,3,0.5220716051508134,1,f,same,1.1774201825023738,0.20448407403273117,0.5002334839005016,0.03527370855817935,0.3533535087372002,1.0010449045985297,5.450477359117485
13,22,male,140,45,45,same,valid,anti,4,0,3,0.5920398025905342,1,f,same,0.9378746807233256,0,0.4996138535489081,0.03535934070305302,0.3532973827996102,1.0010766558434625,6.780286197380974
13,22,male,141,15,65,change,valid,clock,4,1,3,1.0943967712514677,1,f,same,4.874320876154798,0.06002053926207926,0.5001539454287922,0.03526376624904515,0.35335286729787185,1.0010692792916416,9.690350315652267
13,22,male,142,165,165,same,valid,anti,1,0,3,1.447817310393475,1,j,change,1.4518198915457106,0,0.5000105837480078,0.035302252606470574,0.35336056456935694,1.0010596577021715,8.182861191255142
13,22,male,143,105,105,same,valid,clock,3,1,3,0.5577500618992417,1,j,change,1.4286786863835914,0.0552052623144651,0.4993803696484065,0.03533207953341844,0.35330315575311033,1.0010599784218357,5.709202216301037
13,22,male,144,45,45,same,valid,clock,5,2,3,0.5008774889447523,1,f,same,0.5308493810753134,0.2020065393606588,0.49903238883507584,0.03538179107817996,0.35329225128498365,1.0010538847491262,4.825086241512054
13,22,male,145,75,75,same,valid,clock,1,2,3,0.6424206892393158,1,f,same,1.4676496509928256,0.19958795727367937,0.5003034007827409,0.035317005710112426,0.3532832711352967,1.0010612613004923,5.839816253301706
13,22,male,146,165,165,same,valid,anti,3,2,3,0.5129426412163411,1,f,same,2.275771747678391,0.19728167109776504,0.49948652785042214,0.035318609308433224,0.35337243119602135,1.0010561297863205,6.544748408268333
13,22,male,147,75,75,same,valid,clock,4,0,1,0.483765492362636,0,j,change,0.4189223948264953,0,0.5004647227633541,0.03531059131728398,0.353373714074678,1.0010500361127015,6.227798503393842
13,22,male,148,75,75,same,valid,anti,4,1,1,0.6825282842655724,0,j,change,1.3587941967703046,0.050725492049903675,0.5006128952386462,0.035297441811962926,0.3533070043886255,1.0010891639094552,5.756871418363517
13,22,male,149,135,135,same,catch,clock,1,2,3,0.28905178595960024,1,j,change,1.1626683617764684,0,0.49995574068907445,0.03530481836378385,0.3533644132048721,1.0010372073274993,6.675433965749562
13,22,male,150,105,105,same,valid,anti,3,0,1,0.45818104495629086,0,j,change,0.33349294480922254,0,0.49962123010118376,0.03534330472075453,0.3533252854085731,1.0010734486472757,6.038565895699321
13,22,male,151,75,25,change,catch,anti,1,2,1,1.6443825312990157,0,j,change,0.48858334284841476,0,0.5108669436826858,0.03532309938327671,0.35330219359411785,1.0010657513757906,7.4279743860465715
13,22,male,152,75,75,same,valid,anti,1,0,3,0.37967272484684145,1,j,change,1.4935599495570386,0,0.49981237900829,0.035335286730060034,0.35330508007064054,1.0010712036096265,7.145517237397598
13,22,male,153,15,15,same,valid,anti,3,1,1,0.13054604443641438,0,j,change,0.27159437432101186,0.05822645216783967,0.5000705583215677,0.03528749950282872,0.3533387556335583,1.0010657513753358,4.155080776449267
13,22,male,154,15,15,same,valid,anti,5,0,1,0.08922292196120907,0,j,change,1.330952845232332,0,0.49935823999339846,0.03534554975840365,0.35331662597809554,1.0010333586915294,6.674231587805934
13,22,male,155,135,85,change,valid,anti,4,2,3,0.499808851092439,1,j,change,1.2157227673742454,0.19510208252762565,0.4998996147514845,0.035283330147649394,0.35332400252991647,1.0010728072074926,5.438263392931276
13,22,male,156,135,185,change,valid,clock,3,1,3,0.7615321162234068,1,f,same,1.113967725340899,0.06582118782564145,0.4999746631478956,0.035384998274821555,0.353227786637035,1.001068317132649,5.603422142740783
13,22,male,157,75,75,same,valid,anti,5,1,1,0.26113282026744855,0,j,change,0.7663124425112073,0.06165405256291098,0.49968761906711734,0.03534202184255264,0.35325600996520734,1.0010808251986418,4.778299018469625
13,22,male,158,135,185,change,valid,clock,4,2,3,0.40267281336537053,1,j,change,1.0619643180152707,0.19301081827970976,0.5005025676814512,0.03531155347627646,0.3532977035188196,1.0010824287974174,5.168729963040278
13,22,male,159,75,75,same,valid,anti,3,2,1,0.45606621962633653,0,j,change,1.2797419361463653,0.19080247476255735,0.4997286711814013,0.03531187419594062,0.35331277734212563,1.0010554883469922,5.426917935540132
13,22,male,160,15,15,same,valid,anti,2,1,3,0.28172622858073737,1,j,change,1.2867381144505998,0.06859714904931788,0.4997540080330509,0.035351964151232096,0.35330540079075945,1.0010542054683356,5.27278873427349
13,22,male,161,105,155,change,catch,clock,2,1,1,0.378948860611672,0,j,change,0.3121092832943759,0,0.5002597829115984,0.03535773710473222,0.35323965326369944,1.001107124209284,5.898314874848893
13,22,male,162,15,15,same,valid,clock,4,2,3,0.5709111131923237,1,f,same,1.1129888889886388,0.19830418280779824,0.5003210403633602,0.035304497643664945,0.3533307376424091,1.0010737693669398,5.451151832528012
13,22,male,163,75,75,same,catch,anti,1,0,1,0.31579595559696827,0,j,change,0.4840018627396603,0,0.49979313582980467,0.03534619119773197,0.3532749324240285,1.0010805044794324,6.073931009356329
13,22,male,164,165,115,change,catch,anti,5,1,1,0.17745097158831413,0,j,change,0.2851669089168354,0,0.500271328818144,0.03532309938327671,0.3532832711352967,1.0010760144041342,5.721529717241083
13,22,male,165,105,105,same,valid,anti,2,1,1,0.21550531945604234,0,j,change,0.3062417174151051,0.06461678702186063,0.5004364994351818,0.03532855161711268,0.35330443863176697,1.0010166812699026,4.249027898760687
13,22,male,166,75,75,same,valid,anti,3,1,1,0.906060254240856,0,j,change,1.1253381988644833,0.07108212632565053,0.4999778703445372,0.03530930843862734,0.35332688900643916,1.0010686378523133,5.721240748841865
13,22,male,167,165,115,change,valid,anti,5,1,3,0.13264836169992122,1,j,change,1.7461811912039593,0.07763888997465791,0.4997068622456027,0.03534298400109037,0.3532560099656621,1.0010875603111344,5.603397447328462
13,22,male,168,105,55,change,valid,anti,2,2,3,0.3206962310309791,1,j,change,2.0214814810065036,0.19631626184206016,0.499844450972887,0.03530834627963486,0.35333105836207324,1.0010647892163433,6.050749072799135
13,22,male,169,135,135,same,valid,clock,5,0,1,1.824298233348145,0,j,change,0.6428084392882738,0,0.500179603000106,0.03526120049218662,0.35339007077664064,1.001017643428895,7.675821074359192
13,22,male,170,165,165,same,valid,anti,5,1,2,1.666995190488251,1,f,same,1.309609594392441,0.07391896823327909,0.5006128952386462,0.03531508139212747,0.35333266196039403,1.0010580541038507,6.699698972542592
13,22,male,171,45,45,same,valid,anti,4,1,1,1.4943453919640888,0,f,same,3.654662237314824,0.07019013650049608,0.49977357193165517,0.03536479293688899,0.35331213590325206,1.0010843531149476,8.935968643882006
13,22,male,172,75,75,same,valid,anti,4,2,3,0.46460762517381227,1,f,same,1.2398075297273863,0.19441723264371769,0.4998434888138945,0.03527755719414927,0.3533554330547304,1.0010439424395372,5.403199755739934
13,22,male,173,45,45,same,catch,clock,3,2,1,1.8096342898047624,0,j,change,1.7145608001060282,0,0.4999990378410075,0.0353195714674257,0.353307966547618,1.001064468497134,8.747903455689993
13,22,male,174,45,45,same,catch,clock,2,0,3,0.7610112675229175,1,j,change,1.076115751568068,0,0.5004493282208387,0.03536158574024739,0.3532890440887968,1.0010641477774698,7.111110113316954
13,22,male,175,45,45,same,catch,clock,5,1,1,0.15601086341575865,0,j,change,1.3811236605142767,0,0.5000503529840898,0.0353195714674257,0.3533509429798869,1.0010266235790368,6.792463922247407
13,22,male,176,105,105,same,valid,clock,4,0,1,0.2277167198844836,0,j,change,0.5672023112342686,0,0.5004435552668838,0.035368320853194746,0.3532435018992146,1.0010461874771863,6.157548714106724
13,22,male,177,75,25,change,valid,anti,3,0,1,0.36809763219116576,0,j,change,0.4295645140391571,0,0.49939127411653317,0.03537858388153836,0.35329385488330445,1.001070241450634,6.097225197787793
13,22,male,178,105,105,same,catch,anti,1,0,1,0.23675620303902178,0,j,change,0.5470030673627662,0,0.4998492617678494,0.03529936612949314,0.3533121359027973,1.0010869188722609,6.086231569845495
13,22,male,179,75,75,same,catch,clock,1,1,3,0.1718454336578361,1,j,change,1.063065348551845,0,0.49974855579921496,0.035334966010395874,0.35332111605293903,1.0010282271773576,6.439528952645105
13,22,male,180,135,135,same,valid,clock,2,0,1,0.5170459283358468,0,j,change,0.8902725090670174,0,0.4997251432655503,0.0353080255599707,0.3532880819298043,1.0010789008811116,6.745525319533044
13,22,male,181,45,95,change,valid,clock,5,0,1,0.7215807116640462,0,j,change,1.0837049404940444,0.0035522851807953115,0.4996574714205053,0.03529295173711944,0.35329449632263277,1.001143365529515,5.650331559967526
13,22,male,182,45,95,change,valid,clock,2,1,3,0.6570737283145718,1,j,change,0.8846926287078531,0.07624232712379014,0.4995214862915418,0.0353391353655752,0.35330989086560294,1.0010465081968505,5.273243194008046
13,22,male,183,15,325,change,valid,anti,3,0,1,0.28720412009261054,0,j,change,0.5362236801424842,0.007100075701250735,0.49955259609760105,0.03533207953296369,0.3533403592318791,1.0010622234594848,4.590265581522544
13,22,male,184,165,165,same,valid,clock,3,1,3,0.5052662165471702,1,f,same,0.8388848834570126,0.07286711381471123,0.5001231563433066,0.03531540211179163,0.3532605000405056,1.0010362451680521,5.144835387435705
13,22,male,185,165,215,change,valid,clock,3,1,3,0.273365708912479,1,j,change,1.022585398019146,0.0694436220429899,0.4994425892596155,0.03529231029779112,0.3533323412402751,1.0010628648988131,5.037619452031322
13,22,male,186,165,165,same,catch,clock,5,0,1,0.2991679249566914,0,j,change,0.299819306552763,0,0.4997168045547369,0.035340738963896,0.3533002692761329,1.0010519604306864,5.838478531668443
13,22,male,187,45,355,change,valid,anti,1,2,3,0.7607046595430802,1,j,change,0.9940426326206762,0.1924262447590836,0.500710394010639,0.03527948151167948,0.3533297754834166,1.00108531527394,5.55710862261185
13,22,male,188,105,55,change,valid,anti,5,1,3,0.21594246033055242,1,j,change,1.0929618715658762,0.06624393113164448,0.49961641930622136,0.03532566514058999,0.35330219359411785,1.0010307929342162,4.978283431495129
13,22,male,189,75,75,same,valid,anti,2,1,1,0.3027554948894249,0,j,change,0.2628813837641246,0.06322835482040484,0.5001873002715911,0.03528429230664187,0.3533339448385959,1.0010359244488427,4.284209881500374
13,22,male,190,105,55,change,valid,anti,5,2,3,0.24419850236745333,1,j,change,1.389842103305,0.19046942687266924,0.5002059020112029,0.03528461302630603,0.35333009620308076,1.0010779387221191,5.332525012925089
13,22,male,191,45,45,same,catch,anti,3,2,1,1.1991130177534615,0,j,change,1.0952579034942573,0,0.5004538182956821,0.03532406154226919,0.35331245662246147,1.0010641477774698,7.523915101661714
13,22,male,192,45,355,change,valid,anti,2,2,3,0.23501084673807782,1,j,change,0.7537710215692641,0.1885478283073279,0.4994993566365338,0.03535966142271718,0.35327942249932676,1.0010817873576343,4.707453652804361
13,22,male,193,105,155,change,valid,clock,5,2,3,0.7834250805326519,1,f,same,1.3917709112411103,0.18672576299911936,0.500641118567728,0.035305780522321584,0.3533371520352375,1.0010509982721487,5.9579029810251996
13,22,male,194,75,25,change,valid,anti,5,2,3,1.494752705911651,1,f,same,1.7290730432573582,0.18498251073705857,0.49902693660123987,0.03530674268131406,0.3533371520352375,1.0010705621702982,6.945193823709815
13,22,male,195,45,45,same,valid,clock,4,2,3,0.4600578963099906,1,f,same,0.7163314932577123,0.1831549068611357,0.5000426557126048,0.03530610124198574,0.35337178975669303,1.001070241450634,4.9208419018928
13,22,male,196,105,105,same,valid,clock,5,1,3,0.2985864602428592,1,j,change,0.8538766024757933,0.06826044359380512,0.4998110961300881,0.03535998214238134,0.35329609992095357,1.0010586955436338,4.813805248769313
13,22,male,197,165,165,same,valid,clock,5,1,1,1.250213920002352,0,j,change,1.1645801715721973,0.06533252558733951,0.5005198865424063,0.03530898771896318,0.3533108530245954,1.0010635063376867,6.121842675468997
13,22,male,198,75,125,change,valid,clock,5,1,3,0.2054805855568702,1,j,change,0.7133260294776846,0.07051989576210499,0.5005064163169664,0.03530385620479137,0.35335126369955105,1.0010384902057012,4.590800541888257
13,22,male,199,15,65,change,valid,clock,2,1,3,0.5245007357307259,1,f,same,0.8428066432584274,0.06762117490242686,0.5005263009352348,0.03524388163123149,0.3533544708957379,1.0010856359931495,5.120822466282789
13,22,male,200,75,75,same,valid,clock,3,1,3,0.26772906117685125,1,f,same,1.156676677395808,0.06491145022535755,0.5005080199152872,0.03531604355111995,0.3533153430994389,1.0010487532344996,5.16789128117216
13,22,male,201,75,25,change,valid,anti,4,1,3,1.6866081588509587,1,f,same,1.779748350538739,0.06218070225811004,0.5127979966569001,0.03531187419548587,0.35328519545328163,1.001092050385978,7.194318900521466
13,22,male,202,165,215,change,valid,clock,2,0,3,1.0368878905242127,1,f,same,0.7094658478481506,0.010884188309203596,0.5000660682467242,0.03533304169195617,0.3532409361423561,1.001084673834157,5.438606883669763
13,22,male,203,75,75,same,valid,clock,1,1,1,0.42465718277298947,0,j,change,0.29882154774168157,0.059493917431061555,0.5000635024894109,0.0353080255599707,0.35333266196039403,1.0010939747039629,4.413716794291759
13,22,male,204,15,65,change,valid,clock,1,1,3,2.5841302147409806,1,f,same,5.215329885811116,0.06395540016737172,0.5005567693010562,0.035246447388544766,0.3533679411207231,1.0010718450489549,11.516062601908743
13,22,male,205,105,155,change,valid,clock,2,1,1,0.7684545290103415,0,j,change,1.1179982091016427,0.061391525382235135,0.5002126371236955,0.03529519677431381,0.353326568286775,1.0010994269382536,5.544772782961445
13,22,male,206,45,355,change,catch,anti,4,0,1,1.7532953943373286,0,j,change,1.0259298624623625,0,0.5002575378734946,0.03534138040322432,0.3532460676565279,1.0010708828895076,7.982944770794802
13,22,male,207,45,45,same,catch,anti,1,0,1,0.8417954142223607,0,j,change,0.3902109308951367,0,0.5002431054895169,0.03532502370126167,0.3532980242384838,1.0011045584528802,6.4282107564240505
13,22,male,208,75,75,same,valid,clock,5,0,3,2.6971062749439625,1,j,change,2.2395310693946158,0.007002356066573456,0.49981686908358824,0.03533047593509764,0.3532919305653195,1.0010955783027384,8.688686742861137
13,22,male,209,75,125,change,catch,clock,3,1,1,0.9020130930584855,0,f,same,1.7539817343749746,0,0.49979345654946883,0.03534971911358298,0.35324702981552036,1.0011199529949408,7.911280607879235
13,22,male,210,15,325,change,catch,anti,2,1,1,1.434910910497365,0,j,change,0.3268716877678344,0,0.5000609367320976,0.035300328288485616,0.35334356642806597,1.0010487532344996,7.063502810145565
13,22,male,211,75,125,change,valid,clock,3,2,3,0.510039487002814,1,j,change,1.0816282808013966,0.18136075781663552,0.5001956389828592,0.03529231029733637,0.35326146219949806,1.0010744108058134,5.321403738564641
13,22,male,212,165,165,same,catch,anti,4,0,1,0.20324709395936225,0,j,change,0.26398145214170654,0,0.49921102967709885,0.03531540211179163,0.3533147016601106,1.0010429802809995,5.685283907443136
13,22,male,213,45,95,change,catch,clock,3,1,1,0.13440750894460507,0,j,change,0.2582312696522422,0,0.4995596519293031,0.035334324571067555,0.3532653108350132,1.0010574126649772,5.614396527504141
13,22,male,214,105,155,change,valid,clock,1,0,1,0.1758553913614378,0,j,change,1.1434062607040687,0.0033746191640910694,0.5008762060660956,0.03529359317599301,0.3533464529050434,1.0010234163823952,5.027164633090251
13,22,male,215,165,115,change,valid,anti,2,2,3,0.910561554438118,1,j,change,0.7721039978341651,0.17957590166207552,0.499688901945774,0.03536735869420227,0.3533018728744537,1.0010282271773576,5.344262710440489
13,22,male,216,45,45,same,catch,anti,5,2,1,0.1975004393857489,0,j,change,0.22526994972395187,0,0.49952437276851924,0.0353195714674257,0.3533320205210657,1.001040093804022,5.614401979738432
13,22,male,217,75,125,change,valid,clock,2,2,3,0.18366876331811,1,j,change,1.1750754011882236,0.17784904494270376,0.5005509963480108,0.0353307966547618,0.3532800639386551,1.0010801837593135,5.050818027522837
13,22,male,218,135,85,change,catch,anti,5,0,1,0.7630055022664237,0,f,same,3.7440868919316017,0,0.4997719683337891,0.03535356774909815,0.3533086079869463,1.0010567712256488,10.160970151264337
13,22,male,219,165,215,change,valid,clock,5,1,3,0.5169304692640253,1,j,change,0.6759599459655874,0.06557511524756879,0.49990987778028284,0.03530930843862734,0.35336184744755883,1.0010564505059847,4.861511654310561
13,22,male,220,45,45,same,catch,clock,5,2,1,0.16233673766555512,0,j,change,1.5488953132598908,0,0.49989672827450704,0.03531251563526894,0.35328391257417024,1.0010958990224026,6.910689842296051
13,22,male,221,15,15,same,valid,clock,3,2,3,1.9056131710576665,1,f,same,1.0445155658071599,0.1762031235811337,0.49980756821378236,0.03531219491560478,0.3533214367726032,1.0010330379718653,6.557532613980584
13,22,male,222,165,165,same,valid,clock,4,1,3,0.5184869216941479,1,f,same,1.4984862032824822,0.06322317251201962,0.49922610350040486,0.03535068127257546,0.3533047593509764,1.0010442631596561,5.7562396006655945
13,22,male,223,165,165,same,valid,anti,5,2,3,1.2367404877763875,1,f,same,1.9541659557385174,0.17461689442417877,0.49974663148168474,0.03534138040322432,0.3533159845387672,1.0010715243292907,6.898932260162383
13,22,male,224,165,165,same,valid,clock,5,2,3,0.3090871420931762,1,f,same,0.6864593449367931,0.17294259599402176,0.4998518275247079,0.035353888469217054,0.35329064768666285,1.0010747315254775,4.731709038007921
13,22,male,225,45,355,change,valid,anti,3,1,1,0.743984582365556,0,j,change,0.4057151599045028,0.060801264418501005,0.500089801500053,0.03535966142271718,0.3532848747331627,1.0010340001308577,4.849653045489504
13,22,male,226,105,105,same,valid,anti,4,2,3,1.146918782240391,1,f,same,1.3528753157484061,0.17129035732196968,0.500273894575912,0.03532694801879188,0.3532922512854384,1.0010420181215522,6.286764734181361
13,22,male,227,45,355,change,catch,anti,3,0,1,2.64481037130372,0,j,change,0.3995951876659092,0,0.5001590769434188,0.03536254789923987,0.35328551617249104,1.001057091945313,8.276918641123757
13,22,male,228,45,95,change,valid,clock,5,2,3,0.21721667947440437,1,j,change,1.6911020824968546,0.16963823085416446,0.5005288666920933,0.03531155347627646,0.353266914433334,1.0010731279271567,5.604027340707944
13,22,male,229,105,155,change,valid,clock,4,2,3,1.2368341379124104,1,f,same,2.416009298303834,0.16802762521345307,0.49946760539160096,0.035317967869104905,0.3532605000405056,1.001058374823515,7.381210896257471
13,22,male,230,15,15,same,catch,anti,2,1,1,0.18555908489679496,0,j,change,0.250663248222736,0,0.5000952537343437,0.035321816504620074,0.3532460676565279,1.00107569368447,5.650710329866797
13,22,male,231,75,75,same,valid,clock,2,2,3,0.5929249888067716,1,f,same,1.486524002016722,0.16648920073186282,0.5001593976630829,0.035320533625963435,0.353314060221237,1.0010307929342162,5.8278633529057515
13,22,male,232,45,45,same,valid,anti,1,2,3,0.6635413606468319,1,f,same,0.9017023157243784,0.16500462661115878,0.49907696886566555,0.03532823089790327,0.3533044386313122,1.0010763351237983,5.414259772648165
13,22,male,233,135,135,same,valid,clock,2,1,3,0.32908112539234935,1,f,same,0.8929813071763419,0.06478331002218363,0.5000468250677841,0.03534971911358298,0.35341187971243926,1.0009470851073274,4.990861414476512
13,22,male,234,45,355,change,valid,anti,4,1,3,2.6376868673005447,1,j,change,1.313381898839907,0.06245870475484133,0.5003643375152933,0.03531155347582171,0.35329609992095357,1.0010859567132684,7.688845178364772
13,22,male,235,105,155,change,valid,clock,4,1,3,0.6141364238733331,1,j,change,0.9011635067231509,0.06015640764273064,0.4997498386778716,0.03541835311762043,0.35322650375792364,1.0010413766826787,5.261854760185088
13,22,male,236,45,95,change,valid,clock,3,1,3,0.3582771967048757,1,j,change,1.2160659373930685,0.05793608679651718,0.5000141116643135,0.03533304169195617,0.3533102115852671,1.0010561297863205,5.3208735889943455
13,22,male,237,165,165,same,valid,anti,4,2,2,1.2777701517775313,1,f,same,1.0959516200832695,0.16355749010581117,0.5001523418304714,0.035354529908545373,0.3533358691565809,1.0009458022291255,6.203920925930106
13,22,male,238,45,45,same,catch,clock,2,1,3,0.4097068365881569,1,f,same,1.4067321618940696,0,0.5002982692685691,0.03529680037217986,0.35335511233552097,1.0010712036096265,7.087674487522236
13,22,male,239,15,15,same,catch,anti,4,2,3,0.29321151973636006,1,f,same,0.9370959734292228,0,0.5001703021307549,0.03533111737442596,0.3532762153031399,1.001058374823515,6.557808112154362
13,22,male,240,75,25,change,valid,anti,3,1,3,0.23794479003754532,1,j,change,0.9946237766148442,0.05584556145755848,0.4996600371778186,0.0352980832508365,0.3533185502960805,1.001064468497134,4.9785146703575265
13,22,male,241,45,45,same,valid,clock,3,1,3,0.6748104867629081,1,f,same,1.562907554487083,0.05383692116142308,0.4999490055770366,0.035315402112246375,0.3532451054975354,1.0010734486472757,6.015232579471103
13,22,male,242,75,125,change,valid,clock,2,0,1,0.2872615289093119,0,j,change,0.4010175792850532,0.006645853831579479,0.4998662599086856,0.03530064900860452,0.35328102609764755,1.0010782594413286,4.390127223067793
13,22,male,243,135,85,change,valid,anti,1,0,1,0.12705821831286812,0,j,change,0.2670055176608912,0.010128973475429182,0.5001719057290757,0.03531860930797848,0.3533153430994389,1.001062544179149,4.10768162032673
13,22,male,244,105,55,change,valid,anti,1,2,3,0.16374854553669138,1,j,change,0.9378814158362729,0.1620118997539136,0.5003357934670021,0.035302894045344146,0.35330989086560294,1.0010859567132684,4.779726862322605
13,22,male,245,15,325,change,catch,anti,4,2,1,0.1033349069975884,0,j,change,0.23686813419453756,0,0.49964368047585594,0.035332720972746756,0.3533333033992676,1.0010686378523133,5.555656404065303
13,22,male,246,105,105,same,valid,anti,1,2,3,0.6851585060621801,1,f,same,1.3302042855843865,0.16047144498928234,0.5006780013263779,0.03529455533498549,0.35330828726728214,1.0010824287974174,5.791994388689091
13,22,male,247,15,65,change,valid,clock,3,2,3,1.85059467836345,1,f,same,4.533249005448397,0.1589243542054542,0.5001703021307549,0.03532438226193335,0.3533057215104236,1.0010372073270446,10.185420534011428
13,22,male,248,105,55,change,valid,anti,2,0,1,0.06998327126302684,0,j,change,0.3215025202148354,0.013530054757411536,0.4995891581365868,0.0353080255599707,0.35331662597809554,1.0010792216007758,4.15464844636972
13,22,male,249,135,85,change,valid,anti,5,0,1,0.1575346024424107,0,j,change,0.3932895187540453,0.016763401367297204,0.4998511860853796,0.035319892186635116,0.3533108530245954,1.0010246992610519,4.24865939188976
13,22,male,250,105,105,same,catch,anti,4,1,1,0.15627160848589483,0,j,change,0.24478990939041978,0,0.500470495717309,0.03533432457061281,0.3532912891264459,1.0010609405808282,5.603891676299099
13,22,male,251,75,25,change,catch,anti,5,1,1,0.9167485570819736,0,j,change,1.0824380979015586,0,0.5058069498663826,0.035350360553366045,0.3533201538944013,1.0010522811503506,7.210844621595697
13,22,male,252,75,25,change,valid,anti,5,1,1,0.2187141194895048,0,j,change,0.28957135178188764,0.051769938152098904,0.49991404713546217,0.03531540211179163,0.35332336109058815,1.0010368866073804,4.1664098771389035
13,22,male,253,15,15,same,valid,clock,5,2,3,0.48360641541921723,1,f,same,1.4292963924172,0.1574376984281461,0.49970942800291596,0.035317005710112426,0.35326723515254344,1.001042018122007,5.638251333872631
13,22,male,254,165,165,same,catch,clock,3,1,1,0.31207785276910727,0,j,change,1.5998999996154453,0,0.49978896647462534,0.035320533625963435,0.3533127773425804,1.0010137947929252,7.134231113140686
13,22,male,255,105,105,same,valid,clock,4,2,3,0.3707772448128708,1,f,same,0.9039608234543266,0.15600793646303548,0.5003944851614506,0.03532855161756743,0.35330828726728214,1.0010590162628432,4.991997082734088
13,22,male,256,135,85,change,valid,anti,4,1,1,0.16893618577114466,0,j,change,0.41532039250978414,0.05515529418506335,0.4996055148380947,0.0353096291582915,0.3532829504156325,1.001084994554276,4.389771544983432
13,22,male,257,75,75,same,catch,clock,1,0,1,0.07651889615999607,0,j,change,0.3700071969487908,0,0.4997944187084613,0.03537633884388924,0.35327236666762474,1.0010740900861492,5.697287481542389
13,22,male,258,15,65,change,valid,clock,4,0,1,0.12737637219879616,0,j,change,0.6573001563829166,0.020213710100139753,0.5006459293622356,0.035351643431567936,0.353306042229633,1.001088522470127,4.532082868824091
13,22,male,259,105,105,same,valid,anti,5,0,1,0.21025129025520073,0,j,change,1.1148952465496222,0.023579330405521848,0.4999092363404998,0.0352916688584628,0.3533454907460509,1.0010619027398207,4.991240505094993
13,22,male,260,75,75,same,valid,clock,3,0,3,0.4321491936466373,1,j,change,1.0736208734606407,0.026782510116433705,0.49922385846275574,0.035352284870896256,0.35329128912599117,1.0010452253181938,5.1791790090273935
13,22,male,261,135,135,same,valid,clock,3,0,1,0.1303674035948461,0,j,change,0.22782640600325976,0.023362914680428642,0.49961192923137787,0.03535773710473222,0.3532823089763042,1.0010673549736566,4.060725057312538
13,22,male,262,135,135,same,valid,anti,3,2,3,0.4718154784432045,1,f,same,0.5207851986601781,0.15461970470756953,0.4993062834109878,0.035279481512134225,0.3533426042690735,1.0010545261879997,4.719383782105524
13,22,male,263,45,45,same,valid,anti,2,1,3,0.25921876543452527,1,f,same,0.7930874012345157,0.05869359300065674,0.500191148907561,0.03532309938327671,0.35334003851221496,1.0010545261879997,4.7797849125781795
13,22,male,264,15,325,change,valid,anti,2,2,3,0.25617545673685527,1,j,change,0.9936026052700981,0.15314478569844753,0.4996202679421913,0.03532342010339562,0.3532973827996102,1.0010856359936042,4.943799013979515
13,22,male,265,75,75,same,valid,anti,1,1,1,0.1232855931452832,0,j,change,0.2245813646491115,0.05674070871919287,0.49947690626140684,0.03531604355111995,0.3533108530245954,1.0010641477774698,4.154292768285359
13,22,male,266,75,25,change,valid,anti,3,2,3,0.561863612047091,1,j,change,1.0114484083969728,0.15168245149872026,0.5002254659093524,0.03533849392624688,0.35324799197451284,1.0010859567128136,5.308852696033227
13,22,male,267,75,75,same,valid,clock,4,1,2,4.029965477737733,1,j,change,0.9934826561229784,0.06020540558174364,0.5003572816826818,0.035337211047590245,0.3533102115852671,1.001040093804022,8.67776239036175
13,22,male,268,105,105,same,catch,anti,5,1,1,0.06688447806709519,0,j,change,0.2035604370512374,0,0.49996568299820865,0.03533304169195617,0.353314060221237,1.0010506775520298,5.52069347284214
13,22,male,269,75,125,change,valid,clock,3,1,3,1.3573807853013022,1,j,change,1.2253222270260267,0.05824381785629687,0.5007305993481168,0.035234901481089764,0.35336120600868526,1.0010882017504628,6.2991336079549
13,22,male,270,135,85,change,valid,anti,1,1,3,0.6172541395285407,1,j,change,1.0898861701843998,0.05639511049646176,0.4998672220676781,0.035352284870896256,0.3532935341636403,1.0010513189913581,5.461641930629412
13,22,male,271,75,75,same,catch,anti,1,2,3,0.4753732214489901,1,f,same,1.334290574563056,0,0.5000449007497991,0.0353227786640673,0.35330187287399895,1.001062544179149,7.087350239962234
13,22,male,272,15,15,same,valid,anti,4,0,1,0.31115161443858597,0,f,same,2.6382676905750486,0.02645227108280468,0.5002091092073897,0.035301931886806415,0.3532935341636403,1.0010978233399328,6.686869545360878
13,22,male,273,75,75,same,valid,clock,2,1,1,0.12218841124467872,0,j,change,0.3501924959300595,0.05462158174389767,0.5003839014134428,0.035262483370843256,0.35336152672789467,1.0010612613004923,4.2376773098549165
13,22,male,274,75,75,same,valid,clock,3,2,3,0.41747498707491104,1,f,same,1.0153413034304322,0.15021737434402926,0.4999971135234773,0.0353064219616499,0.35329738279915546,1.0010538847486714,5.226661552257156
13,22,male,275,105,55,change,valid,anti,4,0,1,0.19033139319344627,0,j,change,0.26644361684520845,0.029741598984346446,0.5000368827591046,0.03529680037217986,0.35333683131557336,1.0010696000113057,4.225767385891231
13,22,male,276,15,15,same,valid,clock,5,0,3,0.730003771662723,1,f,same,0.9497942262769357,0.03298599886117473,0.4993524670394436,0.03534138040276957,0.3533134187819087,1.0010311136538803,5.497216794933138
13,22,male,277,75,125,change,valid,clock,1,0,1,0.26236727017521844,0,j,change,0.24820012136069636,0.02955889495616862,0.499321677953958,0.035352284870896256,0.3532980242384838,1.0010670342544472,4.272334595258144
13,22,male,278,15,15,same,valid,clock,5,1,3,0.5005237351779215,1,f,same,1.9745252387119763,0.05759470773193659,0.49979922950296896,0.035297762531627086,0.35334837722302836,1.0010798630396494,6.250892562768058
13,22,male,279,135,185,change,valid,clock,5,1,3,0.3647079462784859,1,j,change,1.692571940623111,0.05584468107980131,0.5002132785630238,0.035332720972746756,0.3532797432189909,1.0010801837593135,5.7917525660777756
13,22,male,280,75,75,same,catch,clock,2,0,1,0.11950270494980941,0,j,change,1.045690682581153,0,0.5004130869006076,0.03532951377610516,0.353317588137088,1.0010542054683356,6.416755292194921
13,22,male,281,135,135,same,catch,anti,5,1,1,0.5450992755581865,0,j,change,1.1302875444034726,0,0.500084349266217,0.03532245794394839,0.35330155215478953,1.001079863040104,6.993054174678946
13,22,male,282,75,25,change,valid,anti,5,0,1,0.15139634918386946,0,j,change,0.37556558909136584,0.0326982920264246,0.49999583064482067,0.03531604355111995,0.3533576780923795,1.0010599784218357,4.2494124416130035
13,22,male,283,75,75,same,valid,anti,5,2,3,0.3590645634303655,1,f,same,1.306740115741377,0.1487392436055506,0.49969788209546095,0.035318609308433224,0.35334292498873765,1.0010336794111936,5.367717900133357
13,22,male,284,45,45,same,catch,clock,1,0,3,0.06984087174123488,1,j,change,0.5806683669084123,0,0.49950833678622075,0.035351964151232096,0.35332528540811836,1.0010503568328204,5.838276799012874
13,22,male,285,105,155,change,catch,clock,5,0,1,1.2628319929390273,0,j,change,1.0856250889996772,0,0.5000295062072837,0.03532887233677684,0.3532916098461101,1.001058695543179,7.65248326805613
13,22,male,286,45,95,change,valid,clock,3,2,3,0.9154053832153295,1,j,change,1.1953804825420775,0.14731955444598846,0.49994291190341755,0.035352284870896256,0.3533426042690735,1.0010526018700148,5.991457632293532
13,22,male,287,165,115,change,valid,anti,1,2,1,0.21037989883234332,0,j,change,0.8723567890574486,0.14594947543845016,0.5001407959234712,0.035300328288485616,0.3533810906264989,1.0010622234594848,4.814194281696928
13,22,male,288,105,55,change,valid,anti,4,2,3,0.1603222975841163,1,j,change,1.160912101008762,0.15122470515587927,0.5005490720300259,0.03531251563481419,0.35333105836207324,1.0010445838793203,5.061856876934598
13,22,male,289,105,155,change,valid,clock,1,1,1,0.8506084693076446,0,f,same,2.12012361817915,0.05415522116212698,0.5006404771279449,0.03529583821364213,0.3533320205210657,1.0010391316450296,6.769932084408538
13,22,male,290,75,75,same,catch,anti,3,2,1,0.15366608210160848,0,j,change,0.7917070238886481,0,0.5002841576042556,0.0353603028620455,0.3532473505351845,1.0010882017504628,6.168839007719271
13,22,male,291,75,75,same,valid,anti,1,2,3,0.6020340681234302,1,f,same,0.48116285245487234,0.14986413944233654,0.5003418871401664,0.03532983449576932,0.35331822957641634,1.0010266235790368,4.82676873676246
13,22,male,292,105,105,same,valid,clock,3,2,3,0.2642421972118427,1,f,same,0.9100076716135845,0.14850813535696994,0.49974406572437147,0.03533143809409012,0.3533044386313122,1.001072165768619,4.908668987821784
13,22,male,293,15,325,change,valid,anti,5,2,3,0.10572587194064909,1,j,change,1.0557048327318626,0.1472083834072815,0.49968088395462473,0.035354529908090626,0.3532550478066696,1.001111293564918,4.91965972928665
13,22,male,294,45,45,same,valid,anti,5,0,3,0.2291230755217839,1,f,same,0.7068173450315953,0.035675929522921035,0.5001959597020686,0.035318609308433224,0.3533390763532225,1.0010516397110223,4.62643249428811
13,22,male,295,135,85,change,valid,anti,3,1,3,0.7104450049196203,1,j,change,1.4430889406889946,0.05700404668423792,0.49995638212840277,0.035316364270784106,0.3533191917349541,1.00106992073097,5.921895786641926
13,22,male,296,15,325,change,valid,anti,1,1,1,0.21419325539409328,0,f,same,0.2716636497639229,0.05534102823422124,0.4997325198173712,0.03531443995279915,0.3533336241193865,1.0010696000113057,4.236865889156888
13,22,male,297,105,55,change,valid,anti,3,1,1,0.26610108826571377,0,j,change,0.2553730161889689,0.05834007179656148,0.5003534330471666,0.035335286729605286,0.3533070043886255,1.0010436217203278,4.237824520171216
13,22,male,298,45,45,same,valid,anti,1,0,1,0.20592863089905222,0,j,change,0.2550827649110943,0.03252674727492022,0.4999550992497461,0.035318930028097384,0.3533105323044765,1.0009047501148416,4.166710070725003
13,22,male,299,15,325,change,valid,anti,3,1,3,0.21860667840928727,1,j,change,0.7822188539530543,0.06137492614229151,0.5001180248291348,0.03529712109229877,0.3533304169227449,1.0010150776720366,4.743891573668861
13,22,male,300,105,105,same,valid,anti,4,0,1,0.17797310316791481,0,j,change,0.27560721850113623,0.035407949607697,0.5000901222197172,0.03531604355111995,0.35331406022078227,1.0010429802809995,4.1787370573588305
13,22,male,301,15,325,change,valid,anti,4,1,1,0.2914283185182285,0,j,change,1.0876513957077805,0.0596345856800381,0.5111507805672773,0.035298083251291246,0.35335896097103614,1.0010442631592014,5.131697427956624
13,22,male,302,15,325,change,valid,anti,4,0,3,0.2748179274585709,1,j,change,0.597215255478659,0.0384484310391123,0.4997084658439235,0.03535549206753785,0.35327429098515495,1.0010423388416712,4.543268287113278
13,22,male,303,75,25,change,valid,anti,1,0,1,0.08385215081034403,0,j,change,0.2415605832993606,0.035384201951566774,0.49958242302409417,0.03530674268131406,0.3533211160533938,1.0010224542234027,4.025212733339686
13,22,male,304,135,135,same,catch,clock,4,1,1,0.36114795823459644,0,j,change,0.6022374043773198,0,0.4998399608980435,0.035354529908090626,0.35332720972655807,1.0010410559630145,6.238928757903977
13,22,male,305,165,165,same,catch,anti,2,0,1,0.10590739925874004,0,j,change,0.24768087625761837,0,0.5008178350913113,0.035300007568821457,0.35332849260475996,1.0010433010006636,5.604084428804526
13,22,male,306,165,115,change,valid,anti,3,1,3,0.5310437371790613,1,f,same,2.7240685339393167,0.06255928747412476,0.5006731905318702,0.035286537343836244,0.3533474150640359,1.0010567712256488,7.064187546584435
13,22,male,307,105,105,same,valid,anti,4,1,1,0.3349393904018143,0,j,change,0.7703134200646673,0.06088788911924692,0.49987267430151405,0.03531476067246331,0.3533467736242528,1.0010202091862084,4.83824729280559
13,22,male,308,135,185,change,valid,clock,3,0,2,1.219447284594935,1,j,change,0.7953022910928667,0.0383223101992613,0.49907023375317294,0.035262483370843256,0.3533788455888498,1.001058374823515,5.708156028823396
13,22,male,309,105,105,same,valid,clock,2,1,1,0.4354843572205027,0,j,change,0.26296797806799077,0.06366315299435552,0.5003454150560174,0.03532694801879188,0.35328102609764755,1.0010381694864918,4.520564864264998
13,22,male,310,165,165,same,valid,clock,2,0,3,0.3032330464388906,1,f,same,0.9152998664521874,0.0353621584227263,0.4992681177736813,0.03533368313128449,0.3533012314351254,1.0010769765631267,4.931236746260765
13,22,male,311,135,135,same,valid,anti,3,1,3,0.346173878796435,1,f,same,0.829852456135086,0.06630101190599413,0.49995734428739524,0.035319892186635116,0.3532813468173117,1.0010824287969626,4.908401507639155
13,22,male,312,165,165,same,catch,anti,3,2,1,0.09688138633009657,0,j,change,0.20357551087408865,0,0.5003492636919873,0.03534330472075453,0.35330443863176697,1.0010263028593727,5.579847645340578
13,22,male,313,45,45,same,valid,clock,4,0,1,0.1492638842737506,0,j,change,0.2914267149199077,0.032518964170950626,0.5007934603981994,0.03532021290675402,0.35327942249932676,1.0010619027398207,4.179007744738101
13,22,male,314,75,125,change,valid,clock,5,0,1,0.12600305068508533,0,j,change,0.24948684857054104,0.035129656194059666,0.5003906365259354,0.03532309938327671,0.35332239893159567,1.0010362451680521,4.084816234058508
13,22,male,315,165,165,same,valid,clock,2,1,3,0.5306168593338043,1,j,change,0.356682899356656,0.06477465567461566,0.4992543268285772,0.035353567749552894,0.3533092494262746,1.0010734486472757,4.672158135309928
13,22,male,316,165,215,change,valid,clock,4,2,3,0.20142668926200713,1,j,change,0.8164691461288385,0.14595205100506786,0.500260424350472,0.03529647965297045,0.35331662597809554,1.001077618002455,4.755707847496524
13,22,male,317,45,95,change,catch,clock,4,1,2,4.253944210176542,1,j,change,0.2656822284111513,0,0.5002479162844793,0.035356774945739744,0.3532755738638116,1.0010673549736566,9.83201795516834
13,22,male,318,45,355,change,valid,anti,2,0,1,0.08237042605651368,0,j,change,0.24884252280662622,0.03788415118345401,0.5001815273185457,0.0353259858597994,0.35332400252991647,1.0010529225901337,4.084092690543002
13,22,male,319,15,65,change,catch,clock,3,1,1,0.029652776085185906,0,j,change,0.25486788275020444,0,0.5003781284594879,0.035301290447478095,0.35333169980140156,1.0010628648988131,5.56875716006607
13,22,male,320,15,15,same,valid,clock,2,2,3,1.7057403684684687,1,f,same,1.4731063750082285,0.1447274743625418,0.4995721599952958,0.03534779479605277,0.3533070043886255,1.0010772972827908,7.028520956462671
13,22,male,321,165,165,same,valid,clock,5,0,3,0.27218161198834423,1,j,change,1.0112130001784863,0.0406508491584677,0.49975368731338676,0.03532951377655991,0.3533143809404464,1.0010256614200443,5.025880150918056
13,22,male,322,165,215,change,catch,clock,1,1,2,2.7734022709514647,1,f,same,1.9310231469780774,0,0.4998200762797751,0.03532662729958247,0.3532848747331627,1.001045546037858,10.04334878774398
13,22,male,323,165,115,change,catch,anti,3,1,3,0.3023882708976089,1,j,change,0.820952806745936,0,0.5003386799435248,0.035302894045798894,0.3533153430994389,1.001028868616686,6.440089249862467
13,22,male,324,135,135,same,valid,clock,4,2,3,0.2837586289620049,1,f,same,0.5485239199124408,0.1434228009599738,0.4997062208067291,0.0353699244510608,0.35327140450863226,1.0010388109253654,4.625464241684313
13,22,male,325,15,15,same,valid,anti,2,0,1,0.6124484763890905,0,f,same,2.4236174096886316,0.037787027181393346,0.4998707499835291,0.03528076439033612,0.35335960241036446,1.0010792216007758,6.840403490969038
13,22,male,326,135,185,change,valid,clock,2,1,3,0.5259523128374894,1,j,change,2.133418409564456,0.06320815447265385,0.4990272573213588,0.03532662729912772,0.3533034764727745,1.0010975026202686,6.521186418934121
13,22,male,327,45,355,change,valid,anti,5,2,3,0.24503942927276512,1,j,change,0.8098344188624651,0.14212734708061198,0.500091725818038,0.03532374082260503,0.3533201538944013,1.0010368866073804,4.896774779120278
13,22,male,328,75,25,change,catch,anti,4,0,1,0.056897268366356,0,j,change,0.2292815110254196,0,0.4998120582890806,0.03536126502058323,0.3533070043886255,1.0010558090666564,5.5673722926449045
13,22,male,329,15,325,change,valid,anti,4,2,3,1.1754621890781891,1,j,change,2.4460456550827985,0.14082903985443496,0.5008396440266552,0.03532374082260503,0.3533092494262746,1.0010763351237983,7.523997205890737
13,22,male,330,45,95,change,catch,clock,5,1,1,0.3818087176728113,0,j,change,1.3410814922958707,0,0.4999855676160223,0.035352926310224575,0.35325440636688654,1.0010564505059847,7.004685393272666
13,22,male,331,165,165,same,valid,anti,5,0,3,0.3001897377412206,1,f,same,1.2749814944763784,0.04046961600621796,0.5000894807803888,0.03534138040322432,0.35330251431332726,1.0010554883469922,5.320510855076918
13,22,male,332,75,75,same,valid,anti,2,2,1,0.32238097131903487,0,j,change,2.2989395725708164,0.13950762468654945,0.5003749212633011,0.035300007568821457,0.3533063629492972,1.0010734486472757,6.463672727412359
13,22,male,333,135,185,change,catch,clock,2,1,3,0.21525483741424978,1,f,same,1.4592686052674253,0,0.49949165936459394,0.03538243251750828,0.35327589458347575,1.0010654306556717,6.945394594205936
13,22,male,334,165,115,change,valid,anti,2,1,3,0.1925389064999763,1,f,same,0.8875181687676559,0.06165139239679407,0.5004223877704135,0.035333683131739235,0.35327204594750583,1.0010522811503506,4.8388505664547665
13,22,male,335,45,355,change,catch,anti,1,2,1,0.7335515723602839,0,j,change,0.4056173404128458,0,0.4990962120441509,0.035336890327926085,0.3533329826800582,1.0010449045985297,6.356262756623892
13,22,male,336,45,355,change,catch,anti,3,0,1,0.19189169425953878,0,j,change,1.1357166865295767,0,0.4998412437762454,0.035329193056441,0.3532973827996102,1.0010798630396494,6.604512589528895
13,22,male,337,75,125,change,valid,clock,4,2,3,0.4095147255216034,1,j,change,1.3302286602770437,0.1441080154236722,0.5003075701379203,0.03534009752456768,0.3532832711348419,1.0010763351237983,5.510111969641912
13,22,male,338,165,215,change,valid,clock,5,2,3,0.2853747352460232,1,j,change,0.8917045222751767,0.1428988802073165,0.49927806008236075,0.03532726873845604,0.3532797432189909,1.0010314343739992,5.013479205179465
13,22,male,339,45,45,same,valid,clock,1,0,3,0.23837551651922695,1,f,same,0.7413508326526426,0.03769572608334734,0.4998133411672825,0.03531476067200856,0.35327717746167764,1.0010801837597683,4.732054453063938
13,22,male,340,45,95,change,valid,clock,4,0,1,0.27329579202978493,0,j,change,0.2204783982488152,0.035094457427187586,0.4999108399388206,0.03532726873891079,0.3533374727549017,1.0010586955440886,4.295859060394832
13,22,male,341,15,325,change,catch,anti,1,0,3,0.08623541848101013,1,j,change,0.8563175996823702,0,0.5002899305582105,0.03529551749397797,0.3533365105959092,1.0010593369825074,6.262702742923466
13,22,male,342,75,75,same,valid,clock,5,1,3,0.3337286737469185,1,f,same,0.5661859506835754,0.06008042907740413,0.5008579250470575,0.03535003983324714,0.35329385488330445,1.0010612613004923,4.649961770219306
13,22,male,343,165,165,same,valid,anti,3,0,3,0.39000663248225464,1,f,same,1.0194461941482587,0.03760974447564902,0.5004586290906445,0.03532566514058999,0.35327621530268516,1.0010827495170815,5.15668373322751
13,22,male,344,105,105,same,valid,anti,2,2,3,0.2016136688143888,1,f,same,0.8690690919911503,0.14169294459405712,0.49926523129670386,0.03535934070350777,0.3533015521552443,1.0010224542238575,4.8132504037866966
13,22,male,345,45,45,same,valid,clock,5,0,1,0.06093320436139038,0,j,change,0.2594204980905488,0.03508426362011688,0.5005657494511979,0.03530770484030654,0.3533429249891924,1.0010670342535377,4.119783655357423
13,22,male,346,105,105,same,valid,clock,1,2,3,0.207401696222405,1,j,change,1.0947171701745901,0.140479879522908,0.5004708164369731,0.03524901314631279,0.35335222585854353,1.0010468289165146,5.073788289114418
13,22,male,347,165,115,change,valid,anti,2,0,1,0.07655289244212327,0,j,change,0.35280924750168197,0.03752863514050689,0.5001808858787626,0.035348436235835834,0.3532653108350132,1.0010801837588588,4.260602349977489
13,22,male,348,135,135,same,valid,clock,1,2,3,0.1962191644097402,1,f,same,1.2307475205161609,0.1392437745834852,0.5005657494511979,0.03534458759895642,0.3532784603403343,1.0010458667584317,5.144849499100019
13,22,male,349,45,45,same,catch,clock,4,1,3,1.22466314815847,1,j,change,1.0982543871241432,0,0.4999554199703198,0.035250937463388254,0.3533579988115889,1.0010622234594848,7.852820472689018
13,22,male,350,165,165,same,valid,clock,1,0,1,0.26599364718549623,0,j,change,0.7405477506645184,0.039981773173641266,0.5000125080659927,0.035322137224284234,0.3533005899962518,1.0010397730848126,4.884609562320293
13,22,male,351,105,55,change,valid,anti,5,0,1,1.1669807581038185,0,f,same,0.4578510244427889,0.04241108103481697,0.5038746140144212,0.03532662729958247,0.3532925720046478,1.0011048791720896,5.324834797312178
13,22,male,352,15,15,same,valid,clock,2,1,3,0.9668966012704914,1,f,same,0.877856168785911,0.058547488593872044,0.499953816371999,0.0353471533562697,0.35330347647231974,1.0010795423195304,5.555786616240766
13,22,male,353,105,105,same,catch,anti,4,2,1,0.6209161164188117,0,j,change,0.9134801031941606,0,0.5000801799114925,0.03537281092849298,0.35329385488330445,1.001047470355843,6.769307001823108
13,22,male,354,135,135,same,valid,anti,1,2,3,0.7623291045383667,1,f,same,0.6445871504311071,0.13804191173819352,0.5002495198823453,0.035326627298672975,0.35333843491389416,1.0010779387221191,5.167729959192002
13,22,male,355,135,85,change,valid,anti,1,2,3,0.6673450956195666,1,j,change,0.5050365812830933,0.13688319487896894,0.49981269972795417,0.03526120049173187,0.3533535087372002,1.0010728072074926,4.861155976225746
13,22,male,356,105,105,same,valid,clock,5,0,3,0.2858689642162062,1,f,same,1.4043046349115684,0.044718700678703066,0.49995734428739524,0.03530866699929902,0.3533509429798869,1.001071524328836,5.438514195692733
13,22,male,357,135,135,same,valid,clock,1,1,3,0.32543069440998806,1,f,same,0.7931133795254937,0.05709772214938924,0.5000195638976948,0.035341701121978986,0.3532560099656621,1.0011667780636344,4.84964887613387
13,22,male,358,165,165,same,catch,clock,2,2,3,0.2820261014476273,1,f,same,0.6376996960862016,0,0.5002623486680022,0.035330475935552386,0.3532983449586027,1.0010484325148354,6.156843130890593
13,22,male,359,45,45,same,valid,anti,2,0,1,0.07270169096227619,0,j,change,1.2630228211273788,0.04221025944344556,0.5005205279812799,0.03532085434653709,0.3533246439692448,1.0010593369834169,5.073772894571448
13,22,male,360,135,185,change,valid,clock,2,0,3,0.44191991758816584,1,j,change,1.6556673726772715,0.04446316855663085,0.5003858257314278,0.03533015521497873,0.35325408564676763,1.001118670116739,5.862816983259108
13,22,male,361,15,15,same,valid,anti,4,1,2,0.45816821617063397,1,j,change,0.9968540610161654,0.05570792979173017,0.4996943541800647,0.03533304169195617,0.35325376492801297,1.0010917296667685,5.155212271503842
13,22,male,362,135,135,same,catch,anti,4,0,1,0.15892107346189732,0,f,same,1.0601291602151832,0,0.500204619133001,0.035321495784955914,0.3532880819293496,1.001039452364239,6.451502699818775
13,22,male,363,165,115,change,valid,anti,4,1,3,0.40145215440225,1,j,change,1.001407959235621,0.054357768943032514,0.5005179622239666,0.03532502370126167,0.3533349069975884,1.0010657513757906,5.109083165169977
13,22,male,364,15,65,change,valid,clock,5,1,3,0.28266657857602695,1,f,same,1.753593022167479,0.05296229633223143,0.499906670584096,0.0353096291582915,0.35332560612823727,1.001036565888171,5.827312997997069
13,22,male,365,135,185,change,valid,clock,4,1,3,0.17351638300078776,1,j,change,1.2954472563724266,0.05156833756990459,0.49942494967945095,0.03530706340188772,0.35338558070179715,1.001034641570186,5.191304456591752
13,22,male,366,15,325,change,valid,anti,2,0,3,0.15349257277466677,1,j,change,0.7982513082151854,0.04201937321330848,0.49972418110610306,0.035311232755702804,0.35327140450863226,1.0011013512557838,4.672939729081918
13,22,male,367,105,105,same,valid,clock,4,1,1,0.16102852223957598,0,j,change,0.5890625621395884,0.05015680630198863,0.500025978290978,0.03532277866361255,0.3533044386313122,1.0010298307752237,4.47281548229148
13,22,male,368,105,105,same,valid,clock,3,0,1,0.12731447330861556,0,j,change,0.0027209854561078828,0.03957128880925917,0.49962539945681783,0.03532566514058999,0.3532973827996102,1.001058695543179,3.8831923022153205
13,22,male,369,75,25,change,valid,anti,2,2,3,0.23747108712359477,1,f,same,1.0466849134763834,0.13575763556215248,0.5005923691815042,0.035313477794261416,0.3533047593518859,1.0010599784218357,5.038793606646323
13,22,male,370,165,115,change,valid,anti,4,2,3,0.16022800600967457,1,f,same,0.9425931081195813,0.13465603222824649,0.5001427202414561,0.03533143809363537,0.3533134187809992,1.0010542054678808,4.849857023182267
13,22,male,371,165,115,change,valid,anti,3,2,3,0.19071369100856828,1,f,same,0.7902329964063028,0.13347828679520907,0.5002482370045982,0.03531155347627646,0.3532710837880586,1.0010753729648059,4.731876774380908
13,22,male,372,165,215,change,catch,clock,2,0,1,0.06295694531218032,0,j,change,0.11377593499400973,0,0.5005493927492353,0.035291668858917546,0.3533650546442004,1.0010404145232314,5.426905427474594
13,22,male,373,135,135,same,catch,anti,2,1,1,0.685936892637983,0,j,change,0.020059730825778388,0,0.5007908946417956,0.03531315707459726,0.35330892870661046,1.0010593369825074,5.981015321418454
13,22,male,374,165,115,change,valid,anti,3,0,3,0.2768516107180403,1,f,same,2.0254093344810826,0.04183764522444172,0.5003890329280694,0.035316043551574694,0.3533054007903047,1.0010615820201565,6.098975685601545
13,22,male,375,15,15,same,valid,clock,4,1,3,0.23055508873039798,1,f,same,1.0597279399407853,0.05252600813102773,0.49906510223900113,0.0353455497579489,0.3533044386313122,1.0010295100555595,5.037246134365887
13,22,male,376,135,135,same,valid,anti,2,1,3,0.22570805275699968,1,j,change,0.6119667554839907,0.05116883636259223,0.4995089782250943,0.035343304720299784,0.3532438226193335,1.0010878810307986,4.508128960085742
13,22,male,377,75,25,change,valid,anti,2,1,1,0.04144210946287785,0,j,change,0.16483321937084838,0.0497911014020162,0.49973284053703537,0.03532791017823911,0.35332111605293903,1.0010352830095144,3.895792735572286
13,22,male,378,135,85,change,valid,anti,2,2,3,0.19374417092058138,1,j,change,0.7520227787917975,0.13230605727222597,0.4998107754099692,0.03531251563526894,0.35334484930626786,1.0010619027398207,4.601748948360182
13,22,male,379,75,75,same,valid,clock,1,0,1,0.08024854489485733,0,j,change,0.753450622645687,0.039448301931748614,0.5006318176974673,0.03531187419594062,0.3533124566229162,1.0010609405808282,4.555785654081774
13,22,male,380,165,165,same,valid,clock,4,2,3,0.23107882390831946,1,f,same,0.5810695871823555,0.13112946546695042,0.4995994211649304,0.03532149578586541,0.35336248888688715,1.0010570919448583,4.508176747312973
13,22,male,381,135,135,same,catch,anti,1,2,1,1.6147515641496284,0,j,change,1.0289645117300097,0,0.4995974968478549,0.03537794244311954,0.35328038465831924,1.0010606198620735,9.57180624171724
13,22,male,382,45,355,change,catch,anti,5,1,1,0.03438339082822495,0,j,change,0.21071440942068875,0,0.5004631191650333,0.03533304169195617,0.3532967413593724,1.001058374823515,5.509870147030597
13,22,male,383,45,95,change,valid,clock,1,1,3,0.20797995373959566,1,j,change,1.2309572711637884,0.052113976328483774,0.5001670949341133,0.035352284870896256,0.3533086079869463,1.0010532433097978,5.1440409648785135
13,22,male,384,135,135,same,valid,anti,5,2,3,0.1824096179971093,1,f,same,1.0819461139681152,0.12993675940132315,0.49984060233782657,0.03529198957767221,0.35330091071500647,1.0011010305361197,5.014191844227753
13,22,male,385,15,15,same,valid,clock,1,1,3,0.14514648548993137,1,j,change,0.7454893989324773,0.050789524539360725,0.49969146770308726,0.03532534442092583,0.3533021935936631,1.0010301514948878,4.567069854021611
13,22,male,386,15,65,change,catch,clock,5,1,1,0.09614244827116636,0,j,change,0.40499257854753523,0,0.4998450924122153,0.03536158574024739,0.3533037971919839,1.0010442631601109,5.732888644856757
13,22,male,387,75,125,change,valid,clock,4,0,1,0.0627064632708425,0,j,change,0.2415269077373523,0.04166437684743274,0.5003505465701892,0.035374093806240126,0.3532710837880586,1.0010740900861492,4.026002345101915
13,22,male,388,45,355,change,valid,anti,1,1,3,1.161689846144327,1,j,change,0.9975740766158196,0.049450377784894306,0.499649774149475,0.0353455497588584,0.35332336109058815,1.0010458667575222,5.873634856836361
13,22,male,389,15,15,same,valid,anti,1,1,3,0.1917079219028892,1,f,same,0.9683375946287924,0.04817237272978797,0.49996921091405966,0.03532021290720877,0.35332817188555055,1.0010782594417833,4.897287609830528
13,22,male,390,135,85,change,valid,anti,2,1,1,0.31173147555364267,0,j,change,0.5038707653784513,0.04695531678202866,0.49970590008706495,0.03534490831953008,0.3532774981822513,1.0010952575830743,4.578817173125572
13,22,male,391,135,185,change,valid,clock,1,0,3,0.17215653171206213,1,j,change,0.7784840737040213,0.04377114061381812,0.4997851178386554,0.03536479293688899,0.3532996278372593,1.0010622234594848,4.625702215659658
13,22,male,392,105,105,same,valid,clock,1,0,1,0.044772782961445046,0,j,change,0.22389085525628616,0.04149893828645057,0.5000991023698589,0.03537088660959853,0.3533182295759616,1.0010439424395372,3.978712875097699
13,22,male,393,15,15,same,valid,anti,3,2,3,0.16535310591279995,1,f,same,0.9039537676217151,0.12872397259555957,0.49919018289983796,0.035351964151232096,0.3533188710152899,1.0010420181215522,4.790242617996228
13,22,male,394,15,15,same,valid,clock,3,0,3,0.16060485159050586,1,f,same,0.7484156449609145,0.04356220234676872,0.49974983867832634,0.035316364271238854,0.3533060422305425,1.0010760144041342,4.625550194547941
13,22,male,395,105,155,change,valid,clock,1,2,3,0.8044065596141081,1,f,same,1.0985645230193768,0.12755739134983635,0.5001375887268296,0.035266973445686745,0.35338814645820094,1.0010577333841866,5.626683297049567
13,22,male,396,105,105,same,valid,anti,2,0,1,0.08500577936774789,0,j,change,0.3016772354476416,0.04134076031266706,0.5006949994667593,0.03532791017823911,0.35325953788196784,1.0010910882274402,4.108835569604707
13,22,male,397,135,85,change,valid,anti,3,0,3,0.09474795926053048,1,j,change,0.8653760052957296,0.04336280145811969,0.4998412437762454,0.03537762172254588,0.3533191917349541,1.0010372073274993,4.660930702747464
13,22,male,398,15,65,change,catch,clock,3,0,3,0.22971865189992968,1,j,change,0.8459564308777772,0,0.49982552851452056,0.0353128363549331,0.3533037971919839,1.0010663928151189,6.345280353869384
13,22,male,399,135,135,same,valid,clock,1,0,3,0.1457504005784358,1,f,same,0.819322909517723,0.041189327160140815,0.5002289938256581,0.03531411923268024,0.3533159845383125,1.0010307929342162,4.778912555147144
13,22,male,400,105,105,same,catch,anti,1,0,1,0.24501056450480974,0,j,change,0.20979041612736182,0,0.4998332257855509,0.035320533625963435,0.3533503015405586,1.0010670342535377,5.662179585039667
13,22,male,401,45,45,same,valid,anti,2,2,3,1.6189029592160296,1,f,same,2.8755441008752314,0.1264269517702486,0.503173841591888,0.03537216948916466,0.3533092494262746,1.0010458667584317,8.221304892770604
13,22,male,402,45,45,same,catch,anti,3,2,3,0.39642519470817206,1,j,change,1.4491713887291553,0,0.49936497510589106,0.03536735869420227,0.3532832711343872,1.00107954232044,7.086197894283032
13,22,male,403,135,85,change,valid,anti,4,0,1,0.3415032386274106,0,j,change,1.5850760169696514,0.039012908875446395,0.500509623513608,0.03532374082260503,0.35325087845103553,1.0010635063381415,5.686578011204801
13,22,male,404,45,95,change,catch,clock,4,2,1,1.6442539227227826,0,j,change,0.32113529622347414,0,0.499811416850207,0.03534266328188096,0.3533070043886255,1.0010368866078352,7.251717774410281
13,22,male,405,15,325,change,valid,anti,1,2,3,0.25938746396695933,1,j,change,0.888303611174706,0.12532338731532788,0.5001763958034644,0.035337211047590245,0.35330508007155004,1.001068637852768,4.8264188316315995
13,22,male,406,75,75,same,catch,anti,4,0,2,2.462435711748185,1,j,change,0.35661747254926013,0,0.4994140452108695,0.03531059131728398,0.3532855161729458,1.0010862774333873,8.088305022341956
13,22,male,407,75,75,same,valid,anti,5,0,3,0.14300856834688602,1,j,change,0.8183880117567242,0.04104417039793859,0.4995028845523848,0.03532951377565041,0.3532925720046478,1.0010615820201565,4.684526046924475
13,22,male,408,15,15,same,valid,anti,4,2,2,1.1880064964971098,1,f,same,1.939935625153339,0.12423806010756354,0.49933001666431664,0.035354529908545373,0.35331149446301424,1.001062544179149,6.875269564859991
13,22,male,409,15,15,same,valid,anti,3,0,3,0.4129637445685148,1,f,same,0.9716458177517779,0.03891630303303395,0.4989727349820896,0.03533464529027697,0.3533365105959092,1.0010699207314246,5.14317181464412
13,22,male,410,135,185,change,valid,clock,4,0,2,1.2589849608139048,1,j,change,0.8362052708353076,0.03691505200163722,0.500080179910583,0.03536222717957571,0.35321976864543103,1.001103917013097,5.862797098642659
13,22,male,411,15,325,change,catch,anti,5,2,1,0.07667123799092224,0,j,change,0.10603953575173364,0,0.5000792177515905,0.03534105968356016,0.35326980091031146,1.0010638270578056,5.414883893075057
13,22,male,412,135,135,same,valid,clock,4,0,3,0.2736703925738766,1,f,same,1.0678039812846691,0.03500555284798623,0.5002325217410544,0.03534683263660554,0.35330091071500647,1.0010458667575222,5.038652490003187
13,22,male,413,15,15,same,catch,clock,3,0,1,0.16925177390021418,0,j,change,0.23660706840473722,0,0.49981751052291656,0.035315402112246375,0.3533557537748493,1.0010622234594848,5.626763156240486
13,22,male,414,75,25,change,valid,anti,4,0,1,0.13428884267614194,0,j,change,0.3279990173150509,0.03314216396204628,0.49996760731573886,0.03536447221722483,0.35331053230402176,1.001043621719873,4.201554656399821
13,22,male,415,165,165,same,valid,anti,2,1,1,0.1828749821997917,0,j,change,0.26181755670677376,0.049132155402401456,0.5004262364063834,0.0353064219625594,0.3533086079869463,1.001050677551575,4.119621691937937
13,22,male,416,75,125,change,valid,clock,4,1,3,0.14047520388157864,1,j,change,0.7936072877764673,0.05135231874985613,0.5000186017396118,0.03525831401566393,0.35338718430011795,1.0010420181224617,4.661319094237115
13,22,male,417,75,125,change,valid,clock,1,2,3,0.14014678696639749,1,j,change,1.7147006338709616,0.12307132937889079,0.5001292500164709,0.03531315707459726,0.3533134187819087,1.001013474073261,5.591817223158614
13,22,male,418,105,105,same,valid,clock,1,1,3,0.21554637156987155,1,f,same,0.7133228222819525,0.050082996524162704,0.4996257201755725,0.03532374082260503,0.35326338651702827,1.001050356831911,4.6372651209694595
13,22,male,419,105,55,change,catch,anti,5,1,1,0.1320168647216633,0,j,change,0.25349552339503134,0,0.5001731886068228,0.03537794244221004,0.3532614621990433,1.0010638270578056,5.615813787609113
13,22,male,420,105,105,same,valid,anti,3,2,3,0.15969176276485086,1,f,same,0.7557828958933897,0.12190428035054163,0.49997626674667117,0.03537216948916466,0.3533445285875132,1.00105645050553,4.661073743709494
13,22,male,421,45,355,change,valid,anti,2,1,1,0.0724749421742672,0,j,change,0.715523279755871,0.048834285964390545,0.4997293126207296,0.03533304169286566,0.3532903269669987,1.0010445838788655,4.5081065097110695
13,22,male,422,135,135,same,valid,anti,2,2,3,0.1632151887697546,1,f,same,0.8755277441732687,0.12072722988246785,0.49986882566554414,0.0353096291582915,0.3533220782119315,1.0010561297858658,4.778689334276351
13,22,male,423,165,165,same,catch,anti,4,0,1,0.11315309744622937,0,j,change,0.24570331893573893,0,0.5004326507996666,0.03535773710518697,0.3532534442083488,1.0010712036091718,5.556893099011177
13,22,male,424,15,65,change,valid,clock,3,0,1,0.09956260254966764,0,j,change,1.8179871122019904,0.0348603041310796,0.4998771643759028,0.03529359317599301,0.3533236818102523,1.0010692792911868,5.685648565678093
13,22,male,425,165,215,change,catch,clock,5,0,1,0.04343634420729359,0,j,change,0.14530973178807471,0,0.4997071829657216,0.03535549206662836,0.35329545848162525,1.001034320850522,5.438232924565455
13,22,male,426,105,55,change,valid,anti,1,0,1,0.12359508760164317,0,j,change,0.22435461586155725,0.036545639569181276,0.4999008976301411,0.035329834496224066,0.35326659371366986,1.0010137947929252,4.095457070393422
13,22,male,427,105,55,change,valid,anti,2,1,1,0.07866675561308512,0,j,change,0.018262738662997435,0.05099834741822373,0.5003248889988754,0.03531668498999352,0.35332817188464105,1.0010542054678808,3.872541523572181
13,22,male,428,165,215,change,catch,clock,4,1,1,0.08384798145470995,0,j,change,0.09180247005406272,0,0.49954393666666874,0.03536254789923987,0.35319475251344556,1.001090767507776,5.414246943862054
13,22,male,429,165,115,change,catch,anti,1,1,3,0.1818868449781803,1,j,change,1.3354361851297654,0,0.5005984628551232,0.035287178782709816,0.3533483772225736,1.0010638270578056,6.793951419954283
13,22,male,430,15,15,same,valid,anti,1,2,3,0.23490982005114347,1,f,same,1.3312071759100945,0.1195160048700492,0.49946151171843667,0.035299366129947884,0.3533323412402751,1.0010372073274993,5.296519742860255
13,22,male,431,75,25,change,catch,anti,4,1,1,0.42286981219876907,0,j,change,0.9774283929255034,0,0.4997447071636998,0.03532309938327671,0.3533246439692448,1.0011042377327612,6.698290051148433
13,22,male,432,165,115,change,valid,anti,5,0,1,0.0722786617516249,0,j,change,0.6815937072242377,0.03836971563906655,0.500639194249743,0.035326627298672975,0.35331373950157285,1.001066713534783,4.450032200252281
13,22,male,433,105,155,change,valid,clock,3,0,1,0.5962890171476829,0,j,change,0.4700579347963867,0.040231170089029517,0.49957665007059404,0.03535773710518697,0.3532588964426395,1.0011180286774106,4.778339749864244
13,22,male,434,165,215,change,catch,clock,3,2,3,0.13835268128059397,1,j,change,1.2849574789897815,0,0.5004291228824513,0.03531027059761982,0.35328744049093075,1.0010891639094552,6.616839128309948
13,22,male,435,15,15,same,catch,anti,5,1,3,0.19436925350601086,1,j,change,1.4404208739733804,0,0.49982488707428274,0.0353487569545905,0.3532973827996102,1.0010824287965079,6.8866579986843135
13,22,male,436,165,165,same,valid,clock,2,2,3,0.31262403832261043,1,f,same,0.5116950418032502,0.11830857583042056,0.5007508046855946,0.035302894045344146,0.35332111605293903,1.0010429802814542,4.54402037467753
13,22,male,437,15,15,same,valid,clock,2,0,1,0.12212683307279804,0,j,change,0.02947413524361764,0.04206106534333215,0.49964784983149,0.03536094430182857,0.35328968552857987,1.0011802482886196,3.8830444504601473
13,22,male,438,75,75,same,valid,clock,5,2,3,0.15003906365291186,1,f,same,0.7909882911671957,0.11714190675139383,0.5001007059681797,0.03539333698518021,0.3532973827996102,1.0010596577021715,4.708173989124589
13,22,male,439,105,155,change,valid,clock,4,0,1,0.22731229241435358,0,j,change,0.6969138431577449,0.04380317573106168,0.5005323946088538,0.03531893002855213,0.3533166259785503,1.0009910236985888,4.637810985802389
13,22,male,440,75,75,same,valid,anti,3,0,1,0.13711438273639942,0,j,change,0.22136615022191108,0.04549282504618779,0.5006969237856538,0.03531219491469528,0.35328359185496083,1.001049715393492,4.13185746705858
13,22,male,441,105,105,same,valid,anti,1,0,3,0.5592619342987746,1,j,change,1.293558538391153,0.04730036073915478,0.49993649751013436,0.03533304169286566,0.3533124566229162,1.0010708828895076,5.662514095628467
13,22,male,442,15,65,change,valid,clock,3,1,1,0.5227277975409379,0,j,change,0.825480726673959,0.053037367284463094,0.4999977549623509,0.035336890327926085,0.3533012314346706,1.001069600010851,5.1798483509237485
13,22,male,443,105,55,change,valid,anti,1,1,2,0.6305271219771384,1,j,change,0.03992157763332216,0.054969962070606365,0.49974727292101306,0.03536190645991155,0.3532797432199004,1.0010821080777532,4.484800775371696
13,22,male,444,45,355,change,valid,anti,4,2,3,0.5284257027287822,1,j,change,0.7075697533155108,0.11600619034751151,0.49965554710342985,0.035352926310224575,0.3533005899953423,1.0010599784218357,4.919694046288896
13,22,male,445,105,155,change,valid,clock,3,2,3,0.6091761738662171,1,f,same,1.0514652397632744,0.11489229880526705,0.5005740881624661,0.03529680037263461,0.35330989086469344,1.0010490739541638,5.368876660204478
13,22,male,446,45,45,same,valid,clock,2,0,3,0.21999122511078895,1,j,change,1.1292496956375544,0.04547765819123342,0.499781269203595,0.035319571466970956,0.35331502237932,1.0010086632792081,5.049813854318927
13,22,male,447,135,85,change,valid,anti,3,2,3,0.5319718998271128,1,j,change,1.6774759877198449,0.11369838557619111,0.49946888826980285,0.035359982141926594,0.35332977548296185,1.0010362451675974,5.944302223100749
13,22,male,448,135,135,same,valid,clock,4,1,3,0.4864402941902881,1,f,same,0.9647952461646128,0.05381394834270167,0.500366261833733,0.03530225260692532,0.3533150223802295,1.0010718450485,5.203835935224561
13,22,male,449,15,15,same,catch,anti,5,0,1,0.11263609738034575,0,j,change,0.24837523428595887,0,0.49984092305658123,0.035314439953253896,0.3532973827996102,1.0010750522451417,5.579946106270654
13,22,male,450,105,105,same,valid,anti,1,1,3,0.1850619694496345,1,f,same,0.7923728378682426,0.05266501641952312,0.5002123164040313,0.0353551713469642,0.3533175881366333,1.0010490739541638,4.673066092620502
13,22,male,451,75,75,same,catch,anti,2,2,1,0.11012774904793332,0,j,change,0.6223898231810381,0,0.5089063845016426,0.03533111737397121,0.353307966547618,1.0010631856184773,5.965546371570781
13,22,male,452,45,45,same,valid,clock,2,2,3,0.1692636405268786,1,f,same,0.7955187768520773,0.11250719056738494,0.4999624758011123,0.03527787791335868,0.35332239893159567,1.0010821080777532,4.696436291608734
13,22,male,453,15,15,same,catch,anti,2,0,3,0.1452827913381043,1,j,change,1.0844647253288713,0,0.4996231544182592,0.035336890327926085,0.3532377289457145,1.001090767507776,6.451172679305273
13,22,male,454,135,135,same,valid,anti,3,0,3,0.11837537540213816,1,j,change,0.9933460295551413,0.043707038541433874,0.5002350874992771,0.03535934070350777,0.35329128912599117,1.0011831347646876,4.862062971376872
13,22,male,455,75,75,same,catch,clock,4,0,3,0.1591160710049735,1,f,same,1.1241707793615205,0,0.49923829084673343,0.035351964151232096,0.3533005899953423,1.0010651099364622,6.509278419288421
13,22,male,456,165,215,change,valid,clock,3,2,3,0.5784008790278676,1,j,change,1.294937312138245,0.1113085267892104,0.5001440031201128,0.0352753121569549,0.3533499808208944,1.0010619027398207,5.674489446399093
13,22,male,457,45,355,change,catch,anti,2,0,2,0.5541644162840385,1,f,same,1.5381778249311537,0,0.49979121151227446,0.03531315707368776,0.3533519051388794,1.0010830702367457,7.357784892052223
13,22,male,458,135,135,same,valid,anti,4,1,3,0.3200143810681766,1,f,same,0.6119699626815418,0.051509803039703816,0.5002068641697406,0.03530064900860452,0.35333298268051294,1.0010461874771863,4.661537504313856
13,22,male,459,45,45,same,valid,clock,3,2,3,0.2099918280637212,1,f,same,0.9168255297963697,0.11009228483815416,0.49950160167372815,0.03527884007235116,0.35334645290549815,1.0010266235794916,4.873186811495543
13,22,male,460,165,215,change,valid,clock,1,0,3,0.739284756708912,1,f,same,0.9905567308151149,0.04189495917442776,0.49970910728279705,0.0353080255599707,0.35332015389485605,1.0010397730848126,5.461786254469189
13,22,male,461,75,75,same,catch,anti,5,2,2,0.7142994135956542,1,f,same,2.4822638829919015,0,0.5002065434509859,0.03532502370126167,0.3532313145524313,1.001118990836403,8.453922529528427
13,22,male,462,45,45,same,valid,clock,3,0,3,0.9368201545357806,1,f,same,0.8855569681472844,0.04005643158691308,0.5001337400908596,0.03530257332567999,0.3533875050188726,1.001043621719873,5.533013276510246
13,22,male,463,75,25,change,valid,anti,1,1,3,0.2777871499183675,1,f,same,0.7791668858253615,0.05033523136217313,0.5001613219810679,0.03531828858922381,0.3533108530245954,1.0010372073265899,4.814807818374902
13,22,male,464,135,135,same,valid,anti,2,0,3,0.4186818550933822,1,f,same,1.3139431582158068,0.03826810362083219,0.4992626655393906,0.03532245794394839,0.3532505577313714,1.0011311781827317,5.473246208773162
13,22,male,465,45,95,change,valid,clock,1,2,2,1.9900050930282305,1,j,change,2.6399274147297547,0.1088225156804667,0.49988710668549174,0.035304497643664945,0.3532502370117072,1.0011080863687312,8.359721717979482
13,22,male,466,75,25,change,catch,anti,2,2,1,0.22808618891394872,0,j,change,0.5375363856437616,0,0.4994403442224211,0.03522303485442535,0.3533685825605062,1.001049715393492,6.085554851397319
13,22,male,467,165,215,change,catch,clock,2,0,1,0.050528738403954776,0,j,change,1.2182218148373067,0,0.5005198865419516,0.03533272097229201,0.35327557386335684,1.0010769765622172,6.629081959263203
13,22,male,468,135,85,change,catch,anti,3,2,3,0.8209556932224586,1,j,change,1.7658906961796674,0,0.4995779329492507,0.035325985859344655,0.3533127773425804,1.0010580541038507,7.922765578315193
13,22,male,469,165,215,change,valid,clock,1,1,1,0.03700463247423613,0,j,change,0.21036482500858256,0.04915992276141981,0.5002014119363594,0.03529615893330629,0.3532361253483032,1.0011404790529923,4.013435908028441
13,22,male,470,105,55,change,valid,anti,4,1,3,0.2743358858342617,1,j,change,0.7615975430308026,0.05117819474882676,0.5005564485809373,0.0353112327566123,0.3532736495462814,1.0010760144041342,4.790881170806642
13,22,male,471,45,45,same,valid,anti,1,1,3,0.29137283401905734,1,f,same,0.9343018638937792,0.05002315844136951,0.5001228356231877,0.03531476067200856,0.35331213590234256,1.0010599784218357,4.94428458352013
13,22,male,472,45,45,same,valid,anti,3,2,3,0.2386272814392214,1,f,same,0.5968448242902014,0.10759213756986967,0.4998707499844386,0.035352605590560415,0.3532903269679082,1.0010670342544472,4.566786658575438
13,22,male,473,135,85,change,catch,anti,3,2,1,0.030147967214361415,0,j,change,0.282680690239431,0,0.49976811969736445,0.03527499143638124,0.35332913404363353,1.0010782594417833,5.674271677761681
13,22,male,474,45,355,change,valid,anti,3,2,3,0.25756673854994006,1,j,change,0.9452496289277406,0.10639562544297282,0.5000214882156797,0.0353471533562697,0.35328904408834205,1.0010234163819405,4.991051601225081
13,22,male,475,135,135,same,valid,anti,5,0,1,0.07847945534103928,0,j,change,0.3406270325604055,0.03658271151385484,0.5000612574522165,0.03536158574115689,0.3532415775816844,1.0010500361131562,4.1786934394867785
13,22,male,476,15,325,change,catch,anti,2,2,3,0.17072932929841045,1,f,same,0.8631723406251695,0,0.4993229608326146,0.035321816504620074,0.35332560612823727,1.0010282271778124,6.262193760848277
13,22,male,477,45,355,change,valid,anti,5,1,3,0.12025639611238148,1,j,change,0.9539343961550912,0.04888830972731592,0.5002277109470015,0.035331438094544865,0.35329000624733453,1.001066713534783,4.837721954029803
13,22,male,478,105,105,same,valid,anti,5,1,3,0.11482404678918101,1,f,same,1.0597898388323301,0.04781182791456756,0.5006327798573693,0.03525542753868649,0.3533079665485275,1.0010449045985297,4.967821556721901
13,22,male,479,165,115,change,valid,anti,1,1,3,0.14813879976463795,1,j,change,0.8161227689133739,0.04678092766696759,0.49972738830365415,0.03531732643023133,0.35330732510828966,1.0010420181215522,4.6841229023330015
13,22,male,480,75,75,same,valid,clock,4,2,3,0.12003894819372363,1,f,same,0.705217274728966,0.10522296527284626,0.5006443257643696,0.03532117506620125,0.35332111605293903,1.0010731279271567,4.543823132096804
