subject,age,gender,ntrial,memory_ori,test_ori,type,trial_type,which_change,trial,quest,pas,pas_rt,vis,test_key,test,test_rt,contrast,fix_dur,target_dur,mask_dur,retention_dur,trial_dur
14,22,female,1,165,215,change,valid,clock,5,1,1,0.9165348249698582,0,f,same,4.002822957100761,0.2,0.5066851998731181,0.035323846290339134,0.3532878534269912,1.0010391253126727,8.707956396506233
14,22,female,2,165,215,change,valid,clock,1,2,2,0.7352687149191297,1,j,change,2.8521565217783973,0.2,0.4991483341764251,0.03530909327673726,0.3533032478758287,1.0010503504322514,7.263236419931218
14,22,female,3,105,55,change,valid,anti,2,2,2,0.9828483386982043,1,f,same,1.5811920884075334,0.11397766455402543,0.49954442052239756,0.03527060715350672,0.35334333758737557,1.0010445775137669,6.2862979460915085
14,22,female,4,45,45,same,catch,anti,3,1,1,0.48831801852929857,0,f,same,1.246150826473695,0,0.4997564149148275,0.03533058136190448,0.3532769490257124,1.0010949301909022,6.921665345844303
14,22,female,5,165,115,change,valid,anti,5,1,2,0.5901657693520974,1,j,change,1.5060562724843294,0.33948538693435915,0.5005431354070424,0.035347579399058304,0.35330356859367384,1.0010628584218466,5.815695410562057
14,22,female,6,165,115,change,valid,anti,3,2,2,0.5542126749551244,1,f,same,5.1886705193414855,0.056143516159837065,0.5001682164279373,0.035297868157613266,0.35333628179796506,1.0010442567959217,9.44257309236309
14,22,female,7,45,45,same,valid,anti,4,0,2,0.6390505216954807,1,f,same,0.9705869807216914,0.2,0.5004488444060371,0.03530267892301708,0.3533106243826296,1.001066065598934,5.262675163975018
14,22,female,8,15,15,same,valid,clock,5,0,2,1.505434080167106,1,j,change,6.230604036488785,0.0723357464867447,0.49981446481660896,0.03537291609654858,0.3532833633789778,1.001088515837182,11.433022440295645
14,22,female,9,75,75,same,valid,clock,2,1,2,2.1510965177435537,1,f,same,2.827024121497743,0.277883819201003,0.5000941306420827,0.03532031839586125,0.3532368593141655,1.001070876364338,8.630832451627157
14,22,female,10,105,105,same,valid,clock,4,0,1,0.18722664830465874,0,j,change,1.593318103519323,0,0.49914737202334436,0.035278625095997995,0.35334590332831795,1.001059651245214,7.004352459760412
14,22,female,11,15,65,change,valid,clock,4,0,3,0.41929027099695304,1,f,same,2.7089849381350177,0.05517235490842054,0.4992865635003909,0.03534950370567458,0.3532859291208297,1.0010837050717782,6.910324126918567
14,22,female,12,15,15,same,valid,clock,2,1,2,1.713123158478993,1,f,same,1.4454961133828874,0.2361351957338891,0.49982248275910024,0.035331864232375665,0.3533138315597171,1.0010311073706362,6.815766289171279
14,22,female,13,135,185,change,valid,clock,1,2,1,0.03947585749483551,0,j,change,1.649592512140316,0.012132942594039436,0.5006342192300508,0.03529850959284886,0.35333916825720735,1.0010881951197916,5.3328132361471035
14,22,female,14,165,165,same,valid,anti,5,1,3,0.9163645238768368,1,f,same,2.2935112076397672,0.20435316182746724,0.5005598127263511,0.03532512916126507,0.35328881558007197,1.0010744042588158,6.899795927334253
14,22,female,15,105,105,same,catch,clock,1,0,1,0.0761210606642635,0,j,change,1.3454617003744715,0,0.499729795346866,0.03536297384835052,0.3533087000764681,1.0010558026328908,6.6277436195618975
14,22,female,16,15,15,same,valid,anti,2,2,2,0.0008848601046338445,1,f,same,2.185937363193716,0.10452473464041458,0.49993313036156906,0.03533892002178618,0.3532766283078672,1.0010554819150457,5.932540561967926
14,22,female,17,165,115,change,valid,anti,1,0,2,0.061651561398321064,1,j,change,1.967626115015264,0.00898370978647961,0.5004607109608514,0.03530973471197285,0.35330870007692283,1.0010721592352638,5.662507813484808
14,22,female,18,105,105,same,valid,anti,4,1,1,0.10512644775963054,0,j,change,2.4958131909261283,0.17691399892921375,0.5002339635543649,0.03530941399412768,0.3533186423251209,1.0010070535445266,6.239625825086023
14,22,female,19,105,105,same,valid,clock,2,1,4,1.4466734680199806,1,f,same,2.5896080412903757,0.2159982907572293,0.500178800111371,0.035328657055288204,0.35326251672950093,1.001077290718058,7.746897617612831
14,22,female,20,15,15,same,valid,clock,2,0,1,0.15657245156944555,0,f,same,3.556506447868742,0,0.5003115772346973,0.03533571284469872,0.3533289052911641,1.001041049619289,8.936875702972884
14,22,female,21,15,325,change,catch,anti,1,2,1,1.0838032114743328,0,f,same,4.743893134300379,0,0.4995120280359515,0.03534405150458042,0.3533144729954074,1.0010439360780765,11.008476889243866
14,22,female,22,75,125,change,valid,clock,4,0,2,0.49528240315066796,1,f,same,2.7589277381352986,0.007734214071502016,0.5000052918417168,0.03530428251133344,0.3533196044777469,1.0010445775137669,6.981467328328563
14,22,female,23,45,45,same,valid,clock,4,0,1,1.2864567013480155,0,j,change,3.2072500157951254,0,0.49944467732120756,0.03532512916081032,0.35330773792384207,1.001064462010163,9.678303801113998
14,22,female,24,75,25,change,valid,anti,3,2,1,0.8188701949675306,0,f,same,1.5579772591913752,0.08278292005740336,0.4996088847778992,0.03532320485464879,0.35332184950220835,1.0010311073706362,6.097780088370655
14,22,female,25,15,325,change,valid,anti,4,1,2,0.5938450426829149,1,j,change,1.537614572385337,0.19762356855185959,0.5000723218386156,0.03532192198417761,0.3533042100293642,1.0010705556464927,5.826818220741643
14,22,female,26,75,75,same,valid,anti,1,2,2,3.221887571130992,1,f,same,2.663512622005328,0.13622167930619003,0.49991388730040853,0.035345334375506354,0.3533388475398169,1.0010420117723697,9.596286345733006
14,22,female,27,165,165,same,valid,anti,5,2,2,0.7506554667770615,1,f,same,1.346895308445255,0.12241569512620039,0.49904410092722173,0.035326412031736254,0.35325802668148754,1.0010541990445745,5.70807057200318
14,22,female,28,105,155,change,valid,clock,4,2,2,0.9999502887581002,1,f,same,2.138397380121205,0.10995861500008976,0.5004607109603967,0.035294019544835464,0.3534581545200126,1.0010570855038168,6.922875092967843
14,22,female,29,15,325,change,valid,anti,4,2,1,0.004792805147644685,0,j,change,3.2674227479283218,0.09914460353200868,0.4999671264367862,0.03529979246377479,0.3533228116552891,1.0010641412927725,7.004472408176298
14,22,female,30,15,325,change,valid,anti,2,1,3,0.34153900231785883,1,j,change,1.267534036966481,0.18156684415813484,0.5000623795904175,0.03534661724643229,0.3532779111783384,1.0010477846908543,5.2732642999199015
14,22,female,31,15,65,change,catch,clock,1,2,1,0.08823103989152514,0,j,change,1.442007987795023,0,0.5002743739828475,0.03531518691261226,0.3533032478758287,1.0010388045952823,6.781500169819992
14,22,female,32,165,165,same,valid,clock,1,0,2,0.45447813298687834,1,f,same,1.317760351403649,0.006168926759986315,0.5000264592090389,0.03534469294027076,0.35331511443018826,1.0010291830644746,5.626755488361596
14,22,female,33,105,55,change,catch,anti,4,2,2,0.17147588186935536,1,j,change,1.4874427799550176,0,0.4996948371185681,0.03533859930394101,0.35330773792384207,1.0010731213883446,6.934138377495401
14,22,female,34,75,125,change,valid,clock,2,2,1,0.512432781581083,0,f,same,2.2268336793340495,0.13161710792930303,0.49952774320263416,0.0353581630829467,0.35329875782827,1.001071197082183,6.451378396520795
14,22,female,35,135,85,change,valid,anti,1,1,2,0.06747675678752785,1,j,change,1.911181084583859,0.16700587080923857,0.4997002893192075,0.0353158283483026,0.3533032478758287,1.001043615360686,5.649760247491486
14,22,female,36,75,75,same,valid,clock,1,0,1,0.028130469238931255,0,j,change,1.5014587844093512,0,0.5000665489205858,0.03532192198417761,0.3533205666312824,1.0010275794761583,6.75728822930796
14,22,female,37,165,165,same,valid,clock,5,0,1,0.007680867939143354,0,j,change,1.5607963676798136,0.004921634633838018,0.5001316546117778,0.035278304378152825,0.3533180008898853,1.0010817807656167,5.285356960391709
14,22,female,38,75,125,change,valid,clock,4,2,2,0.11202027448962326,1,j,change,1.1986926264116846,0.16026738323049394,0.4997144008975738,0.03532865705574295,0.3533519969646477,1.0010516333027226,4.9901870008629885
14,22,female,39,45,45,same,catch,clock,3,2,2,0.31824655942045865,1,f,same,3.8480827656899237,0,0.5001525012612547,0.035369388202070695,0.3533083793586229,1.001056123350736,9.360317023021253
14,22,female,40,75,25,change,valid,anti,1,2,2,1.9477239788107,1,f,same,2.6143668054628506,0.1523516396342695,0.5004093961301805,0.03529722672237767,0.35330004069919596,1.0010663863167792,8.194900139736546
14,22,female,41,135,85,change,valid,anti,1,2,2,0.01741721554844844,1,j,change,1.6278282890320952,0.145034045991683,0.49999342528735724,0.035326412032191,0.3532641203178173,1.0010798564594552,5.367698661356826
14,22,female,42,75,75,same,valid,anti,2,0,1,0.07123204021036145,0,j,change,1.4140228036690132,0.0206394523269475,0.49973236108826313,0.03525809916391154,0.35336739141348517,1.0010442567959217,5.108158192075734
14,22,female,43,75,75,same,valid,clock,3,1,2,0.10505075838545963,1,f,same,1.438343146759962,0.1541134622813524,0.5005165158386262,0.03532801562050736,0.35333082959732565,1.001034955983414,5.250847095596328
14,22,female,44,165,115,change,valid,anti,4,1,3,0.18303871671832894,1,f,same,2.63219037032286,0.1418110053456039,0.49992222596029023,0.0353581630829467,0.3533080586412325,1.0010391253131274,6.509746450216426
14,22,female,45,105,155,change,valid,clock,2,0,1,0.004924299400045129,0,f,same,1.1130266865980047,0.036280041606810615,0.500479954022012,0.03533026064405931,0.3533491105054054,1.0010481054082447,4.849714256574771
14,22,female,46,75,75,same,valid,anti,5,0,2,0.2953258283255309,1,j,change,2.412779060470257,0.05192065365935489,0.5006165797576614,0.03533571284469872,0.35329458849855655,1.0010641412927725,6.4167966909631104
14,22,female,47,15,65,change,valid,clock,1,0,1,0.01915454327081534,0,j,change,1.623747797872511,0.03660124467798179,0.4999251124195325,0.03534629652813237,0.3533061343355257,1.0010420117723697,5.273649481864595
14,22,female,48,75,75,same,catch,anti,4,0,2,0.39251226825354024,1,f,same,1.0750033595177229,0,0.500154104849571,0.035292095239128685,0.35333628179796506,1.0009958284249478,6.663873429405612
14,22,female,49,105,105,same,valid,clock,3,1,3,0.16263978881397634,1,f,same,4.719641745512035,0.1304097774342768,0.4998192755820128,0.0353581630829467,0.3532942677807114,1.0010865915310205,8.605942193202281
14,22,female,50,45,355,change,valid,anti,1,0,2,0.2942379539235844,1,j,change,2.6023793403924174,0.04987549596377594,0.4999802758620717,0.03535239016491687,0.35332024591343725,1.0010381631600467,6.581145584342721
14,22,female,51,75,125,change,valid,clock,2,1,2,0.3443616387007751,1,f,same,2.735386418311464,0.11963581772901277,0.5052685898399432,0.0353058860996498,0.353332433185642,1.0010468225377736,6.7741672805736926
14,22,female,52,105,105,same,valid,anti,3,2,2,0.399148558678462,1,f,same,1.3136586928767429,0.13866541809949845,0.49993280964417863,0.03533058136190448,0.3533019650053575,1.0010291830649294,5.509102769814035
14,22,female,53,165,165,same,valid,anti,3,2,1,0.15770426429480722,0,f,same,2.541187367443399,0.13262428996287193,0.49977277151720045,0.03534661724597754,0.35327694902525764,1.001077290718058,6.4394172303013875
14,22,female,54,15,15,same,valid,clock,1,0,2,0.07022947671384827,1,j,change,2.35768617581698,0.036804346251808034,0.4999950288756736,0.03532544987865549,0.3533135108418719,1.0010455396668476,6.156700097209523
14,22,female,55,15,325,change,valid,anti,1,0,1,1.1547636038021665,0,j,change,2.6482124639233007,0.025245175171188322,0.5004061889535478,0.03530332035779793,0.35329875782827,1.0010872329667109,7.499814144098764
14,22,female,56,105,105,same,valid,clock,1,0,2,0.11166491928952382,1,j,change,1.7788003683122042,0.03578186603858813,0.4999783515559102,0.03531679050092862,0.3532984371108796,1.00105484047981,5.59146146881676
14,22,female,57,135,85,change,valid,anti,4,0,2,0.18930746467231074,1,j,change,1.1655095706969405,0.025544606871914455,0.5003465354629952,0.03530716897012098,0.35331896304296606,1.0010535576088841,5.002790564613861
14,22,female,58,45,45,same,valid,anti,4,1,3,0.00762089373120034,1,f,same,1.6331153201390407,0.10924909819355214,0.5002240213057121,0.035278625095997995,0.3533574491652871,1.0010221272755189,5.391527023512026
14,22,female,59,135,135,same,valid,anti,5,1,4,0.031212886949560925,1,f,same,1.5546536617785023,0.09901065879796375,0.5001464076253797,0.03532737418481702,0.3532695725184567,1.0010853086600946,5.226596348244129
14,22,female,60,15,325,change,valid,anti,5,0,2,0.13063761563080334,1,f,same,2.8486542846121665,0.016202367013348845,0.5002188898229178,0.03530845184104692,0.3532965128047181,1.0010740835414254,6.663811530891508
14,22,female,61,105,155,change,catch,clock,5,0,1,0.03483635540260366,0,j,change,1.3253870180537888,0,0.4995713608082042,0.03535174872922653,0.3533170387363498,1.001050991867487,6.498450131766731
14,22,female,62,105,105,same,valid,anti,2,0,2,0.6929987649159557,1,f,same,1.9280040102539715,0.007580826688361297,0.499905869358372,0.035361690977879334,0.35327566615478645,1.001039766748363,6.368961326898898
14,22,female,63,165,115,change,valid,anti,1,1,1,0.4891945399740507,0,f,same,1.7642603111539756,0.08864895283711942,0.49936064928624546,0.03534886226998424,0.3532961920868729,1.0010676691877052,6.015113500386633
14,22,female,64,45,45,same,valid,clock,2,1,3,0.03980715886746111,1,f,same,2.3848310795970065,0.1064712263939023,0.5000421743761763,0.03530716897012098,0.35332698098454784,1.0010189200984314,6.286796982816213
14,22,female,65,15,15,same,valid,anti,4,2,3,0.0370326301381283,1,j,change,2.177827374986464,0.1521100136631477,0.49935680067437715,0.035280870119549945,0.3533388475393622,1.0010625377040014,5.909242987588186
14,22,female,66,75,125,change,valid,clock,3,0,1,0.03577734110285746,0,j,change,1.1072906507265543,0,0.49970285506060463,0.035326412031736254,0.35329298490978545,1.0010612548335303,6.321613774439811
14,22,female,67,45,45,same,valid,clock,5,0,1,0.06616181426124967,0,j,change,0.8593014704588313,0.006798294533514826,0.49985615811601747,0.03529049165035758,0.3533138315592623,1.0010670277520148,4.649569741183768
14,22,female,68,105,105,same,valid,clock,5,0,1,0.13200194868068138,0,j,change,2.5370757666673853,0.014103689649355128,0.4992564160374968,0.03527926653123359,0.3532884948622268,1.001069593493412,6.321155789579734
14,22,female,69,165,215,change,valid,clock,3,2,3,0.02424786089341069,1,j,change,1.387488867087086,0.14664996578395811,0.5001159394446404,0.03528279442616622,0.3533616184950006,1.0010327109594073,5.108776535780635
14,22,female,70,45,45,same,valid,clock,5,1,2,0.08166402448750887,1,f,same,1.4388505221440937,0.09872350381048792,0.4996255620976626,0.03535399375277848,0.3533138315597171,1.0010153922039535,5.273188931263121
14,22,female,71,105,105,same,valid,clock,1,1,2,0.23462262913471932,1,f,same,1.769836629616293,0.09111960843502973,0.4999305646206267,0.03537131250823222,0.3532766283078672,1.0010541990445745,5.768458184988049
14,22,female,72,165,115,change,valid,anti,3,0,2,0.0083357734602032,1,f,same,2.189982575407612,0.02090133978970901,0.499792014578361,0.0353414857631833,0.3533128694066363,1.000963435938047,5.8736324196834175
14,22,female,73,75,75,same,valid,clock,1,2,3,0.022537794174240844,1,f,same,1.605037769318642,0.14176649010443365,0.5005578884201896,0.03535303160015246,0.3533545627060448,1.001065744881089,5.4038201325397495
14,22,female,74,165,215,change,valid,clock,2,1,2,0.08353605363981842,1,j,change,1.5764194884745848,0.08352592537984375,0.49968906420053827,0.03535944595341789,0.3532884948622268,1.001043615360686,5.320283758182541
14,22,female,75,135,135,same,valid,anti,2,2,2,1.1188967824637075,1,f,same,4.050766403026046,0.13694266772375266,0.5003609677592067,0.03535784236510153,0.35327919404926433,1.0010253344521516,8.806879843438765
14,22,female,76,75,25,change,catch,anti,2,1,3,0.025389295149125246,1,f,same,1.5117839696963529,0,0.500341403980201,0.03531807337185455,0.3533542419886544,1.0010266173230775,6.7927496634870295
14,22,female,77,45,95,change,catch,clock,1,1,1,0.7506881799818075,0,f,same,1.8728424920150246,0,0.5003215194833501,0.035337637150860246,0.35328464624990374,1.001071197082183,7.794471276042714
14,22,female,78,165,165,same,valid,clock,5,2,3,0.49892703897103274,1,f,same,1.635263807938827,0.13257741566895004,0.49965987889072494,0.03535303160015246,0.35331190725355555,1.001062216986611,5.803498837558891
14,22,female,79,135,85,change,catch,anti,3,2,1,0.4737622462039326,0,f,same,0.8417348004672931,0,0.49926154752029106,0.035356559494630346,0.35331896304296606,1.0010256551699968,6.568107127405256
14,22,female,80,75,75,same,valid,clock,3,0,1,0.20085586722552762,0,f,same,1.2791016825808583,0.01363483261493803,0.5001515391081739,0.03534084432794771,0.35332633954931225,1.00104842612609,5.273489123019772
14,22,female,81,105,105,same,catch,anti,5,0,1,0.28215331139381306,0,f,same,1.279709442602325,0,0.5004908584232908,0.0353036410756431,0.35332794313808336,1.001037201006966,6.828809877591539
14,22,female,82,135,85,change,catch,anti,4,2,1,0.24144878443212292,0,j,change,1.8616792714065014,0,0.4998728354362356,0.0353392407391766,0.3532134469232915,1.0010827429186975,7.3815956795479
14,22,female,83,15,15,same,valid,clock,5,1,2,0.015141723543365515,1,j,change,2.201462023658223,0.075868194696801,0.4998128612282926,0.035382537627356214,0.3532795147671095,1.0010503504322514,5.921440522744433
14,22,female,84,75,125,change,valid,clock,5,2,2,0.0077927984125381045,1,j,change,2.0232125841926063,0.12819517044318574,0.49944467732120756,0.03535495590585924,0.35330709648815173,1.0010404081840534,5.720270352183434
14,22,female,85,15,65,change,valid,clock,4,2,1,0.48010828712040166,0,j,change,0.9818441716133748,0.12419380604720814,0.5004302427801122,0.03532801562005261,0.3532731004129346,1.0010760078471321,5.191669229735453
14,22,female,86,105,105,same,valid,anti,5,1,2,0.47886871325181346,1,j,change,1.3057571711674427,0.06846747171529444,0.499874439024552,0.035314224759986246,0.35331671801895936,1.0010230894285996,5.4735399888454594
14,22,female,87,165,115,change,catch,anti,1,2,1,0.17960254739637094,0,j,change,1.5218920291072209,0,0.5002067025507131,0.035337316433015076,0.35329715423995367,1.0010474639730091,6.945646369620135
14,22,female,88,45,355,change,valid,anti,5,1,3,0.10141734768421884,1,j,change,2.358726263283188,0.0608076812427093,0.5007900880273155,0.03530460322917861,0.3533218495017536,1.0010384838778918,6.204863876187574
14,22,female,89,45,355,change,valid,anti,5,0,2,0.027837012552936358,1,j,change,1.9469109594688234,0.019930650694269414,0.4999446761985382,0.03533282638545643,0.35327085538938263,1.0010240515816804,5.709567682176839
14,22,female,90,105,55,change,valid,anti,4,0,1,0.09961266924710799,0,j,change,0.30178476186847547,0.013228849714056107,0.49989913428680666,0.03535014514091017,0.35328304266113264,1.001078894307284,4.166757483225865
14,22,female,91,45,355,change,valid,anti,4,1,2,0.015052884743454342,1,j,change,1.4253656261835204,0.052644520938579936,0.4998936820857125,0.03532673274912668,0.3533189630425113,1.001043615360686,5.143740536824225
14,22,female,92,45,95,change,valid,clock,4,1,3,0.10003954449075536,1,j,change,2.1054920659253185,0.04379295732416902,0.500391115221646,0.035329298490978545,0.35328624983776535,1.0010753664118965,5.909761908809742
14,22,female,93,45,45,same,catch,clock,5,2,1,0.23045169558645284,0,j,change,0.3052376085106516,0,0.5001136944210884,0.035297868157613266,0.3533359610801199,1.0010234101464448,5.73350893695897
14,22,female,94,105,55,change,valid,anti,1,0,2,0.5403339376725853,1,j,change,1.0156009912743684,0.01909908255675638,0.5000402500700147,0.03532801561959786,0.35331415227665275,1.0010410496188342,5.30905479044759
14,22,female,95,45,45,same,valid,clock,2,0,2,1.1689643416448234,1,f,same,2.711868831596803,0.012873910055056753,0.49955436277105036,0.035321601266332436,0.35322852065473853,1.0010942887556666,7.652274674174805
14,22,female,96,165,115,change,catch,anti,4,2,2,0.3775889534563248,1,j,change,1.1892577534308657,0,0.49946680684115563,0.035292415956973855,0.35326957251891145,1.0010987788027705,6.804175872601263
14,22,female,97,135,185,change,valid,clock,3,0,2,0.9491697741541429,1,f,same,2.4235221409062433,0.006873737044667261,0.5001473697784604,0.03533186423192092,0.3533144729944979,1.0010166750753342,7.134866599080851
14,22,female,98,135,135,same,valid,clock,5,0,1,0.2544506795520647,0,j,change,0.44514973827790527,0.001337134034115256,0.4999225466772259,0.03532544987865549,0.35331094510002004,1.001030145218465,4.413786434732174
14,22,female,99,15,65,change,valid,clock,2,0,2,0.33045852687337174,1,j,change,0.7730964042093547,0.0063531092675957745,0.49959445248168777,0.035352390164007375,0.3532878534269912,1.0010779321537484,4.873176038411657
14,22,female,100,45,355,change,valid,anti,1,1,2,0.15585051605103217,1,f,same,1.326403051692978,0.03391081292385309,0.49964159798219043,0.03535303160060721,0.3533080586412325,1.0010481054086995,5.308585580468389
14,22,female,101,45,45,same,valid,anti,3,1,1,0.5419779365474824,0,j,change,1.1807324358160258,0.022489143611044954,0.5076765382500525,0.03530684825273056,0.35333756466843624,1.0010708763638831,5.445898934800425
14,22,female,102,135,185,change,valid,clock,4,0,2,0.20432474975223158,1,j,change,2.05938440805312,0.0011383308896343869,0.5003327446029289,0.03529466098007106,0.35331832160773047,1.0010484261256352,5.992640170467894
14,22,female,103,75,75,same,valid,clock,2,2,3,0.9965134780013614,1,f,same,1.2277749857521485,0.13755100835381667,0.49929297785456583,0.03536329456619569,0.353275345437396,1.0010638205749274,5.9211682334253055
14,22,female,104,75,125,change,valid,clock,2,0,1,0.37760947938932077,0,f,same,1.7496881822262367,0,0.4995328746854284,0.03532320485464879,0.3533157558658786,1.0010404081831439,7.345700635052708
14,22,female,105,165,165,same,valid,anti,2,2,2,0.5162124395483261,1,j,change,0.7527712413730114,0.13394847330585732,0.5003664199603008,0.03524815691616823,0.3533856723215649,1.0010513125853322,4.9796648949159135
14,22,female,106,45,95,change,valid,clock,1,1,2,0.465509538625156,1,f,same,2.0225426049400994,0.04196235260591871,0.500044419400183,0.035292095239128685,0.35331286940709106,1.0010282209113939,6.2157846342233825
14,22,female,107,105,55,change,catch,anti,1,1,2,0.05525196062808391,1,j,change,1.9230784279834552,0,0.49951106588287075,0.0353543144701689,0.3533022857227479,1.0010516333022679,7.252137984295587
14,22,female,108,15,325,change,valid,anti,3,0,1,0.2701065135515819,0,j,change,0.4474210609532747,0.0008059685007406892,0.49932825679934467,0.03535880451909179,0.3533115865357104,1.001050991867487,4.437314605130268
14,22,female,109,75,125,change,catch,clock,5,0,2,0.27077392706269166,1,f,same,0.9460475874493568,0,0.4990950950395927,0.035334750691617955,0.3533192837603565,1.0010410496188342,6.474216703169986
14,22,female,110,75,75,same,catch,anti,1,2,1,0.1498665654053184,0,j,change,0.4059047975197245,0,0.49943986655580375,0.035380613321649435,0.35331735945419496,1.0010381631600467,5.744324178874194
14,22,female,111,45,45,same,valid,clock,2,2,1,0.1175257143431736,0,f,same,1.2403349318974506,0.1302891193742265,0.499668858986297,0.03532577059650066,0.35326187529335584,1.0010939680378215,5.120376253164068
14,22,female,112,135,135,same,valid,clock,3,1,2,0.1910630733027574,1,f,same,2.982208827625982,0.03441429312442873,0.4994116433990712,0.03528985021603148,0.3533269809850026,1.0010602926804495,6.933212786245349
14,22,female,113,165,165,same,catch,clock,3,0,3,0.8435439689519626,1,f,same,3.267138271337899,0,0.5000963756656347,0.03530620681704022,0.35332409452530555,1.0010525954567129,9.372388516126193
14,22,female,114,15,15,same,catch,anti,2,1,1,0.23274482706437993,0,f,same,0.3065095748661406,0,0.5002743739833022,0.03531230045336997,0.3533378853862814,1.0010304659354006,5.745103522859608
14,22,female,115,105,105,same,catch,clock,1,0,2,0.6527438841540061,1,j,change,1.6239434356630227,0,0.5003603263239711,0.03532288413680362,0.3533244152440602,1.001031107371091,7.594108993341251
14,22,female,116,105,155,change,valid,clock,2,2,3,0.20811851929738623,1,f,same,2.0019493221152516,0.14237058718364914,0.4998388393614732,0.03532705346697185,0.3532464808449731,1.0011093624871137,5.909482242984268
14,22,female,117,135,85,change,valid,anti,4,1,2,0.47300022097442707,1,j,change,1.5985855708477175,0.02629899484001047,0.4995514763113533,0.03534180648148322,0.3532432736674309,1.0010849879427042,5.780144175429996
14,22,female,118,75,75,same,valid,clock,4,2,3,0.4190728244029742,1,f,same,0.7451513097958014,0.13902296560035582,0.49908258704999753,0.03532416700727481,0.3532779111792479,1.0011016652624676,4.860252077689438
14,22,female,119,165,165,same,valid,anti,4,2,2,0.17102463208084373,1,f,same,1.587939667871069,0.1359197063144189,0.5002846369498002,0.03530684825273056,0.35332762241978344,1.0010753664118965,5.532645372508341
14,22,female,120,105,155,change,valid,clock,4,0,2,0.3231711795378942,1,j,change,1.6242311194300783,0.005327408766062303,0.5004745018213725,0.03526258921192493,0.3533645049546976,1.0010554819155004,5.627651573585354
14,22,female,121,165,165,same,valid,anti,3,1,3,0.16035435455978586,1,f,same,1.3156153914987954,0.017943165079902124,0.499834670031305,0.035326412032191,0.3533115865357104,1.0010404081840534,5.155654878260066
14,22,female,122,45,95,change,valid,clock,3,1,1,0.09040967515466036,0,f,same,0.2818669104972287,0.008768697457363278,0.4999279988787748,0.035371953943467815,0.35326861036628543,1.0010554819155004,4.037495746481909
14,22,female,123,165,165,same,valid,clock,1,2,2,0.7069599266451405,1,f,same,2.3117221994689316,0.13301466064162965,0.4994382629674874,0.03531358332384116,0.353309982947394,1.0010503504317967,6.721559958011312
14,22,female,124,75,25,change,valid,anti,1,1,1,0.14731236972784245,0,f,same,0.3398703081811618,0.024705713714106986,0.4998003532382427,0.03534950370521983,0.35332409452530555,1.0010118643094756,4.190306179556501
14,22,female,125,135,185,change,valid,clock,2,0,2,0.09359568467971258,1,j,change,1.6368013285409688,0.0006510227268297086,0.49971279730925744,0.03532031839586125,0.3533192837603565,1.0010516333022679,5.426681210145034
14,22,female,126,15,65,change,catch,clock,1,1,2,0.40641666295141476,1,j,change,0.9579846998421999,0,0.49999983964062267,0.03532833633835253,0.35329619208641816,1.0010333523950976,6.580853731245043
14,22,female,127,15,65,change,catch,clock,5,1,2,0.3272029216095689,1,f,same,1.0410566749851569,0,0.5002625074293974,0.0353309020792949,0.3533048514645998,1.001044256795467,6.663834622564536
14,22,female,128,75,125,change,valid,clock,1,0,2,0.211768286601,1,f,same,0.8316167988077723,0,0.5002657146051206,0.0353331471033016,0.35331511443109775,1.0010606133982947,6.334121122884426
14,22,female,129,165,115,change,valid,anti,3,1,1,0.22861045533227298,0,f,same,0.355467130125362,0.03586631356457906,0.49926828259140166,0.035349182988284156,0.353283684096823,1.0010519540210225,4.272133449347166
14,22,female,130,165,165,same,valid,anti,1,2,2,0.040371622000748175,1,f,same,2.5357351667262265,0.13000497274158213,0.49996327782446315,0.03530171676993632,0.3533054929002901,1.0010872329658014,6.333841777776797
14,22,female,131,75,125,change,catch,clock,2,1,2,0.6144290246938908,1,j,change,0.6978172274784811,0,0.49923268292877765,0.03531807337185455,0.35331190725355555,1.001042332490215,6.568161649413014
14,22,female,132,75,25,change,valid,anti,5,1,1,0.11935829521826236,0,f,same,0.28439192086443654,0.045635533870245215,0.5004658424431909,0.03532577059650066,0.3533013235701219,1.0010654241641532,4.096859628602033
14,22,female,133,15,15,same,valid,clock,2,2,2,0.023767425794176233,1,f,same,1.201894992538655,0.1271617435934429,0.49971472161541897,0.03534501365811593,0.3533388475398169,1.0010327109594073,5.002852463127965
14,22,female,134,15,65,change,valid,clock,1,1,2,0.22912649009504094,1,f,same,4.131572828412573,0.05414818139781244,0.4992631511086074,0.035343730787644745,0.35330196500490274,1.0010570855038168,8.111238044045422
14,22,female,135,15,15,same,valid,anti,1,1,2,0.20854699813025945,1,j,change,0.9433638218260967,0.04969353764562573,0.5001528219790998,0.0352953024157614,0.35330068213443155,1.0010609341161398,4.884752984838997
14,22,female,136,15,15,same,catch,anti,5,2,1,0.3777182026851733,0,f,same,3.5526029928732896,0,0.5004312049331929,0.035291774521283514,0.35332537739668624,1.0010224479929093,9.17178697802774
14,22,female,137,165,215,change,valid,clock,2,2,3,0.4332790144471801,1,j,change,0.9636832117439553,0.12450351570464041,0.5003417246980462,0.035352710881852545,0.35331062438308436,1.0010673484694053,5.14444547430503
14,22,female,138,75,75,same,catch,anti,2,1,1,0.05257140218054701,0,f,same,0.354108890711359,0,0.49976282926854765,0.035343410069799575,0.3532779111783384,1.0010753664118965,5.603363622980396
14,22,female,139,45,95,change,valid,clock,4,0,3,0.45465067910390644,1,j,change,1.5602408846416438,0,0.49954442052239756,0.035347579399058304,0.3533045307467546,1.0010602926804495,7.298402473117676
14,22,female,140,45,45,same,valid,anti,5,0,2,0.2388381424416366,1,j,change,0.7926441473673549,0,0.5004995178005629,0.035306206817949715,0.35334301686907565,1.0010602926804495,6.3336624965886585
14,22,female,141,45,95,change,valid,clock,1,2,2,0.16505832090842887,1,j,change,0.8419297968221144,0.12176215333671608,0.5000290249508907,0.03530396179394302,0.3533269809850026,1.0010352767012591,4.779164382889576
14,22,female,142,75,25,change,catch,anti,5,1,1,0.21990521509360406,0,j,change,0.24444364621376735,0,0.49937860947738955,0.035366822460673575,0.35327053467153746,1.0010638205758369,5.661158233448987
14,22,female,143,75,75,same,valid,anti,4,0,2,0.2736209379909269,1,f,same,1.3238045969756058,0,0.5002660353238753,0.03533699571562465,0.35333307462042285,1.0010375217252658,6.8874547106524915
14,22,female,144,105,105,same,valid,clock,5,1,2,0.6824121947129242,1,f,same,6.0422904759352605,0.045333057125920506,0.4995572492298379,0.035343730787644745,0.3532512916099222,1.001073442105735,10.525328198428724
14,22,female,145,165,115,change,valid,anti,2,1,1,0.11391860249113961,0,f,same,0.35254250551770383,0.041141333854820494,0.5000418536583311,0.035328657055288204,0.35328624983776535,1.001083705072233,4.21409573487108
14,22,female,146,165,115,change,valid,anti,2,2,3,0.7351894976500262,1,f,same,1.3445668980220944,0.11910479778739892,0.49914480628103775,0.035324167008184304,0.3533333953391775,1.001061254833985,5.850125095935255
14,22,female,147,105,105,same,valid,anti,4,2,2,0.15758688161986356,1,f,same,2.081145423984708,0.11660186090664781,0.4994081155045933,0.03534501365811593,0.3533260188323766,1.0010339938298785,6.10933201881835
14,22,female,148,165,215,change,valid,clock,5,0,1,0.10986184444118408,0,f,same,0.2222323426476578,0,0.5001656506856307,0.03534437222242559,0.35324391510312125,1.0011590737294682,5.567856005454814
14,22,female,149,75,25,change,valid,anti,2,1,1,0.1546398067739574,0,f,same,0.5209032564707741,0.0483705950345375,0.5003997745998277,0.035293057392664196,0.3533301881616353,1.0010465018203831,4.390553966042717
14,22,female,150,45,45,same,valid,anti,1,1,2,0.11509050492804818,1,f,same,0.6775267021530453,0.055199514324078214,0.5001383896833431,0.03529017093296716,0.3533423754342948,1.0010503504317967,4.590558648521437
14,22,female,151,75,25,change,catch,anti,3,1,1,0.5329279247926024,0,f,same,0.9558378156298204,0,0.502273728057844,0.03531486619522184,0.35329651280426333,1.0010529161736486,6.712587880655519
14,22,female,152,45,45,same,catch,clock,4,0,1,0.18048259673560096,0,f,same,0.3205695176438894,0,0.5000752082978579,0.03530941399458243,0.3533067757707613,1.0010634998579917,5.73254806676232
14,22,female,153,75,75,same,valid,anti,1,0,3,0.19366441447982652,1,f,same,1.543170685633413,0,0.5004748225392177,0.0353353921263988,0.35331639730065945,1.0010307866532457,6.9696472778923635
14,22,female,154,135,135,same,valid,clock,3,2,1,0.1838709791218207,0,f,same,0.5535901619214201,0.11423741491083023,0.49995750490597857,0.035277021506772144,0.3533244152440602,1.0010561233502813,4.461124044942153
14,22,female,155,165,165,same,valid,clock,2,2,2,0.46920067851078784,1,j,change,0.694512552409833,0.12257757972177659,0.4994260756957374,0.035328336337443034,0.3533122279704912,1.0010596512456686,4.920158614139837
14,22,female,156,15,325,change,valid,anti,3,2,3,0.2643833063875718,1,f,same,0.668968671334369,0.12021582276754648,0.4990720033665639,0.035347900116903475,0.35331832160773047,1.001019882251967,4.660136106173013
14,22,female,157,135,135,same,catch,anti,2,1,3,0.993632470997909,1,f,same,1.5761209003057957,0,0.5002965035027955,0.03533378853899194,0.3532657239065884,1.0010795357420648,7.817778151234961
14,22,female,158,135,185,change,valid,clock,3,2,2,1.3884458886714128,1,j,change,1.051670185473995,0.1179412125595333,0.5004658424441004,0.03533603356208914,0.35332730170284776,1.0009778682342585,6.2160620550248495
14,22,female,159,135,85,change,valid,anti,2,0,3,0.3821986288039625,1,j,change,0.8620362301944624,0,0.5003468561808404,0.03534565509289678,0.35330388931106427,1.0010333523950976,6.510759597396827
14,22,female,160,165,165,same,valid,clock,5,1,2,0.2521463229559231,1,j,change,1.0323876758457118,0.05163500378414215,0.49948989851600345,0.03532993992575939,0.3532913813214691,1.001068631340786,5.096259245088731
14,22,female,161,105,105,same,valid,clock,5,2,3,0.6188536459349052,1,f,same,2.5845086300314506,0.11580040446911313,0.49969130922454497,0.035311017582898785,0.3533093415117037,1.0010673484694053,6.910118226161103
14,22,female,162,105,105,same,valid,clock,3,2,3,1.568653309630463,1,j,change,1.2872947366704466,0.11375602937212895,0.49991773591318633,0.03531839408969972,0.3533048514636903,1.001043615360686,6.581312036823874
14,22,female,163,135,185,change,valid,clock,4,2,3,0.28054876079477253,1,j,change,1.091827247340916,0.11160995638330974,0.49965346453700477,0.035272210741823073,0.35336995715533703,1.0010683106229408,5.167758443133607
14,22,female,164,45,355,change,valid,anti,3,0,1,0.04529977001402585,0,j,change,0.20320961434663332,0,0.49961016764882515,0.035292415956973855,0.35333724395150057,1.0010497089970158,5.484646763140518
14,22,female,165,45,95,change,valid,clock,5,1,2,0.50971469916567,1,j,change,0.98958341017169,0.04792776977177077,0.500786239415902,0.03530620681704022,0.35328047692019027,1.0011122489459012,5.285824566782139
14,22,female,166,165,165,same,catch,anti,3,1,2,2.7177626605716796,1,f,same,1.808262457397177,0,0.5004539758892861,0.03529947174502013,0.35332184950129886,1.001066065598934,9.807788115934272
14,22,female,167,135,185,change,valid,clock,2,2,2,1.110496865465393,1,j,change,1.5407152710040464,0.10949865322531999,0.5002904098682848,0.03533795786825067,0.3533058136172258,1.001046181102538,6.440412417290645
14,22,female,168,105,55,change,valid,anti,5,1,2,0.38887116032765334,1,j,change,0.9589564744401287,0.044386954795616274,0.49965346453700477,0.035335712845153466,0.3533125486883364,1.0010391253126727,5.084779476121184
14,22,female,169,105,105,same,valid,clock,1,2,3,0.46025586215819203,1,f,same,1.1378928911963158,0.10748010683065633,0.49971247659141227,0.0353331471033016,0.3532904191679336,1.0010577269395071,5.344234313777633
14,22,female,170,45,95,change,valid,clock,2,1,1,0.24737244015159376,0,f,same,1.488961057495544,0.04076775257717011,0.4998125405109022,0.03532705346697185,0.3533147937132526,1.001039766748363,5.497645130367346
14,22,female,171,135,85,change,catch,anti,2,0,1,0.16934310923625162,0,f,same,0.31224657289112656,0,0.49927052761540835,0.035334750691617955,0.35326828964753076,1.0010830636365426,5.73231137710718
14,22,female,172,165,165,same,catch,anti,2,1,1,0.14082553374646523,0,f,same,0.24533267564856942,0,0.5003830972791548,0.03531743193707371,0.3533266602671574,1.0010625377044562,5.65112618412968
14,22,female,173,135,135,same,valid,clock,1,2,2,0.17573148488827428,1,f,same,2.190162818749741,0.10556539239506021,0.49960663975434727,0.03532577059650066,0.3533471862001534,1.0010506711496419,6.2154363348126935
14,22,female,174,75,75,same,catch,anti,5,0,1,0.17426259787043819,0,j,change,0.30568500968729495,0,0.49956558789017436,0.03533378853899194,0.353261233858575,1.0010503504327062,5.744175365865885
14,22,female,175,15,15,same,catch,anti,3,0,1,0.19553355717289378,0,f,same,0.5253291605822596,0,0.49989849285157106,0.03536361528404086,0.35327534543648653,1.0010474639730091,6.027459527833344
14,22,female,176,45,355,change,valid,anti,5,2,2,0.3260101725236382,1,f,same,1.8240924411011292,0.10372512717387543,0.49998893523934385,0.035272852177513414,0.3533600149066842,1.0010625377035467,6.003730908878424
14,22,female,177,45,355,change,valid,anti,1,2,1,0.15293872015081433,0,f,same,0.29454744649410713,0.10178330202179109,0.4996185063082521,0.0353520694470717,0.35325289519914804,1.0010638205749274,4.154123130577318
14,22,female,178,165,165,same,catch,anti,5,2,1,0.14033932572965568,0,f,same,0.8810409983043428,0,0.4998365943374665,0.035296264568387414,0.3533212080674275,1.0010487468434803,6.286177356240842
14,22,female,179,15,15,same,catch,clock,4,0,2,0.40946316028203,1,j,change,0.7368338172427684,0,0.5004199798140689,0.035353352317542885,0.3532791940497191,1.0010333523941881,6.380925700294938
14,22,female,180,165,165,same,valid,clock,4,2,2,0.4014083355177718,1,f,same,0.9974464457582144,0.1083639649144509,0.5005982988486721,0.03533667499777948,0.3532833633798873,1.0010817807660715,5.132985910550815
14,22,female,181,45,45,same,valid,anti,1,0,1,0.16741816166540957,0,j,change,0.3376474138767662,0,0.4993904760312944,0.03534597581074195,0.3532933056276306,1.001029503781865,5.873105159802435
14,22,female,182,165,165,same,catch,anti,3,1,1,0.10634485426089668,0,j,change,0.2893636864828295,0,0.5001884216426333,0.035311659018589125,0.3533359610801199,1.0010330316772524,5.67421240555268
14,22,female,183,165,165,same,catch,clock,4,1,1,0.22143984923695825,0,j,change,0.30707018938664987,0,0.5004886133992841,0.03532705346788134,0.35329522993379214,1.0010439360785313,5.769074283669397
14,22,female,184,45,95,change,valid,clock,3,0,2,0.1634120770095251,1,j,change,1.7929004008010452,0,0.4995117073176516,0.03532224270202278,0.35331735945419496,1.0010432946437504,7.275412787719688
14,22,female,185,45,95,change,valid,clock,3,2,3,0.3040592917213871,1,j,change,0.731416254036958,0.10659576500773729,0.4995184423896717,0.035310376147208444,0.35332505667884107,1.0010628584223014,4.825297377459719
14,22,female,186,45,95,change,valid,clock,1,0,1,0.08454086215897405,0,j,change,0.14526907733124972,0,0.4998760426133231,0.03529369882744504,0.3533333953391775,1.0010362388538852,5.497139679288921
14,22,female,187,165,115,change,catch,anti,1,2,1,0.023611556997821026,0,j,change,0.2553544620013781,0,0.5003349896260261,0.03532609131434583,0.35330517218244495,1.0010602926804495,5.603802685497612
14,22,female,188,15,15,same,valid,anti,3,1,2,0.11893526858693804,1,f,same,1.4401661061056075,0.04674092826966969,0.5002875234076782,0.03531294188815082,0.35327085538847314,1.0010634998570822,5.344956249296047
14,22,female,189,135,135,same,valid,anti,5,0,1,0.2307127597860017,0,j,change,0.4098855454785735,0,0.49922017493918247,0.03537836829673324,0.35330068213443155,1.0010362388538852,5.932267951932772
14,22,female,190,45,45,same,catch,anti,5,1,2,0.1648331770902587,1,j,change,1.0346282096224968,0,0.5001714236041153,0.03533731643256033,0.3533058136181353,1.001005770673146,6.545645664041331
14,22,female,191,135,185,change,catch,clock,3,0,1,0.01079182952435076,0,j,change,0.43437073746190435,0,0.4999671264367862,0.03532063911370642,0.3533561662943612,1.0010481054086995,5.721509605334177
14,22,female,192,165,165,same,valid,anti,4,1,1,0.1203534822079746,0,j,change,0.4990819456152167,0.043503314273666216,0.499788807402183,0.03534148576272855,0.3533122279714007,1.0010570855038168,4.354706387766782
14,22,female,193,45,45,same,valid,clock,1,1,2,0.4841464435457965,1,j,change,1.0348998575054793,0.04897148524358097,0.49964448444188747,0.03530620681704022,0.3533192837603565,1.0010615755518302,5.320129813691892
14,22,female,194,165,215,change,valid,clock,5,2,3,0.3327853337086708,1,j,change,0.7380547894854317,0.10490301027944093,0.499774695823362,0.03533795786825067,0.35331607658372377,1.00105484047981,4.838113897756557
14,22,female,195,45,45,same,valid,clock,3,0,3,0.2472284379091434,1,j,change,1.4044134602654594,0,0.4998048432862561,0.03528215299047588,0.3533333953391775,1.0010567647859716,6.874892519484092
14,22,female,196,75,125,change,valid,clock,3,1,1,0.0944840726788243,0,j,change,2.363610152254296,0.045862541866460604,0.5003763622080442,0.03531133829983446,0.3533244152431507,1.0010897987076532,6.2397951640259635
14,22,female,197,105,105,same,valid,anti,3,1,2,0.07273620617252163,1,f,same,3.392210793625054,0.05136686161504314,0.4994235099538855,0.03528536016710859,0.3533103036652392,1.00107985645991,7.228110777172333
14,22,female,198,15,325,change,valid,anti,1,1,1,0.04030202626290702,0,j,change,1.6644218566534619,0.04835722450509522,0.49974807625494577,0.03534116504579288,0.35324070792648854,1.0010795357420648,5.473368725599357
14,22,female,199,135,85,change,catch,anti,5,2,1,0.12692434622476867,0,j,change,0.498337880575491,0,0.5003593641713451,0.035371953943467815,0.3530742554457902,1.0012591376480486,5.886765167621888
14,22,female,200,165,165,same,valid,anti,1,1,1,0.10489039954063628,0,j,change,0.4114089545018942,0.05345289887854743,0.4999661642841602,0.03534180648057372,0.3533167180194141,1.0010506711496419,4.307903093225832
14,22,female,201,75,75,same,catch,anti,5,2,1,0.19665093760158925,0,f,same,1.7784270529218702,0,0.5106133501303702,0.03532737418481702,0.35330837935907766,1.0010404081831439,7.274426901543848
14,22,female,202,165,115,change,valid,anti,2,0,1,0.1948571635666667,0,f,same,0.38140036247568787,0,0.4999562220355074,0.035292415956973855,0.3533516762472573,1.001028541629239,5.827401926936545
14,22,female,203,45,355,change,valid,anti,3,2,2,0.19478917141623242,1,j,change,1.3672519016154183,0.10312793185786649,0.4992602646498199,0.03529113308650267,0.35334205471644964,1.0010529161736486,5.4021309124700565
14,22,female,204,165,165,same,catch,clock,2,1,1,0.06826828804423712,0,j,change,2.645793611111003,0,0.4999000964398874,0.03527092787135189,0.353343658304766,1.0010609341152303,8.017271930435527
14,22,female,205,45,45,same,valid,anti,2,2,3,0.49703448388663674,1,f,same,0.7517391718492945,0.10138551769294425,0.5001746307816575,0.0352930573917547,0.3533269809850026,1.0010384838769824,5.05040270916561
14,22,female,206,15,15,same,catch,anti,1,1,1,0.3571152983295178,0,f,same,0.27916518468373397,0,0.49974069974814483,0.03535848380124662,0.35330870007601334,1.0010561233511908,5.92072500157974
14,22,female,207,105,155,change,valid,clock,5,2,3,0.4043615039990982,1,j,change,0.9316557018637468,0.0996536844649936,0.5002859198193619,0.035325449879564985,0.35330966222954885,1.0010410496197437,5.120497163733489
14,22,female,208,135,85,change,valid,anti,1,0,2,0.3082760878987756,1,j,change,1.1014048396937142,0,0.4998712318474645,0.035320318394951755,0.3533077379233873,1.0010618962687658,6.7221975447782825
14,22,female,209,45,95,change,valid,clock,2,0,2,0.6332115354452981,1,j,change,1.2224539585704406,0,0.5001294095882258,0.03531230045336997,0.3532968335221085,1.0010375217243563,7.169837014477707
14,22,female,210,75,75,same,valid,clock,5,2,1,0.1539727139797833,0,j,change,0.31572154905370553,0.09797999047109669,0.499729795346866,0.035335071409463126,0.3532942677811661,1.0010721592352638,4.249250562939778
14,22,female,211,45,355,change,catch,anti,4,1,2,0.16486845603594702,1,j,change,1.1622539654335924,0,0.4988481424188649,0.03532544987865549,0.353308058642142,1.0010092985676238,6.591978145013854
14,22,female,212,165,115,change,catch,anti,5,0,1,0.14600512442757463,0,f,same,0.35558932356434525,0,0.49948444631445454,0.035366501742828405,0.3532801562023451,1.0010692727764763,5.755608310051684
14,22,female,213,45,355,change,valid,anti,2,0,1,0.01697590800722537,0,f,same,2.3458520138019594,0,0.5009202994096995,0.035315828347847855,0.3532990785461152,1.0010288623470842,7.618154481372585
14,22,female,214,75,75,same,valid,anti,3,1,2,0.22114478896310175,1,j,change,0.8865955079636478,0.05808847056965585,0.4995665500428004,0.035343730787644745,0.3532711761072278,1.0010654241641532,4.861095885929899
14,22,female,215,135,135,same,catch,anti,2,1,1,0.20123367266296555,0,f,same,0.20627567545489,0,0.4994238306717307,0.03530941399458243,0.3532512916108317,1.0010962130618282,5.650113036949733
14,22,female,216,165,165,same,valid,clock,3,0,2,0.2877222533497843,1,f,same,1.2910958827233117,0,0.4996175441556261,0.035339882174412196,0.3533045307467546,1.0009913383773892,6.839450328367093
14,22,female,217,15,15,same,valid,clock,5,2,3,0.12088266639602807,1,f,same,2.1005382604980696,0.10399089482994464,0.5003314617315482,0.03531967696017091,0.3532926641919403,1.0010711970826378,5.968789678791836
14,22,female,218,105,55,change,valid,anti,5,0,1,0.18620291743991402,0,f,same,0.25744906922955124,0,0.4995909245872099,0.0352885673446508,0.3533135108418719,1.0010708763647926,5.662149892544221
14,22,female,219,165,115,change,valid,anti,5,2,2,0.1326995096542305,1,f,same,0.8176729558335865,0.10238911713329156,0.49927277263941505,0.035343089351954404,0.35331735945419496,1.0010602926804495,4.74315869079237
14,22,female,220,105,55,change,catch,anti,3,0,1,0.15232486649256316,0,j,change,0.29098138650715555,0,0.4996611617607414,0.035361370260034164,0.35329073988668824,1.0010740835405159,5.673509392378037
14,22,female,221,15,15,same,valid,anti,4,1,1,0.03843256285199459,0,f,same,1.4431949639620143,0.055434933411434184,0.5001387104011883,0.035347258681213134,0.35330196500581224,1.0010862708131754,5.167525281372946
14,22,female,222,15,15,same,valid,anti,3,2,1,0.0828173252984925,0,j,change,0.34195016239573306,0.10080439635917655,0.49984942304490687,0.03530845184104692,0.35331415227756224,1.0010538783262746,4.119130906376995
14,22,female,223,15,15,same,valid,clock,3,0,1,0.2481594813607444,0,f,same,0.2213801957468604,0,0.500439864310465,0.035337957869160164,0.35326957251891145,1.0010493882791707,5.6978367912579415
14,22,female,224,135,135,same,valid,anti,2,0,2,0.044370330149831716,1,f,same,1.3073835305694956,0,0.5002320392477486,0.035349824423065,0.3532779111792479,1.001047143255164,6.628685246697387
14,22,female,225,105,55,change,valid,anti,5,2,2,0.027175371960765915,1,j,change,1.3498805486960919,0.10624167575135994,0.49911562097258866,0.035260664905763406,0.35337893725045433,1.0010593305278235,5.1201097367638795
14,22,female,226,15,15,same,catch,anti,2,2,1,0.09502672700818948,0,f,same,0.20282026307268097,0,0.49908900140326296,0.03533186423283041,0.35332986744379014,1.0009980734494093,5.49622018167338
14,22,female,227,15,15,same,valid,anti,1,0,2,0.053781470021931455,1,j,change,1.0058441177325221,0,0.500649613679343,0.03532352557249396,0.3533093415126132,1.0010628584223014,6.357996309821829
14,22,female,228,75,25,change,valid,anti,1,0,2,0.43443872961142915,1,j,change,1.4722747575615358,0,0.4999302439027815,0.035380292603804264,0.35326957251891145,1.001066707033715,7.204785941788941
14,22,female,229,135,135,same,valid,clock,4,2,4,0.2308753636534675,1,f,same,2.560943256381506,0.10483210178168006,0.4998936820857125,0.03530716897057573,0.3533478276349342,1.0010458603846928,6.498284320721723
14,22,female,230,45,45,same,valid,clock,4,2,4,0.2559336781478123,1,f,same,1.899428064145468,0.10334611656025364,0.49971055228525074,0.03532673274912668,0.3532958713694825,1.0010343145477236,5.897175663813869
14,22,female,231,135,135,same,valid,clock,4,0,1,0.17268402540503303,0,f,same,0.2737245298039852,0,0.4999116422768566,0.03535078657660051,0.353294909215947,1.0010638205749274,5.709220024201386
14,22,female,232,15,65,change,valid,clock,5,1,2,0.06949567464107531,1,f,same,1.5400529889766403,0.06018939528981879,0.49991196299379226,0.03535559734154958,0.35329747495779884,1.0010304659354006,5.367442407922681
14,22,female,233,165,115,change,valid,anti,5,0,1,0.048218621702289965,0,f,same,0.17171962731299573,0,0.5001922702549564,0.03531518691306701,0.353309982947394,1.0010490675613255,5.450423299242175
14,22,female,234,165,115,change,valid,anti,4,2,2,0.0387988224529181,1,f,same,1.109910272812158,0.1018830868004223,0.4995495520051918,0.03532673275003617,0.3533244152431507,1.0010477846908543,4.931117858298421
14,22,female,235,15,15,same,catch,anti,2,0,1,0.12138587245044619,0,f,same,0.2068827940411211,0,0.5007451875508195,0.03532673274912668,0.3532923434740951,1.001054519761965,5.556792207329636
14,22,female,236,75,25,change,valid,anti,5,0,1,0.10221048252969922,0,f,same,0.2414218441463163,0,0.5000524373426742,0.035334750691617955,0.35329073988577875,1.0010734421066445,5.591418492645971
14,22,female,237,75,75,same,valid,clock,1,1,2,0.5235713069278063,1,f,same,2.4579396390063266,0.057576747548861384,0.4998102954868955,0.035346937963367964,0.3533077379233873,1.001032390241562,6.82823130288034
14,22,female,238,15,15,same,valid,anti,2,1,1,0.07317943801899673,0,f,same,0.8817648581289177,0.055101287932990295,0.4994369800961067,0.03533282638545643,0.3532933056276306,1.0010599719635138,4.743193649020213
14,22,female,239,105,55,change,valid,anti,3,2,3,0.5257207568802187,1,j,change,0.7832442326134696,0.1004272436568274,0.5001120908327721,0.035330581362359226,0.35340074605301197,1.0009114796721406,5.0267417616450984
14,22,female,240,105,105,same,catch,clock,4,1,2,0.12024860752353561,1,f,same,1.1633248417974755,0,0.49977726156430435,0.03535014514091017,0.35329619208732765,1.0010750456940514,6.556783547952364
14,22,female,241,135,85,change,valid,anti,4,2,2,0.5361703806311198,1,j,change,0.9233584145258646,0.09898190957625971,0.5008462136229355,0.03533346782114677,0.3532990785461152,1.001053878327184,5.286080178781049
14,22,female,242,165,215,change,valid,clock,1,1,2,0.46277253386506345,1,j,change,0.8768254849974255,0.05955783459495634,0.4997888074012735,0.03528536016801809,0.3533423754342948,1.0010413703366794,5.155231851628741
14,22,female,243,75,125,change,catch,clock,1,0,1,0.11658055931184208,0,f,same,0.27277424329076894,0,0.4999289610323103,0.03532480844296515,0.35328400481466815,1.0010439360776218,5.674086363500464
14,22,female,244,15,15,same,valid,clock,4,2,3,0.45816189636570925,1,f,same,1.4513790379560305,0.09760269143051085,0.500391115221646,0.03535944595387264,0.3532993992630509,1.001055481914591,5.639112099491285
14,22,female,245,15,15,same,valid,clock,3,1,3,0.1430965357039895,1,f,same,1.3275746334120413,0.057121226352934956,0.5002762982885542,0.03532705346788134,0.35324487725665676,1.001089157271963,5.214861608714273
14,22,female,246,75,75,same,valid,clock,5,0,1,0.12245354163769662,0,f,same,0.21605307492882275,0,0.49968810204791225,0.03534725868212263,0.35331094510002004,1.0010625377044562,5.5561443575979865
14,22,female,247,135,185,change,valid,clock,5,2,3,0.41769502121132973,1,j,change,1.4853119316276207,0.09628072587006041,0.4998022775444042,0.035335071409463126,0.353294909215947,1.0010747249771157,5.7795207002418465
14,22,female,248,45,45,same,catch,clock,5,0,1,0.0034364900402579224,0,j,change,0.37099146987111453,0,0.5005485876072271,0.03530428251178819,0.3533622599306909,1.0010150714861084,5.650872817155687
14,22,female,249,105,155,change,valid,clock,5,1,2,0.49588823886551836,1,f,same,1.3687278444203912,0.05480127771571283,0.49992543313692295,0.035330260644514055,0.35328945701530756,1.0010202029689026,5.650339142920529
14,22,female,250,15,325,change,catch,anti,2,0,1,0.09302929723980924,0,f,same,0.40408023458621756,0,0.5002801469017868,0.035328657055288204,0.353275345437396,1.0010679899050956,5.721796006230761
14,22,female,251,15,15,same,valid,clock,4,0,1,0.030523343918503087,0,f,same,0.5858918854255535,0,0.5055007894461596,0.03531037614811794,0.35330164428705757,1.0010465018203831,5.88012631145466
14,22,female,252,135,135,same,valid,anti,1,0,1,0.17958362505305558,0,f,same,0.256946504609914,0,0.49909894365282526,0.035352710881852545,0.35330613433598046,1.0010628584213919,5.63808804791006
14,22,female,253,15,325,change,valid,anti,5,1,2,0.21118618399577826,1,j,change,0.6071137749213449,0.0524299166231364,0.49907649341457727,0.035324167008184304,0.35328400481466815,1.0010821014830071,4.589887386398004
14,22,female,254,15,65,change,catch,clock,3,2,1,0.16101920232995326,0,f,same,0.47012049684326485,0,0.4994257549778922,0.035329939926668885,0.35333756466843624,1.0010448982311573,5.9203337259987165
14,22,female,255,165,165,same,valid,anti,5,0,1,0.1894036799785681,0,j,change,0.25593880963060656,0,0.5002945791975435,0.03536361528313137,0.3533103036643297,1.0010150714861084,5.6864028849195165
14,22,female,256,15,15,same,catch,clock,5,0,1,0.18834659447566082,0,f,same,1.7333691040466874,0,0.4997288331933305,0.0352885673446508,0.35335616629527067,1.00104810540779,7.133646268272969
14,22,female,257,15,15,same,valid,clock,3,2,3,0.14871198172386357,1,f,same,0.8860509293281211,0.09500232283100411,0.500209268292565,0.035291133085593174,0.35332730170284776,1.0010558026333456,4.791248383983657
14,22,female,258,165,165,same,catch,anti,2,0,1,0.23175829945193982,0,f,same,0.38310786345209635,0,0.4992689240280015,0.03531967696017091,0.35326636534136924,1.0010718385174187,5.77915668566493
14,22,female,259,105,55,change,valid,anti,2,1,3,0.15788097974109405,1,j,change,1.8137585964368554,0.050064911132706336,0.5000505130356032,0.035349503706129326,0.3532977956747345,1.001032069523717,5.72152018901761
14,22,female,260,105,105,same,valid,clock,4,2,4,0.3769786276943705,1,f,same,2.7697272648838407,0.09375515576685635,0.49974518979615823,0.035330581362359226,0.3532865705556105,1.0010865915310205,6.898652248054532
14,22,female,261,105,105,same,catch,anti,2,0,1,0.6909663769192775,0,j,change,1.7439473355898372,0,0.49971696663942566,0.03538382049828215,0.3532298035252097,1.0010044878026747,7.676433375550914
14,22,female,262,135,135,same,valid,clock,2,2,3,0.16976228725616238,1,f,same,1.237504277572043,0.0924246019262186,0.4994706554534787,0.035292736674819025,0.3533279431385381,1.0010596512447592,5.155568925919397
14,22,female,263,165,165,same,valid,anti,2,1,2,0.16704548771031114,1,f,same,1.0600466900814354,0.047740645548200705,0.4993670636404204,0.03532641203128151,0.3532888155805267,1.001058368374288,4.943185823508429
14,22,female,264,135,185,change,valid,clock,4,1,2,0.15366097638616338,1,j,change,0.9092808322748169,0.04553352118732654,0.49955692851290223,0.035361049542188994,0.3532769490248029,1.0010381631600467,4.861157463726158
14,22,female,265,75,75,same,catch,anti,1,0,3,0.20380037633003667,1,j,change,1.1081501741336979,0,0.5000360807398465,0.03534180648148322,0.3533260188314671,1.001045218949912,6.5098045001177525
14,22,female,266,135,85,change,catch,anti,5,2,1,0.15566898983888677,0,f,same,0.2595520151180608,0,0.5009363352937726,0.03535752164771111,0.3533045307467546,1.001044256795467,5.616094832372255
14,22,female,267,135,135,same,valid,anti,3,2,3,0.18998033038405993,1,f,same,1.547399669083461,0.09110152646934509,0.5004382607230582,0.03535944595296314,0.35327630759002204,1.0010349559825045,5.497987977576486
14,22,female,268,135,185,change,valid,clock,2,1,2,0.4374727189515397,1,f,same,3.022098410940089,0.04339433164409218,0.49999214241597656,0.035358804518182296,0.3532253134771963,1.001143679280176,7.204830521547592
14,22,female,269,135,185,change,valid,clock,5,0,2,0.02615613114357984,1,j,change,1.5993299566034693,0.0006702941619383673,0.4998381979257829,0.03537067107299663,0.35328304266113264,1.001050029714861,5.415157823571462
14,22,female,270,45,95,change,catch,clock,3,2,1,0.15874210673700873,0,f,same,0.3852855365621508,0,0.4992009318775672,0.03534180648057372,0.3533256981136219,1.001050991867487,5.756153850840747
14,22,female,271,135,85,change,valid,anti,2,1,1,0.14077486035148468,0,j,change,0.4883128870460496,0.04116988669401497,0.4995081794231737,0.03532320485555829,0.35328496696729417,1.0010529161736486,4.3305329333770715
14,22,female,272,105,105,same,valid,clock,2,2,1,0.13223478972304292,0,f,same,0.842708178653993,0.08977274157178827,0.5000508337534484,0.03527060715441621,0.35340331179486384,1.001053557609339,4.696235768553379
14,22,female,273,15,15,same,valid,clock,1,2,4,0.1546754064374909,1,f,same,1.6297657445920777,0.09438529610505321,0.4999963117470543,0.03531679050047387,0.35331511443109775,1.0010375217243563,5.544188002143528
14,22,female,274,165,165,same,catch,anti,4,2,3,0.07453062164313451,1,f,same,2.0201048297840316,0,0.49988662629675673,0.03530043389855564,0.35329939926396037,1.0010804978946908,7.370241311195969
14,22,female,275,75,125,change,valid,clock,3,2,3,0.13682842918569804,1,j,change,1.2590683728412841,0.09313863626925593,0.4999937460052024,0.03535784236555628,0.35329522993379214,1.0010628584223014,5.167989359870262
14,22,female,276,15,65,change,valid,clock,3,0,2,0.040179832823014294,1,f,same,1.9159581745652758,0,0.4995694365024974,0.03534661724643229,0.35330645505291614,1.0010644620097082,7.216556280983241
14,22,female,277,165,165,same,valid,anti,2,0,1,0.01876871989134088,0,f,same,0.961175199414356,0,0.4997891281200282,0.03529466098007106,0.3532814390737258,1.0010827429186975,6.227493716339268
14,22,female,278,105,55,change,valid,anti,4,2,2,0.03413205935703445,1,j,change,1.5497976752458271,0.0919036508969567,0.4994805977021315,0.035321601266332436,0.3533054929002901,1.0010452189490024,5.391223945295678
14,22,female,279,105,55,change,valid,anti,4,1,1,0.030458558944701508,0,j,change,0.1778995364666116,0.04485409417791178,0.49913903336346266,0.035371953943467815,0.3533189630425113,1.0010317488067813,3.8950473812283235
14,22,female,280,165,215,change,catch,clock,4,0,1,0.057695187983881624,0,j,change,0.22576344440585672,0,0.499954618447191,0.035384461933062994,0.35328945701530756,1.00106766918816,5.473787582901423
14,22,female,281,45,45,same,valid,anti,2,0,1,0.16773374787135253,0,j,change,2.69565077948846,0,0.5003465354629952,0.03537131250868697,0.35326861036537593,1.0010747249771157,8.01794255112327
14,22,female,282,15,325,change,valid,anti,2,0,1,0.15164654858108406,0,j,change,0.396510014249543,0.000347631470370674,0.4997965046268291,0.03532577059650066,0.35330292715843825,1.0010420117723697,4.237231346818589
14,22,female,283,165,165,same,valid,anti,4,0,1,0.2165325478745217,0,j,change,0.32630651566887536,0.0027071997821616345,0.4993067687146322,0.03530684825273056,0.3533359610801199,1.0010458603846928,4.248095658540478
14,22,female,284,45,355,change,catch,anti,4,0,1,0.1957449101300881,0,f,same,0.730959231329507,0,0.5003850215862258,0.03536521887235722,0.35330837935907766,1.0010288623470842,6.086828541436262
14,22,female,285,105,105,same,valid,anti,1,2,2,0.00808978299210139,1,f,same,1.3203199992822192,0.09066928097986507,0.49998091729776206,0.03532833633835253,0.3532468015619088,1.0011250776533416,5.108695073487979
14,22,female,286,135,135,same,catch,clock,4,2,1,0.14958722029859928,0,f,same,0.3244883670886338,0,0.49970510008461133,0.03530364107609785,0.35330068213443155,1.0010663863167792,5.638277592064696
14,22,female,287,75,75,same,valid,anti,2,1,2,0.26283776784384827,1,j,change,0.6612044167959539,0.048339313820041835,0.5005659063626808,0.03532769490266219,0.3532833633789778,1.0010625377044562,4.684985954168951
14,22,female,288,45,95,change,valid,clock,2,2,2,0.1680858958943645,1,j,change,1.3375604993825618,0.08942855890179702,0.4998936820857125,0.03529947174592962,0.3533215287843632,1.0010487468434803,5.309131441975296
14,22,female,289,15,15,same,valid,anti,5,0,2,0.07211690031454054,1,j,change,1.9674631904290436,0.004954917022924471,0.4992910535474948,0.03532609131434583,0.35332954672685446,1.0010513125853322,5.885218346206784
14,22,female,290,75,75,same,valid,clock,4,0,2,0.25206646425158397,1,j,change,0.9185290475616057,0.0025056664642382764,0.500349742639628,0.03532769490175269,0.3532625167299557,1.001088515837182,4.932774685881668
14,22,female,291,135,135,same,valid,clock,5,1,1,0.15392236130264791,0,f,same,0.4917195503403491,0.04629934927914331,0.49978046874093707,0.03529594385145174,0.3533382061041266,1.001031107371091,4.34268268159758
14,22,female,292,105,155,change,valid,clock,1,1,1,0.2034950530896822,0,f,same,0.33182285992279503,0.04995041607202472,0.500366740678146,0.03531390404168633,0.3533010028522767,1.0010455396668476,4.202586780594174
14,22,female,293,105,105,same,catch,anti,2,2,1,0.30313819051661994,0,f,same,0.7634604412369299,0,0.4998577617052433,0.0352930573917547,0.353309982947394,1.001074404258361,6.250783593493907
14,22,female,294,105,105,same,valid,anti,2,1,1,3.040059563689283,0,f,same,0.19936036064063956,0.053421707750623326,0.5006464065027103,0.03531614906660252,0.3533244152431507,1.0010378424422015,6.970101414140117
14,22,female,295,75,75,same,valid,clock,5,1,1,0.18061986390694074,0,f,same,0.8537719767782619,0.05665328137175349,0.4999648814127795,0.03538734839276003,0.35325417806961923,1.0010343145477236,4.7314791147036885
14,22,female,296,105,155,change,valid,clock,3,2,3,0.132122538531803,1,f,same,2.1206783692277895,0.08823104082788723,0.5000008017941582,0.03532673274912668,0.3533003614165864,1.0010577269385976,6.051183015304559
14,22,female,297,15,15,same,catch,clock,4,0,2,0.17529851600738766,1,j,change,0.9482682367297457,0,0.49989753069803555,0.035320639112796925,0.353309982947394,1.0010262966052323,6.439820693154616
14,22,female,298,165,215,change,valid,clock,3,0,1,0.20359672059748846,0,f,same,1.2028449583340262,5.4967748108009085e-05,0.5001178637512567,0.03529594385145174,0.3533494312232506,1.0010452189490024,5.085039257449353
14,22,female,299,45,355,change,valid,anti,2,1,3,0.19578788630042254,1,j,change,1.1207267975987634,0.0600924670877333,0.4999780308389745,0.03530845184104692,0.3533959352880629,1.0009852447410594,5.1082919313521415
14,22,female,300,75,125,change,valid,clock,1,2,3,0.028351443726023717,1,j,change,1.4287694030199418,0.08708318635808261,0.5001223537983606,0.03530588609919505,0.35329875782827,1.0010679899050956,5.215260581519033
14,22,female,301,105,105,same,catch,clock,4,1,1,0.1411177075615342,0,f,same,0.3863961819197357,0,0.5091710826818598,0.03531839408969972,0.3533115865357104,1.001027579476613,5.718203968111993
14,22,female,302,135,185,change,valid,clock,3,1,1,0.1173130785145986,0,f,same,0.6199161836393614,0.058163059646200305,0.5002384536019235,0.03527156930704223,0.353333395338268,1.0010442567963764,4.449442223830374
14,22,female,303,105,155,change,catch,clock,2,0,1,0.20652423166484368,0,f,same,0.6036554760776198,0,0.49959124530505505,0.03529850959239411,0.35330741720645165,1.0010926851673503,5.956238392023806
14,22,female,304,105,55,change,valid,anti,1,1,2,0.059239764375888626,1,j,change,0.8229910965565068,0.06150115181255514,0.5004289599100957,0.03531807337185455,0.3533382061041266,1.001053878327184,4.61495243596255
14,22,female,305,135,135,same,valid,anti,4,0,1,0.1657962923118248,0,f,same,0.32131614842455747,0.0023138595358901115,0.49913229829144257,0.035358483800337126,0.3532888155796172,1.00107985645991,4.142095575795793
14,22,female,306,135,135,same,catch,clock,1,2,2,0.2635802292934386,1,f,same,1.4407190234014706,0,0.49979522175544844,0.0353164697826287,0.35327951476665476,1.0010304659354006,6.910351387921764
14,22,female,307,15,65,change,valid,clock,5,0,1,0.185600609620451,0,f,same,0.27275756597100553,0.004459496950131592,0.5005748864577981,0.03531807337185455,0.35327406256601535,1.0010375217243563,4.120009031409609
14,22,female,308,75,25,change,valid,anti,4,2,3,0.42672771420984645,1,j,change,0.7832095951034717,0.08597463728840048,0.4999392239978988,0.03531839408969972,0.3533067757707613,1.0010577269395071,4.9555510940163
14,22,female,309,75,125,change,valid,clock,4,1,3,0.5305825163322879,1,j,change,0.7443148780612319,0.05960822792336942,0.4996666139622903,0.035340202892257366,0.3532801562023451,1.0009935834013959,4.9551646292011355
14,22,female,310,45,45,same,valid,anti,5,1,3,0.22558608752297005,1,f,same,2.351224355814338,0.05778107843995203,0.5003616091944423,0.03533250566852075,0.3532577059640971,1.0010423324893054,6.274828760808305
14,22,female,311,45,45,same,valid,anti,3,2,3,0.6056128161353627,1,f,same,1.3134011565725814,0.08489600917872551,0.5003256888130636,0.03532737418481702,0.3532657239065884,1.0010821014839166,5.662705696298872
14,22,female,312,15,15,same,valid,anti,5,2,2,0.852693082472797,1,j,change,2.159312984224016,0.08375084682147658,0.5000742461452319,0.03536008738956298,0.3533192837603565,1.0010439360785313,6.757827355743757
14,22,female,313,105,105,same,valid,anti,5,0,1,0.20476734016301634,0,f,same,0.2699195351387971,0.0065451819497227,0.49984525371473865,0.03535976667171781,0.3532843255325133,1.0010760078475869,4.131594957932975
14,22,female,314,105,105,same,valid,clock,2,0,1,0.1690737063772758,0,f,same,0.24377334624387004,0.008791662584479137,0.49954666554549476,0.035343730787644745,0.3533054928993806,1.0009772267994776,4.166624385384239
14,22,female,315,165,165,same,valid,clock,3,1,3,0.2718092037639508,1,j,change,1.331071418377178,0.0560421895560759,0.49966821755060664,0.035329298490978545,0.3532468015628183,1.0010493882791707,5.343747785043888
14,22,female,316,135,135,same,valid,anti,1,2,3,0.13520784270258446,1,f,same,0.900304906306701,0.08261853940767051,0.5002762982894637,0.03532352557249396,0.3533500726589409,1.0010272587587679,4.790673657885236
14,22,female,317,135,85,change,valid,anti,3,2,3,0.15551921467795182,1,j,change,1.9924326661230225,0.08148964982497749,0.5004542966071313,0.035353352317542885,0.3532798354854094,1.0010609341152303,5.909673070008466
14,22,female,318,105,155,change,catch,clock,4,2,1,0.06924359053755325,0,f,same,0.23822974098584382,0,0.5004671253145716,0.035316149065693025,0.35331415227756224,1.001043294642841,5.5326835379137265
14,22,female,319,105,55,change,valid,anti,3,0,3,0.22081060113123385,1,f,same,0.928084510394001,0.011067041879601974,0.50065795233877,0.035347900116903475,0.3532955506507278,1.0010400874662082,4.8737709697252285
14,22,female,320,105,105,same,valid,anti,5,2,1,0.1310535864731719,0,f,same,0.5205046043829498,0.08035513423528581,0.4997018929079786,0.03536778461329959,0.35331158653661987,1.0010452189490024,4.319188507273793
14,22,female,321,165,115,change,valid,anti,1,2,2,0.5384558148844008,1,j,change,0.8248146973373878,0.08429498472365016,0.5004222248371661,0.035301716769026825,0.3533244152440602,1.0009961491423383,5.085774663109987
14,22,female,322,45,45,same,catch,clock,3,2,1,0.22604567597227287,0,f,same,0.29639478038370726,0,0.5000360807398465,0.03536393600097654,0.3533112658187747,1.0010843465070138,5.756823509376773
14,22,female,323,135,85,change,catch,anti,1,2,1,0.16676806690975354,0,f,same,0.34429011865631765,0,0.5000062539947976,0.03535463518801407,0.3533099829483035,1.0010673484694053,5.69790991489117
14,22,female,324,75,125,change,valid,clock,5,1,1,0.10645101181580685,0,f,same,1.8894223136767323,0.05436008607298326,0.49974294477215153,0.03531775265491888,0.35332954672594497,1.001045218949912,5.720550338726753
14,22,female,325,75,75,same,catch,clock,5,1,1,0.2078192896933615,0,f,same,0.2512265046225366,0,0.499835632183931,0.03528279442616622,0.3533366025158102,1.0010634998570822,5.603115066771352
14,22,female,326,135,85,change,valid,anti,5,2,2,0.19527666230351315,1,j,change,1.0928118506471947,0.08322541277148449,0.4999081143823787,0.03532031839586125,0.3532791940488096,1.0010785735894387,5.132377188377177
14,22,female,327,75,25,change,catch,anti,4,0,1,0.15531491751062276,0,f,same,0.2851363066210979,0,0.5000133097837534,0.03534693796427746,0.3533144729954074,1.0010599719626043,5.661791330167034
14,22,female,328,165,165,same,valid,anti,1,0,1,0.047010478167976544,0,f,same,0.24230125204940123,0.008689975737508293,0.5004305634975026,0.03530428251087869,0.3533513555294121,1.0010157129217987,3.966498792337916
14,22,female,329,45,45,same,valid,clock,3,1,1,0.1705551013828881,0,f,same,1.7425438749824025,0.05720196409904568,0.49986385534157307,0.03530043389855564,0.3533359610810294,1.0010166750744247,5.579153927492371
14,22,female,330,165,215,change,valid,clock,4,0,1,0.09297028518540174,0,f,same,0.543521871503799,0.01091113474698599,0.5006191454995133,0.0353097347124276,0.35332762242069293,1.00105484047981,4.320674392328328
14,22,female,331,105,155,change,valid,clock,3,1,1,0.1500301314272292,0,f,same,1.152600042270933,0.06027157602168434,0.4994158127283299,0.03534661724643229,0.3533378853862814,1.0010747249762062,4.96742694932982
14,22,female,332,105,155,change,valid,clock,5,0,1,0.2676504574874343,0,f,same,0.3000124759182654,0.013045934311308266,0.4995983010940108,0.0353475793999678,0.35330421002890944,1.0010355974181948,4.177694918581437
14,22,female,333,165,165,same,valid,anti,3,0,2,0.09075957815366564,1,j,change,1.1919751944114978,0.015091652683697082,0.5004898962697553,0.035292095239128685,0.3533516762463478,1.0010099400033141,5.061810958090064
14,22,female,334,135,135,same,valid,clock,1,1,2,0.1073079694815533,1,f,same,0.9211236536675642,0.06320462581691744,0.5003904737859557,0.035298188875458436,0.35333179175086116,1.0010484261256352,4.802618146783971
14,22,female,335,135,185,change,valid,clock,1,0,1,0.11842757248450653,0,f,same,1.2267900617280247,0.012921205192558932,0.5005059321547378,0.03526226849407976,0.3533536005525093,1.0010596512447592,5.050804247713131
14,22,female,336,15,15,same,catch,clock,2,0,2,0.10194075895287824,1,f,same,1.235613967511199,0,0.49957777516283386,0.0353543144701689,0.35329170203931426,1.001044577513312,6.603633667275062
14,22,female,337,15,65,change,catch,clock,2,2,1,0.10392343570765661,0,f,same,0.4220676861850734,0,0.5006066375090086,0.0353074896884209,0.3533224909378987,1.0010551611967458,5.709833236423037
14,22,female,338,135,135,same,valid,clock,4,1,2,0.2565084042471426,1,j,change,1.602241431785842,0.06152468992725604,0.5003327446029289,0.035315828347847855,0.35330613433507096,1.0010651034453986,5.709760112790718
14,22,female,339,45,95,change,valid,clock,5,2,3,0.2187099002658215,1,j,change,0.8172265168104786,0.08216271593989227,0.4995062551170122,0.03531999767801608,0.353260271705949,1.0010352767003496,4.814129666802728
14,22,female,340,15,325,change,catch,anti,1,0,1,0.11446702973989886,0,f,same,0.2590735043258974,0,0.4992500016842314,0.035310696865053615,0.3533167180185046,1.0010375217243563,5.5671517094097
14,22,female,341,165,215,change,valid,clock,4,2,2,1.0646188414584685,1,j,change,2.7318838604278426,0.08109871729260291,0.5004594280899255,0.03535174872922653,0.35324038720864337,1.00109204373166,7.5829836174198135
14,22,female,342,75,25,change,valid,anti,2,2,3,0.22469064373490255,1,f,same,1.473975202749898,0.08002550002428814,0.4989116445221953,0.035342447916264064,0.35329843711042486,1.0010503504327062,5.449030743036019
14,22,female,343,75,75,same,valid,anti,5,1,2,0.5830397430154335,1,f,same,1.3232433410184967,0.05982623493767256,0.4996618031964317,0.035310055429363274,0.35334622404661786,1.0010625377044562,5.733148770993466
14,22,female,344,75,75,same,catch,clock,2,2,1,0.1531228121039021,0,f,same,0.3492484141315799,0,0.49920606336036144,0.03532609131434583,0.3533048514645998,1.0010551611976553,5.649313487750987
14,22,female,345,105,105,same,catch,anti,4,0,2,0.1329066932821661,1,f,same,1.1668732623111282,0,0.5005431354065877,0.03528311514401139,0.35333211246779683,1.0010400874652987,6.616763849471681
14,22,female,346,45,95,change,valid,clock,5,0,1,0.044645185209446936,0,f,same,0.22007583690447063,0.014920915086157421,0.5003837387148451,0.035326412032191,0.3533032478762834,1.0010760078475869,3.9789830491081375
14,22,female,347,75,75,same,catch,clock,2,1,1,0.11142117384588346,0,f,same,1.2844778732051054,0,0.4991618043195558,0.03535174872922653,0.3532913813214691,1.0010493882791707,6.603236618776464
14,22,female,348,45,45,same,catch,clock,2,2,1,0.18092935647655395,0,f,same,3.343199678512974,0,0.5001810451358324,0.03536906748377078,0.35327374184907967,1.001076970000213,8.79551553283818
14,22,female,349,45,95,change,catch,clock,3,2,2,0.3984246988547966,1,f,same,1.1634300371997597,0,0.49952549817862746,0.035357200930775434,0.3533080586412325,1.0010439360785313,6.839476306499819
14,22,female,350,105,105,same,valid,anti,1,0,2,0.20183918766088027,1,f,same,0.9421021184361962,0.016877602180662254,0.5000171583960764,0.03531230045336997,0.35330966222954885,1.0010567647859716,4.920429299870193
14,22,female,351,75,25,change,valid,anti,4,1,1,0.08346966507815523,0,f,same,0.30823663962291903,0.05817335638812579,0.5110043049935484,0.035365539589292894,0.35328849486268155,1.0010336731120333,4.178031351437312
14,22,female,352,135,185,change,catch,clock,4,1,1,0.12731177319346898,0,f,same,0.2741145225145374,0,0.49913261900928774,0.03537387825053884,0.35330164428705757,1.0010513125844227,5.591205215383525
14,22,female,353,45,45,same,valid,clock,3,2,1,0.1667741605451738,0,f,same,0.33732862049419055,0.07895619371225494,0.49935295206250885,0.03534886226952949,0.35326155457642017,1.0010516333022679,4.2603063431224655
14,22,female,354,15,325,change,valid,anti,2,2,3,0.04619777954303572,1,f,same,1.7226160813625029,0.08275864783487531,0.4999401861514343,0.03535944595387264,0.3532788733318739,1.0010731213878898,5.508746773179155
14,22,female,355,105,55,change,catch,anti,4,1,2,2.051526824667235,1,f,same,6.002697235766391,0,0.49993762040958245,0.03529466098007106,0.35334526189308235,1.0010634998579917,13.340390191555343
14,22,female,356,105,105,same,catch,clock,5,0,1,0.11888299160364113,0,f,same,0.26955327553787356,0,0.5004235077085468,0.03536393600097654,0.3532801562023451,1.0010487468434803,5.615431908909159
14,22,female,357,45,355,change,valid,anti,4,0,1,0.04919873496055516,0,f,same,0.22550879456048278,0.014758190395190163,0.5000027261012292,0.0353565594941756,0.3532913813214691,1.0010320695246264,3.954469313250229
14,22,female,358,135,135,same,valid,anti,3,0,2,0.16080784937275894,1,f,same,2.130024082691307,0.016669661937001923,0.49972883319424,0.035296906004077755,0.3533433375869208,1.0010561233511908,6.015168022393482
14,22,female,359,15,325,change,valid,anti,3,1,2,0.14498011069281347,1,j,change,1.1509246130617612,0.06105699656391356,0.49968938491838344,0.035353031599697715,0.353296833523018,1.0010529161736486,5.085131944860223
14,22,female,360,165,215,change,catch,clock,4,1,1,1.0729931010419023,0,f,same,1.527852246643306,0,0.4999167737596508,0.035361370260034164,0.35328977773315273,1.0010824222017618,7.875847937481012
14,22,female,361,165,165,same,catch,clock,5,0,1,0.18621125610115996,0,f,same,0.007622176602126274,0,0.5008644945310152,0.03531935624232574,0.3533022857227479,1.0010368802895755,5.356966485322118
14,22,female,362,15,65,change,valid,clock,5,2,2,0.04900245573480788,1,f,same,1.47963811498812,0.08175550467588333,0.4997631499863928,0.035273172895358584,0.35327630759002204,1.0010683106220313,5.238392986289
14,22,female,363,45,45,same,valid,anti,3,0,2,0.02785112413130264,1,j,change,0.7033932252234081,0.014602918290433003,0.49910215082945797,0.035315186912157515,0.3533337160561132,1.0010458603846928,4.448010219349271
14,22,female,364,45,45,same,catch,clock,1,2,2,0.053754850453515246,1,f,same,1.3749144886460272,0,0.4998401222319444,0.035314866194312344,0.3533337160561132,1.001027579476613,6.663139306614539
14,22,female,365,165,215,change,catch,clock,1,0,2,0.27179156429156137,1,j,change,0.8143519241621107,0,0.49997771012021985,0.035349503706129326,0.35330388931106427,1.0010634998570822,6.404582157769255
14,22,female,366,75,75,same,catch,clock,3,0,2,0.1912224699945,1,f,same,1.38952253795469,0,0.49954474124024273,0.03535976667171781,0.35327406256601535,1.0010904401433436,6.886530081555065
14,22,female,367,165,215,change,catch,clock,3,1,1,0.1698479188789861,0,f,same,1.4294567010274477,0,0.5000880370062077,0.035349824423065,0.3532945884981018,1.0009996770368161,6.816633509802159
14,22,female,368,45,45,same,valid,clock,5,2,3,0.09978232890443905,1,f,same,0.9294841223900221,0.0807473452989235,0.4997220981222199,0.03531967696017091,0.3532868912734557,1.0010157129217987,4.790375390433837
14,22,female,369,75,25,change,valid,anti,2,0,2,0.15354102797118685,1,f,same,1.4607937057235176,0.012516902081354336,0.49962139276794915,0.035316790501383366,0.35330966222954885,1.0010513125853322,5.297089775615859
14,22,female,370,15,15,same,valid,clock,4,1,1,0.17276420482721733,0,f,same,0.3015628252278475,0.05941471436452231,0.4998256899361877,0.03530396179394302,0.3533356403631842,1.0010561233502813,4.189671479249228
14,22,female,371,15,15,same,valid,anti,3,0,3,0.3411188621448673,1,f,same,1.0861720323273403,0.010421883332440096,0.5002435850847178,0.035273493613203755,0.3533545627060448,1.0010035256500487,5.109527335891471
14,22,female,372,75,75,same,valid,anti,5,2,3,0.18618463653183426,1,f,same,0.8674178730198037,0.07972625567845243,0.4996396736760289,0.0353565594941756,0.35330837935907766,1.001021165122438,4.790798737783007
14,22,female,373,15,15,same,valid,clock,1,1,2,0.04459354966184037,1,f,same,1.0873570841886249,0.06219317898729346,0.49973268180565356,0.035353673035388056,0.35330966223045834,1.0010609341161398,4.849705276478744
14,22,female,374,165,165,same,catch,clock,1,1,1,0.15384154044568277,0,f,same,0.058488643547207175,0,0.49989207849830564,0.03537612327363604,0.3533170387363498,1.0010519540210225,5.473801694480244
14,22,female,375,105,55,change,catch,anti,1,0,2,0.25697440704880137,1,j,change,0.6101801567474467,0,0.5003353103438712,0.03530652753488539,0.35325481950530957,1.001044577513312,6.193013357570635
14,22,female,376,105,155,change,valid,clock,1,2,2,0.4354525182270663,1,j,change,1.6531845502595388,0.07872626519282233,0.4993891931608232,0.03542198590366752,0.35321601266423386,1.001068631340786,5.897443142366683
14,22,female,377,45,95,change,catch,clock,1,1,1,0.08632180748827523,0,f,same,1.191538056200443,0,0.4993356333061456,0.0353543144701689,0.3533131901249362,1.0010362388538852,6.498189709003782
14,22,female,378,165,215,change,valid,clock,2,0,1,0.18117855412128847,0,f,same,0.4587083993073975,0.008360054388893534,0.5000665489205858,0.03534180648057372,0.3532936263454758,1.0010901194254984,4.320041295610281
14,22,female,379,105,155,change,valid,clock,3,0,3,0.35239850327434397,1,j,change,0.6395344846887383,0.010297283034732374,0.4992897706779331,0.03531903552448057,0.35334526189308235,1.0010343145477236,4.743146824236646
14,22,female,380,135,185,change,valid,clock,1,1,3,0.6875619586489847,1,j,change,1.3997486214748278,0.060617554393251366,0.5000482680115965,0.03535720092986594,0.35328624983867485,1.0010724799521995,5.850864029490367
14,22,female,381,105,55,change,valid,anti,3,1,1,0.17726643974765466,0,f,same,0.3918259323982056,0.05903512269262698,0.5000389671995435,0.03530107533424598,0.3533404511281333,1.0010185993805862,4.2606847899960485
14,22,female,382,15,65,change,valid,clock,1,2,1,1.438228329827325,0,j,change,2.9500825366967547,0.07776690284955523,0.5004113204367968,0.035347579399058304,0.3532634788816722,1.0010683106229408,8.135956077071569
14,22,female,383,15,325,change,catch,anti,3,2,3,0.15674243194462179,1,f,same,1.9101499772132229,0,0.49981286122783786,0.03532961920791422,0.3532788733309644,1.0010346352655688,7.275487194223388
14,22,female,384,45,45,same,valid,clock,1,0,1,0.6271066742310722,0,j,change,2.1891082989868664,0.008282633437024206,0.5003837387148451,0.03536778461329959,0.3533022857236574,1.0010240515812256,6.569981401581572
14,22,female,385,165,115,change,catch,anti,4,0,1,0.17980908958816144,0,j,change,0.19847068977105664,0,0.4994805977021315,0.03531390404168633,0.3533414132816688,1.00105484047981,5.590513748044941
14,22,female,386,75,25,change,valid,anti,3,0,1,0.3066279196937103,0,f,same,0.2006118010631326,0.010177333042122594,0.5006300499007921,0.03533603356208914,0.35333082959732565,1.0010109021559401,4.202654131308918
14,22,female,387,15,65,change,valid,clock,2,2,2,0.013262959319945367,1,j,change,1.7669848079240182,0.08138872798519653,0.49936642220473004,0.03534084432794771,0.3532968335221085,1.0010282209123034,5.532034726028542
14,22,female,388,75,75,same,valid,clock,3,2,1,0.13865138853088865,0,f,same,0.24354756099000952,0.08042903703576373,0.4995408926270102,0.035361370260034164,0.35325065017423185,1.001058368374288,4.107053319636179
14,22,female,389,15,15,same,valid,anti,2,0,1,0.24868257191155863,0,f,same,0.494577144952018,0.012042522456754357,0.5003304995789222,0.03533058136144973,0.3533135108427814,1.0010426532071506,4.4257180949243775
14,22,female,390,15,65,change,valid,clock,3,2,3,0.8426805969320412,1,f,same,0.9425216171748616,0.08376877800732581,0.5003439697220529,0.035277342224617314,0.35335841131836787,1.0010522747379582,5.47364710855345
14,22,female,391,75,75,same,valid,anti,1,1,1,0.2094373104364422,0,f,same,0.21595301101024234,0.06173526597420198,0.5007493568800783,0.035321601266332436,0.3532990785461152,1.0010372010065112,4.167762933181621
14,22,female,392,105,105,same,valid,anti,1,1,1,0.30326711902853276,0,f,same,0.14918119170397404,0.06424252258372984,0.49972915391208517,0.03534629652858712,0.35334077184506896,1.0010054499553007,4.142811096960941
14,22,female,393,75,125,change,valid,clock,1,1,2,0.03668785862282675,1,f,same,1.1620843057762613,0.06664452306154267,0.5000322321275235,0.03536778461329959,0.3533000406996507,1.00106702775156,4.90866729933532
14,22,female,394,165,215,change,valid,clock,3,1,2,0.17322956619409524,1,j,change,0.6963650177822274,0.06524814147295568,0.5000325528453686,0.03532480844296515,0.3533266602680669,1.0010618962687658,4.614716387744011
14,22,female,395,75,125,change,catch,clock,3,2,2,0.34904411696334137,1,f,same,1.1873244671996872,0,0.4995774544440792,0.035319356243235234,0.3532548195044001,1.001058368374288,6.756725049045599
14,22,female,396,165,165,same,valid,clock,4,1,1,0.5661773690690097,0,f,same,0.15987905094516464,0.06388353340357361,0.5006345399488055,0.03532480844296515,0.3533035685941286,1.001039766748363,4.461795948502186
14,22,female,397,75,75,same,valid,anti,3,2,1,0.19957909010463482,0,j,change,1.687061318335509,0.08286521663135908,0.4993558385212964,0.03534148576272855,0.3533125486892459,1.0010166750753342,5.661108842924477
14,22,female,398,135,85,change,valid,anti,5,0,2,0.45400250865350245,1,j,change,2.413992656206574,0.013816781473301898,0.5005889980366192,0.03535046585875534,0.3532814390728163,1.0010487468443898,6.6637214092206705
14,22,female,399,75,125,change,valid,clock,5,0,1,0.050521374711934186,0,j,change,0.2548846105855773,0.011896527075447333,0.5001839315946199,0.035334750691617955,0.35327406256601535,1.0010891572728724,4.049525225568686
14,22,female,400,75,75,same,valid,anti,4,2,2,0.4507424133425957,1,f,same,1.891259384600744,0.08595942441039695,0.49940875694028364,0.035310055429363274,0.3533000406987412,1.0010586890921331,6.050521695429779
14,22,female,401,135,135,same,valid,anti,5,2,1,0.08228525465165148,0,f,same,0.838596257160134,0.08513998982085055,0.5031056697444001,0.035358804518182296,0.3532955506516373,1.001024693016916,4.569854076657975
14,22,female,402,75,75,same,valid,anti,3,0,1,0.15274564810169977,0,f,same,0.8560413751474698,0.013639894011300197,0.4997609049623861,0.035260664905763406,0.35334846907062456,1.0010853086605493,4.590057046055335
14,22,female,403,165,165,same,valid,clock,2,0,2,0.21779393054566754,1,j,change,0.8687844510932337,0.015327396253986325,0.5003503840753183,0.03528792590896046,0.3533471862001534,1.0010240515812256,4.861633729494315
14,22,female,404,165,115,change,valid,anti,4,0,3,0.45398326559279667,1,f,same,1.1547385878229761,0.013525369618080402,0.5002791847491608,0.035353993753233226,0.35329426778025663,1.0010362388538852,5.29777130070579
14,22,female,405,45,45,same,valid,anti,2,1,2,0.30255095642860397,1,f,same,1.6681312774471735,0.0662062733796405,0.499633259321854,0.035247194762632716,0.3533580906014322,1.0010118643094756,5.6615296245327045
14,22,female,406,45,45,same,valid,clock,4,1,2,0.5750513068123837,1,j,change,0.6039794009448087,0.06486441194828879,0.500468728902888,0.03528888806249597,0.3533279431385381,1.0010423324893054,4.932636456556793
14,22,female,407,75,75,same,valid,anti,4,1,2,0.1965800589923674,1,f,same,1.0100782326662738,0.06348200566791717,0.49972819175764016,0.03531390404259582,0.3532926641919403,1.0010804978946908,4.931436010246216
14,22,female,408,135,135,same,valid,clock,5,2,3,0.013638519733831345,1,f,same,2.1352322172460845,0.0883631363143457,0.5005758486104241,0.03534052361101203,0.35331864232466614,1.0010795357420648,5.886835084077575
14,22,female,409,75,75,same,valid,clock,2,0,2,0.2071566869481103,1,f,same,1.7977964770443577,0.011677284044071173,0.500037042893382,0.03531999767801608,0.3532878534269912,1.0010593305278235,5.8268028262928055
14,22,female,410,135,85,change,valid,anti,3,1,2,0.247046911696998,1,j,change,0.7908410725185604,0.06210559082150974,0.5006201076521393,0.035265154952867306,0.35335520414173516,1.0010352767012591,4.826799298398328
14,22,female,411,105,105,same,valid,anti,3,0,2,0.260507753831007,1,j,change,2.3539302509589106,0.009800858844808552,0.5000325528453686,0.03531358332384116,0.3533093415126132,1.0010327109584978,6.392756975850716
14,22,female,412,105,105,same,catch,anti,5,2,1,0.15593294049631368,0,f,same,0.2466424866906891,0,0.49995750490597857,0.035317111219228536,0.35328657055652,1.0010663863167792,5.602806536354365
14,22,female,413,105,155,change,valid,clock,1,0,2,0.12750131734810566,1,j,change,1.0468837946800704,0.007995467206153212,0.5008372335278182,0.035366181024983234,0.35327630759002204,1.0010721592352638,4.932935365443882
14,22,female,414,45,45,same,catch,anti,3,0,1,0.12743268376289052,0,f,same,0.23727592657724017,0,0.49967912195188546,0.035339882174412196,0.3532769490257124,1.0010541990441197,5.556200162474852
14,22,female,415,75,25,change,valid,anti,5,2,2,0.3817640563347595,1,f,same,2.472124020247975,0.08751969986022066,0.49950433081176016,0.035346937963367964,0.3532891362983719,1.0010298244997102,6.662438538463903
14,22,female,416,45,95,change,valid,clock,4,2,2,0.0022761334403185174,1,f,same,3.9096599205840903,0.08670363694289618,0.5006502551150334,0.03527605935505562,0.35333531964442955,1.0010728006709542,7.723872973986545
14,22,female,417,45,45,same,valid,clock,1,2,2,0.5302579500303182,1,f,same,2.11562321700967,0.08590976713753756,0.4997140801797286,0.03533571284424397,0.35327951476756425,1.0010044878026747,6.321290491008767
14,22,female,418,75,75,same,catch,anti,3,0,1,0.13314691083087382,0,f,same,0.21693280355066236,0,0.4996909885057903,0.03531390404168633,0.3532891362974624,1.001103589568629,5.556065140328428
14,22,female,419,105,105,same,catch,anti,2,2,1,0.1335580709092028,0,f,same,0.8444018887703351,0,0.5002358878600717,0.035329298490978545,0.3532971542390442,1.001005129238365,6.239912867417843
14,22,female,420,135,85,change,valid,anti,2,2,2,0.22819897453700833,1,f,same,1.6352359054999397,0.0851332941947337,0.4993789301943252,0.03534693796427746,0.3533026064405931,1.0010413703366794,5.709321370991347
14,22,female,421,15,325,change,valid,anti,4,0,2,0.07300881620813016,1,f,same,1.2974589216764798,0.006288604160864464,0.498987975331147,0.035297226721922925,0.3532990785461152,1.001080818612536,5.119139565755177
14,22,female,422,105,105,same,valid,clock,3,0,2,0.2477929010428852,1,j,change,0.8505888537138162,0.004642958190927998,0.5006056753563826,0.03528728447327012,0.35333724395150057,1.0010275794757035,4.861768751641648
14,22,female,423,15,325,change,valid,anti,1,2,3,0.06709221627806983,1,f,same,2.4038018516321245,0.08436973887482269,0.500416451919591,0.035309734711518104,0.3533045307467546,1.0010788943063744,6.180806200884035
14,22,female,424,135,135,same,valid,clock,3,0,1,0.06431672539565625,0,f,same,0.7343671774951872,0.0029746435141471683,0.5002609038401715,0.035353352317542885,0.353295871368573,1.0010474639730091,4.508773713465416
14,22,female,425,75,25,change,valid,anti,4,0,2,0.20833019297242572,1,f,same,1.0420797644137565,0.004474761221658602,0.49974935912541696,0.03534084432794771,0.3533167180185046,1.0010561233502813,5.00267767198693
14,22,female,426,45,95,change,catch,clock,4,2,1,0.08264958994641347,0,f,same,0.21055821875961556,0,0.5000024053824745,0.03533731643346982,0.35333307462133234,1.0010307866532457,5.449820670703957
14,22,female,427,45,355,change,catch,anti,5,1,2,0.031145215518336045,1,j,change,2.08081668835257,0,0.5008619287900729,0.03531967696017091,0.353333395338268,1.0010503504317967,7.394051071726608
14,22,female,428,75,75,same,valid,clock,4,1,1,0.04627314820027095,0,f,same,3.108577690813945,0.06071634577439011,0.5001730271933411,0.03528952949727682,0.3533192837603565,1.0010522747379582,6.8634310314255345
14,22,female,429,165,165,same,valid,clock,1,1,3,0.10168193977824558,1,f,same,1.2488750025258923,0.06304080718039282,0.4998388393614732,0.03530460322872386,0.3533523176829476,1.0010413703366794,4.967155942883437
14,22,female,430,15,15,same,valid,anti,1,2,3,0.2782437627629406,1,j,change,0.8559506120418519,0.0835516754421023,0.5003381968035683,0.035310696865053615,0.3532878534269912,1.0010760078475869,4.837780030641625
14,22,female,431,135,185,change,catch,clock,1,2,2,0.29137426567649527,1,j,change,1.0742102246722425,0,0.5004927827294523,0.035321280548487266,0.35331319012402673,1.0010474639730091,6.592699118378732
14,22,female,432,135,135,same,valid,anti,1,1,2,0.05772276970492385,1,f,same,1.7383052700006374,0.06170209319660688,0.5008561558715883,0.035320959830642096,0.35329747495779884,1.001050029714861,5.544997814309681
14,22,female,433,15,325,change,catch,anti,3,2,1,0.1442347627826166,0,f,same,0.3194848504181209,0,0.5000457022715636,0.0352953024157614,0.353321208066518,1.0010673484703148,5.591251398730492
14,22,female,434,75,75,same,catch,clock,5,2,1,0.09559760449519672,0,f,same,0.3267340323482131,0,0.5001797622644517,0.035329298490978545,0.35332281165574386,1.0010426532071506,5.591434849247889
14,22,female,435,15,325,change,valid,anti,5,2,3,0.7425894168936793,1,j,change,0.7979658159847531,0.08273764685291776,0.5008795682624623,0.03529049165081233,0.35333179174995166,1.0010192408162766,5.322059572027683
14,22,female,436,165,165,same,valid,clock,2,1,2,0.0545839056803743,1,f,same,1.2664320509857134,0.0603450026553049,0.49907360695488023,0.0353286570561977,0.35330837935907766,1.0010166750753342,5.0491281770691785
14,22,female,437,135,135,same,valid,clock,1,0,1,0.09837630255424301,0,f,same,0.23515020973354694,0.00283552270400525,0.499433772919474,0.03536040810740815,0.35328945701530756,1.0010788943063744,3.9421794114005024
14,22,female,438,45,355,change,valid,anti,3,1,3,0.47260285175798344,1,j,change,0.7598443492906881,0.05898669267458681,0.4996877813300671,0.03535014514091017,0.3533189630425113,1.0010336731129428,4.920219871218251
14,22,female,439,45,45,same,valid,anti,1,2,4,0.13885344067603,1,f,same,3.1998144968883935,0.08192277726523818,0.49991741519534116,0.03535046585875534,0.3533189630425113,1.0010634998579917,6.89879368455604
14,22,female,440,135,135,same,valid,anti,4,2,3,0.07654216299124528,1,f,same,2.0223649273393676,0.08110231476308802,0.499706382955992,0.03535752164771111,0.35328304266113264,1.0010487468434803,5.756294004471783
14,22,female,441,15,15,same,valid,anti,5,1,1,0.08749274777164828,0,f,same,0.254176786645985,0.05769672133718581,0.5000729632738512,0.03533956145747652,0.35328977773315273,1.001018278662741,4.001723216144455
14,22,female,442,105,105,same,valid,clock,4,1,1,0.10895132692076004,0,f,same,0.37393790328223986,0.05999075607345403,0.5001691785810181,0.035326091313436336,0.3532689310832211,1.0010859500953302,4.178624999879503
14,22,female,443,75,75,same,valid,anti,2,2,1,0.08173907242689893,0,f,same,0.28179154184090294,0.08027157398014818,0.5001040728902808,0.03530909327673726,0.3533266602680669,1.001070555646038,4.048820288087882
14,22,female,444,45,45,same,valid,anti,5,2,3,0.020512461966973206,1,f,same,1.8297309787949416,0.08317152775046024,0.5001624435099075,0.03532256341986795,0.3533144729954074,1.0010718385174187,5.5326986116451735
14,22,female,445,105,155,change,valid,clock,2,1,1,0.10609918451064004,0,f,same,1.7444252049472198,0.06222971357723914,0.5001460869079892,0.03533122279714007,0.35330164428705757,1.001061254833985,5.485489929946198
14,22,female,446,15,15,same,valid,anti,4,0,2,0.1490445659674151,1,f,same,3.371791981223396,0.00431244012050136,0.5002657146051206,0.03523789394876076,0.35339657672375324,1.0010618962687658,7.252649208292496
14,22,female,447,135,135,same,valid,anti,3,1,3,0.4296863348927218,1,f,same,1.2952828521556512,0.06431610678988323,0.4999523734231843,0.03534341006889008,0.35328175979066145,1.0010817807660715,5.402757594835748
14,22,female,448,105,55,change,valid,anti,2,0,1,0.11260622570807755,0,f,same,0.14003271961883001,0.0027009635740378457,0.5003888701985488,0.03528054940215952,0.3533266602671574,1.0010465018194736,3.9195361011061323
14,22,female,449,135,135,same,catch,clock,2,1,1,0.058869335443887394,0,f,same,0.17669267580276937,0,0.5001335789174846,0.035320639112796925,0.35328849486268155,1.001076328565432,5.438631151245318
14,22,female,450,45,355,change,valid,anti,2,2,1,0.03618978405120288,0,f,same,0.07864061883083195,0.08239326173135773,0.5003600056061259,0.03533186423192092,0.35331062438308436,1.0010362388538852,3.8489249703416135
14,22,female,451,75,125,change,catch,clock,4,1,1,0.05976221349010302,0,f,same,0.13649648637692735,0,0.5045415228387355,0.03534629652767762,0.3532811183549711,1.0010830636365426,5.44350221150944
14,22,female,452,75,25,change,valid,anti,3,1,2,0.10856871071882779,1,j,change,0.9659121996837712,0.06308633931956595,0.4993555178034512,0.03539632848787733,0.3532397457738625,1.0010715177995735,4.837391000084608
14,22,female,453,135,135,same,valid,clock,2,0,1,0.10474222796801769,0,f,same,0.2702854740227849,0.004155666513875417,0.49937508158291166,0.035274135048894095,0.35335199696419295,1.001071517800483,4.013064755788037
14,22,female,454,45,95,change,catch,clock,2,1,2,0.08935066534559155,1,j,change,1.07815729727281,0,0.4994523745463084,0.03536329456619569,0.3533022857227479,1.0010102607211593,6.380331410417057
14,22,female,455,15,65,change,valid,clock,3,1,2,0.05901045122755022,1,f,same,0.9720767143890043,0.061854808810057754,0.5002576966635388,0.03534084432794771,0.35330741720554215,1.001032069523717,4.814011321976068
14,22,female,456,45,95,change,catch,clock,5,1,1,0.10387532805361843,0,f,same,0.209128780019455,0,0.5007079842989697,0.0353543144701689,0.35331735945510445,1.0010570855038168,5.474768979031069
14,22,female,457,165,115,change,catch,anti,2,2,1,0.03464328335303435,0,f,same,0.22769737207181606,0,0.49968713989437674,0.03533154351498524,0.3532904191688431,1.0010721592343543,5.450477179813788
14,22,female,458,105,105,same,valid,anti,4,0,1,0.07139945484414056,0,f,same,1.7480499562698242,0.005575360923303685,0.4997496798441716,0.03530652753488539,0.3533404511281333,1.0010343145477236,5.485852020216953
14,22,female,459,165,165,same,valid,clock,3,2,2,0.16357211513604852,1,f,same,0.9995525988233567,0.08507297760268706,0.49902453714821604,0.03533699571562465,0.3532981163934892,1.0011055138747906,4.896104787449076
14,22,female,460,105,105,same,valid,anti,2,2,2,0.16809198953069426,1,j,change,0.8247691554252015,0.08437516442101857,0.49931606952759466,0.0353309020792949,0.35330645505291614,1.001043615360686,4.790174621160077
14,22,female,461,45,355,change,valid,anti,4,2,1,0.13380694783518265,0,f,same,0.22873681810233393,0.08362671890684308,0.500105355760752,0.035335071409463126,0.35332505667884107,1.0010269380409227,4.060770229188165
14,22,female,462,45,45,same,valid,anti,4,2,3,0.1665146999348508,1,f,same,0.7666830125781416,0.08618201649727812,0.4998481401744357,0.03538189619212062,0.3533077379233873,1.0010218065581284,4.625558890663342
14,22,female,463,75,75,same,catch,anti,4,1,1,0.14968343560485664,0,f,same,0.23652544718424906,0,0.5002339635539101,0.03534565509380627,0.3533282638554738,1.001072479953109,5.544620971024415
14,22,female,464,135,185,change,valid,clock,5,1,2,0.37961332351096644,1,j,change,1.6300232808971487,0.06060653686746492,0.499977068685439,0.035311017582898785,0.35332088734867284,1.0010558026333456,5.768458184988049
14,22,female,465,135,85,change,valid,anti,3,0,1,0.1603072090601927,0,f,same,0.1011360782704287,0.007099392419026435,0.4997509627146428,0.03534084432794771,0.3533013235701219,1.0010577269395071,3.919517820197143
14,22,female,466,135,135,same,valid,anti,2,1,3,0.025105459993937984,1,f,same,1.2173179854944465,0.05934197372920652,0.49905211886925827,0.03533282638545643,0.3533035685941286,1.0010577269395071,4.966134457043154
14,22,female,467,135,135,same,valid,anti,4,1,3,0.34107620669237804,1,j,change,0.6897601576902161,0.05813368607453137,0.5005982988495816,0.035335712845153466,0.35326828964753076,1.0010881951193369,4.791816375010967
14,22,female,468,165,165,same,catch,clock,3,1,1,0.11290545531119278,0,f,same,0.3654299044228537,0,0.49968489487037004,0.035335712845153466,0.3533391682567526,1.0010683106220313,5.66180447959232
14,22,female,469,15,65,change,valid,clock,4,1,2,0.03288158108716743,1,f,same,3.1780813833956927,0.05698000034968148,0.5005450597127492,0.03533346782114677,0.3532833633789778,1.0010724799521995,7.016968210783489
14,22,female,470,45,355,change,catch,anti,5,0,1,0.01076777569778642,0,j,change,0.6022186608306583,0,0.5004033024943055,0.03532673274912668,0.35328624983776535,1.0010420117723697,5.838794781410797
14,22,female,471,165,165,same,valid,clock,4,0,2,0.5036682085710709,1,j,change,1.5727613825119988,0.008636514966634062,0.5004183762257526,0.03530011318071047,0.3533337160570227,1.0010493882791707,5.8154635316723216
14,22,female,472,165,215,change,valid,clock,1,0,2,0.07169676014200377,1,j,change,0.6663259575743723,0.007058832469785475,0.49978078945969173,0.03530620681704022,0.3533234530905247,1.0010667070346244,4.543049133629211
14,22,female,473,135,85,change,valid,anti,5,1,3,0.15031108012226468,1,j,change,1.0144399932387387,0.05586671252717315,0.4998471780209002,0.03530460322872386,0.3532859291208297,1.0010750456940514,4.861214230757469
14,22,female,474,105,155,change,valid,clock,4,1,1,0.42782360655382945,0,j,change,0.17425939069380547,0.054780885071189445,0.4998022775444042,0.03533667499777948,0.3532477637154443,1.0010795357420648,4.296334806175764
14,22,female,475,15,65,change,valid,clock,2,1,1,0.32673563593652943,0,j,change,1.3758266097547676,0.05661946792361733,0.4991271668086483,0.03534693796427746,0.3533292260090093,1.0010375217243563,5.438157130500258
14,22,female,476,135,135,same,valid,clock,2,1,1,0.03564584685045702,0,j,change,1.72265007743772,0.05861792486858469,0.49955885281906376,0.03533058136144973,0.3533180008898853,1.0010525954558034,5.437668677460351
14,22,female,477,135,135,same,catch,anti,4,1,2,0.5298246604315864,1,j,change,0.6327865845069027,0,0.5004690496198236,0.0353164697826287,0.3533026064405931,1.0010647827275534,6.463648093156735
14,22,female,478,45,355,change,catch,anti,2,1,2,0.07386994320404483,1,f,same,2.085563951588483,0,0.5003600056061259,0.03532705346697185,0.35329971998180554,1.0012851157807745,7.453099046922944
14,22,female,479,165,215,change,valid,clock,4,1,2,0.15675077060404874,1,j,change,0.9762903033897601,0.060676426066363864,0.49988726773244707,0.035347579399058304,0.35331511443109775,1.0010529161736486,4.908837921146187
14,22,female,480,105,55,change,valid,anti,1,2,3,0.8544987230625338,1,j,change,3.776008841545263,0.08549573792417658,0.49903544154949486,0.03533859930394101,0.35333307462133234,1.00106702775156,8.347105057813678
