subject,age,gender,ntrial,memory_ori,test_ori,type,trial_type,which_change,trial,quest,pas,pas_rt,vis,test_key,test,test_rt,contrast,fix_dur,target_dur,mask_dur,retention_dur,trial_dur
15,24,female,1,135,135,same,valid,clock,2,2,1,0.9275252902662032,0,j,change,2.2055960266814054,0.2,0.5029156529285501,0.03530566729045859,0.3533340945054988,1.0010663893947367,6.949104200836473
15,24,female,2,165,115,change,valid,anti,2,1,1,0.44345249740399595,0,j,change,1.4599621295458292,0.2,0.49991949962759463,0.035326514000416864,0.35331132348369465,1.0010612578969358,5.685741299384972
15,24,female,3,75,25,change,catch,anti,2,0,1,0.4180387543544839,0,j,change,0.875121792894106,0,0.4996879407876804,0.03534351208691078,0.35328053449688923,1.0010692758623918,6.462314600586524
15,24,female,4,165,215,change,valid,clock,4,0,1,0.22279103450364346,0,j,change,2.2421813612452297,0.2,0.5006035924334356,0.035326834718944156,0.3533039469555206,1.001057729992226,6.062700809942953
15,24,female,5,45,45,same,valid,clock,5,1,1,0.2218314444075986,0,j,change,1.667107868574476,0.33948538693435915,0.5006170626152198,0.035364038078341764,0.35328021377813457,1.0010888396977862,5.615660112674959
15,24,female,6,45,45,same,catch,clock,3,0,1,0.4303665364764129,0,j,change,0.8051166164955248,0,0.5002453497404531,0.03532555184460762,0.3532827795272624,1.0010493913080154,6.592649193488796
15,24,female,7,45,45,same,catch,anti,1,2,1,0.2167342634600118,0,j,change,0.4396186270805629,0,0.5007107124506547,0.035299573636848436,0.35333505666130804,1.0010397697496956,5.969133719777801
15,24,female,8,135,185,change,valid,clock,3,0,2,2.33338635881114,1,f,same,1.7547022159733388,0.3150270229513009,0.5003450932297255,0.035319778909297384,0.3532898353366818,1.001042335498596,7.8529258197086165
15,24,female,9,105,105,same,valid,clock,1,2,2,0.29402071457388956,1,j,change,2.7317217650556813,0.3670372117912738,0.49993810130717975,0.035280971957035945,0.353347564687283,1.0010737659226834,6.793315133620808
15,24,female,10,75,75,same,valid,clock,4,2,1,0.15291093836503933,0,j,change,1.1498217766657035,0.3227502669243441,0.4997905707443806,0.03535441651979454,0.3532843831201262,1.0010756902345292,5.07286694859954
15,24,female,11,15,65,change,valid,clock,5,0,1,0.6624677116535622,0,j,change,0.4281577473750531,0.23704404819608071,0.5005150740958015,0.03530791232060437,0.3533241522284243,1.001053560650007,4.920709378261336
15,24,female,12,165,215,change,valid,clock,1,2,2,0.18061814022985345,1,j,change,1.611671335260553,0.410545444309991,0.5001911482945616,0.035322986095707165,0.35330555054883916,1.0010692758621644,5.568701134510093
15,24,female,13,165,165,same,valid,anti,4,0,1,0.13309694233294067,0,j,change,1.3195983448351853,0.2914418032347298,0.499288646111836,0.035337097714773336,0.35327861018527074,1.0010894811350681,5.202348750704914
15,24,female,14,75,125,change,valid,clock,2,2,1,0.48334989310455967,0,j,change,1.1618958703629687,0.38602135432929263,0.5001549070909732,0.03531817531620618,0.3532850245574082,1.001020526632601,5.414814570118551
15,24,female,15,75,125,change,valid,clock,4,1,2,0.2552839995407794,1,j,change,3.3155855135248657,0.43994886294822894,0.5005259785286853,0.03530406369714001,0.35333217019365293,1.0010500327452974,7.393896660613564
15,24,female,16,75,75,same,catch,anti,1,1,1,0.08507381980348327,0,j,change,2.2722339783410916,0,0.5001308531950599,0.035311440225541446,0.3533097198908308,1.0010449012474965,7.664603056191936
15,24,female,17,165,215,change,catch,clock,3,2,1,0.30234689053691,0,j,change,0.3087189279788163,0,0.49992623471848674,0.03531432669296919,0.3532898353366818,1.0010708794552556,5.944613819508504
15,24,female,18,15,325,change,valid,anti,5,0,1,0.21921630482142973,0,j,change,0.7263789136491141,0.33731702807792585,0.4999833226320334,0.03530727088354979,0.35328887318087254,1.0011023098797978,4.791319301680005
15,24,female,19,105,155,change,catch,clock,3,2,1,0.18992443227989497,0,j,change,0.43725140298352017,0,0.49897722833679836,0.03529123495263775,0.35333345306821684,1.0010737659229108,5.9321320924516385
15,24,female,20,45,355,change,catch,anti,1,0,1,0.19042314972625718,0,j,change,0.6299757087720081,0,0.49970397671859246,0.03534960574052093,0.35326481928473186,1.0010724830483468,6.038383603837929
15,24,female,21,45,95,change,valid,clock,4,2,3,3.2825717014573,1,j,change,7.314919380961783,0.44672408185072954,0.5009178966759009,0.03532875903056265,0.35331613426319564,1.001051636338616,14.413319059216747
15,24,female,22,135,185,change,valid,clock,1,0,2,0.19363418449916026,1,j,change,2.579110377877214,0.3803795887169645,0.5000384862337341,0.03529123495263775,0.35329528755301,1.0010426562171233,6.439268402353036
15,24,female,23,105,105,same,valid,anti,5,0,2,0.25414416558305675,1,j,change,1.190126805726095,0.34163065863068315,0.4999826811949788,0.03527006752415218,0.35336263846215843,1.0010580507107534,5.120232918686952
15,24,female,24,105,105,same,valid,anti,4,2,2,0.2602782298129114,1,j,change,1.5872271245843876,0.43052361764816405,0.5000590122251651,0.03532523112585295,0.35330939917230353,1.0010779352649024,5.615428233116063
15,24,female,25,45,355,change,valid,anti,4,0,2,1.2320800077484364,1,j,change,0.320269608896524,0.3126059744128471,0.49994964717757284,0.03532362753276175,0.353327680133134,1.0010195644770192,5.273705435346756
15,24,female,26,105,55,change,valid,anti,5,1,2,0.3656192210514746,1,j,change,1.206993397686574,0.39088304290965636,0.5000035279047097,0.035361793047968604,0.35329721186485585,1.001050994901334,5.332749411641771
15,24,female,27,45,45,same,valid,clock,2,2,2,1.2470463419156204,1,j,change,1.3769970346356786,0.41676828478726485,0.499967607419876,0.03532362753298912,0.3533187000118687,1.0010279031610025,6.392832195530673
15,24,female,28,75,75,same,catch,clock,1,0,1,0.136620357036918,0,j,change,1.1584968944816865,0,0.4996783192291332,0.03528033051975399,0.3533648834925316,1.0010734452043835,6.509670628396634
15,24,female,29,45,45,same,catch,clock,4,1,1,0.007390319044588978,0,j,change,0.6884289213783177,0,0.5007020530481441,0.03529604573191136,0.3533389052847724,1.0010551642430983,6.040066414410603
15,24,female,30,105,105,same,valid,clock,4,0,2,0.10789455285089389,1,j,change,0.7848799133289504,0.28937998854187785,0.5002219372815944,0.03532491040732566,0.3533135685142952,1.0010455426847784,4.650027036579331
15,24,female,31,45,95,change,valid,clock,5,0,2,0.1833086486906268,1,j,change,0.3534973402804553,0.27021954589900815,0.4991860161551358,0.03534254993110153,0.3533199828864326,1.0010654272389274,4.319145169432431
15,24,female,32,135,85,change,catch,anti,1,2,2,0.16297637137677157,1,j,change,0.39837934469505853,0,0.49935984564467617,0.03530278082280347,0.35330779557898495,1.0010750487972473,5.862205171395317
15,24,female,33,135,135,same,valid,clock,4,0,1,0.10607447471102205,0,j,change,1.3036291235594035,0.25369581260212054,0.49990731232037433,0.03533421124711822,0.35332511438423353,1.0010638236458362,5.155888169267655
15,24,female,34,75,75,same,valid,clock,1,1,1,0.04175852582329753,0,j,change,2.535143383671084,0.3563582236847771,0.5001225145108492,0.035363075922532516,0.35330106048809284,1.0010317517842395,6.368845329599253
15,24,female,35,75,25,change,valid,anti,3,1,2,0.14798149325315535,1,j,change,0.008852154491250985,0.4020107899329153,0.49977293122060473,0.035346719273093186,0.35329785330191044,1.0010830667627033,3.97815970375882
15,24,female,36,15,15,same,catch,clock,5,1,2,0.0905555423705664,1,j,change,1.696303525531448,0,0.49975849888301127,0.03532747615622611,0.35329272180410953,1.001058371429508,7.086659452635786
15,24,female,37,15,15,same,valid,anti,5,1,2,0.1598451955389919,1,j,change,1.2650133194442787,0.3783560800080926,0.5009069922430172,0.03532587256313491,0.35332319007261503,1.0010487498709608,5.23905018540745
15,24,female,38,15,325,change,valid,anti,1,2,2,0.33905217386268305,1,j,change,0.4207023224519162,0.4052673144076504,0.5000067350908921,0.03529059351558317,0.3533565448085483,1.0010237338190109,4.602431111245096
15,24,female,39,75,75,same,valid,anti,2,2,1,0.148268536413525,0,j,change,1.0271895620203395,0.39522979498076205,0.4996751120429508,0.03531689244186964,0.35330266408118405,1.0010368832822678,5.0023537539152585
15,24,female,40,15,325,change,catch,anti,4,0,1,0.16539972123155167,0,j,change,0.467431024651205,0,0.5003014754979631,0.03532138250261596,0.35329047677396375,1.0010519570571432,5.956800806158299
15,24,female,41,45,45,same,valid,anti,3,2,2,0.00398236304204147,1,j,change,6.149520621886268,0.4273937489814428,0.5006638875329372,0.0353175338791516,0.3533254351027608,1.0010609371784085,10.00925465635305
15,24,female,42,135,85,change,valid,anti,1,1,2,0.1528859223130894,1,j,change,0.9509124123876518,0.3593953075575592,0.49911000584347676,0.03533453196564551,0.35330041905103826,1.0010602957408992,4.931148448459453
15,24,female,43,165,165,same,valid,clock,4,2,1,0.09914631119067963,0,j,change,1.810815144846174,0.41921241131333353,0.49961770341110423,0.03532875903056265,0.3532882317435906,1.0010558056803802,5.662207288138006
15,24,female,44,165,115,change,catch,anti,3,0,1,0.08542404453100971,0,j,change,2.471486190818723,0,0.49935695917702105,0.035318496034960845,0.35330009833251097,1.0010766523903385,7.852341470392275
15,24,female,45,75,25,change,valid,anti,5,1,1,0.1785430907909813,0,j,change,0.4358341474239751,0.3432305765880791,0.500295381844353,0.03532779687498078,0.3532930425228642,1.0010930090397778,4.402008917260218
15,24,female,46,75,75,same,valid,anti,4,0,1,0.13730573271686808,0,j,change,0.49214079034049973,0.26738918104381515,0.5006295706409674,0.03531336453715994,0.35335686552707557,1.0010009627974341,4.449771616274347
15,24,female,47,45,45,same,catch,anti,4,0,1,0.10875279586457509,0,j,change,1.7373109283585109,0,0.49975240522917375,0.03531593028606039,0.35327315796871517,1.0010788974207117,7.15730895273191
15,24,female,48,165,215,change,valid,clock,3,0,1,0.16586123531851626,0,j,change,0.3902866518835708,0.28125466966326584,0.5007636310222097,0.03531560956730573,0.35330939917207616,1.0010442598102145,4.367919414957896
15,24,female,49,105,105,same,valid,clock,2,1,1,0.1704446250446381,0,j,change,0.8258677523206188,0.3668498925956876,0.4992283510123343,0.035353133645458,0.3532776480292341,1.0010805010138029,4.813192952657346
15,24,female,50,135,85,change,catch,anti,5,2,1,0.19349114399688006,0,j,change,0.4186282351688533,0,0.49989191782674425,0.035304384415894674,0.35331581354444097,1.001057729992226,5.909126946200786
15,24,female,51,135,135,same,valid,clock,2,0,1,0.058270402995731274,0,j,change,2.6928461788622826,0.2943606182847327,0.5077039818499998,0.03533196621697243,0.3532693093452508,1.0010561263991349,6.53026717784951
15,24,female,52,105,155,change,catch,clock,3,2,1,0.1756101190571826,0,j,change,0.3207487625072645,0,0.4990192424754696,0.03532009962805205,0.35330266408118405,1.001042335498596,5.779177536355064
15,24,female,53,75,75,same,valid,clock,4,0,2,0.17955752376997225,1,j,change,0.4096365680798044,0.3068727134884903,0.5003935217405342,0.03530566729023121,0.35330298479971134,1.0010407319055048,4.379040974368763
15,24,female,54,75,75,same,catch,anti,4,2,1,0.13490836107007453,0,j,change,0.7065440709070572,0,0.49954041022488127,0.03534351208691078,0.35328374168307164,1.0010721623298195,6.062264632626466
15,24,female,55,45,95,change,valid,clock,1,0,2,0.08317067554253299,1,j,change,1.67591544317861,0.29390334136232,0.4998707503982587,0.035292838545728955,0.3532773273107068,1.0010917261654413,5.532495530786264
15,24,female,56,75,125,change,valid,clock,1,1,1,0.13454915622128283,0,j,change,1.019430416568639,0.389926923421533,0.5000105837143565,0.03532138250261596,0.3532968911461012,1.0010715208925376,4.8964973678623664
15,24,female,57,45,45,same,valid,anti,5,0,1,0.10043880720900233,0,j,change,0.5579779076188061,0.28210288271434636,0.4998762026145869,0.03530887447641362,0.35330715414193037,1.0010631822085543,4.4141532483345145
15,24,female,58,135,135,same,valid,anti,2,0,2,0.09574990105829784,1,j,change,0.2876717688723147,0.29207661309560806,0.4998518279999189,0.03531689244186964,0.3533440367825733,1.0010295067538664,4.1078352199072015
15,24,female,59,105,155,change,catch,clock,1,1,1,0.13299848171800477,0,j,change,0.24208290063052118,0,0.4999791532900417,0.03531111950678678,0.3533241522284243,1.001058692147808,5.65084775551486
15,24,female,60,15,15,same,valid,anti,2,0,2,0.12091701149256551,1,j,change,1.4265333075904891,0.2816518502378183,0.4996683769520587,0.0353297211863719,0.35333473594278075,1.0010567678364168,5.2966438721255145
15,24,female,61,15,65,change,valid,clock,2,0,1,0.10122360565969757,0,j,change,0.20774003062228985,0.2721718709469237,0.4998592045278656,0.0353191374722428,0.35381324811623927,1.0005394487104695,4.0961777396905745
15,24,female,62,135,135,same,valid,anti,1,1,2,0.11163830124337437,1,j,change,0.24531638570647374,0.41151525124375066,0.49914720920287436,0.0353723767620977,0.35326610215929577,1.0010699172996738,4.095154326590318
15,24,female,63,135,135,same,valid,clock,4,1,2,0.44115166206006506,1,j,change,0.5165673614928892,0.39933702861529285,0.4998210390128861,0.03530246010427618,0.35329753258338314,1.0010195644767919,4.731431193990375
15,24,female,64,165,215,change,valid,clock,3,1,1,0.09039293803266446,0,j,change,2.998750800994685,0.3886899177914612,0.5005109047535825,0.0352973286062479,0.35330458839280254,1.001070238018201,6.81692002368186
15,24,female,65,135,85,change,catch,anti,1,0,1,0.12254818636824893,0,j,change,0.30270577466694704,0,0.5002459911775077,0.03534030490072837,0.3532811759339438,1.0010461841220604,5.732817660563114
15,24,female,66,75,75,same,valid,clock,3,2,2,0.15228714065892746,1,j,change,0.2701682297422394,0.44524479957594987,0.5003948046150981,0.035293159264256246,0.353327680133134,1.0010484291522062,4.2025475962459495
15,24,female,67,75,75,same,valid,anti,3,1,2,0.20326793025515144,1,j,change,0.6560959949301832,0.405410401397701,0.4999015393850641,0.035326834718944156,0.3533190207306234,1.0010384868751316,4.684779784977309
15,24,female,68,135,135,same,valid,anti,2,2,2,0.17657002987175474,1,j,change,0.3718681025452497,0.43842344115905446,0.49959236664039963,0.03532587256313491,0.35331068204664007,1.0010214887886377,4.30723784941506
15,24,female,69,45,45,same,valid,anti,1,1,2,0.21100847402726686,1,j,change,0.4247424148443315,0.396290255441694,0.5002107121301833,0.03531015735075016,0.35330073976956555,1.001070879455483,4.402548365970915
15,24,female,70,135,135,same,valid,anti,5,0,2,0.19322045748572236,1,j,change,0.8116807643880293,0.2803452186587251,0.4993373953416267,0.035330683342181146,0.35330138120662014,1.0010327139402762,4.767111460623028
15,24,female,71,15,15,same,catch,clock,4,2,3,0.14947411768707752,1,j,change,0.5448040697908709,0,0.4995035275842383,0.03529925291809377,0.3533206243237146,1.0010400904682228,5.955684063940907
15,24,female,72,15,65,change,valid,clock,1,2,3,0.3434508296668355,1,j,change,0.008824251972100683,0.432038890039803,0.5010182816024553,0.03528738632940076,0.3533427539080094,1.00104971202677,4.156050452886802
15,24,female,73,105,55,change,valid,anti,1,0,1,0.143157243846872,0,j,change,1.5026994885820386,0.27178905166035233,0.49980532380050136,0.03532875903056265,0.3533219071980511,1.0010118672300905,5.355635571286484
15,24,female,74,165,165,same,catch,clock,1,0,1,0.029343828956825746,0,j,change,2.4685644442363355,0,0.5003989739570898,0.03529540429462941,0.3533087577347942,1.0010904432908774,7.7828305213795375
15,24,female,75,135,135,same,valid,anti,2,1,2,0.38114777495047747,1,j,change,0.41885241748059343,0.3879614515371466,0.5000076972467014,0.035330362623653855,0.3533183792933414,1.001050994901334,4.684829817081436
15,24,female,76,105,105,same,catch,anti,3,2,1,0.1544853460457034,0,j,change,0.33945050638249086,0,0.4996032710732834,0.035304384415894674,0.35329079749249104,1.0010246959748201,5.779251622355105
15,24,female,77,15,65,change,valid,clock,1,1,2,0.32302650611063655,1,j,change,0.1751793939572508,0.380266396543661,0.5008091730655906,0.035318496034960845,0.3533270386960794,1.001034958970422,4.378999280948847
15,24,female,78,15,15,same,valid,clock,3,0,2,0.4571693118468829,1,j,change,0.5282322182374628,0.27926169961179637,0.5005833871607592,0.03529540429462941,0.3533254351029882,1.0010500327455247,4.7437272249694615
15,24,female,79,165,165,same,valid,anti,1,0,2,0.21745171100178595,1,f,same,3.1449221583848157,0.2714638831748678,0.500590122251424,0.035328117593280695,0.35330747486045766,1.0010756902345292,7.111843561156775
15,24,female,80,165,165,same,valid,anti,1,1,2,0.10920212264386464,1,j,change,2.66756072325893,0.3730833869847195,0.49951346986108547,0.03535634083164041,0.35329528755301,1.0010583714292807,6.545470523072709
15,24,female,81,135,135,same,valid,clock,5,1,2,0.08037849928064134,1,j,change,1.3810733682319096,0.36627061496070035,0.4993181522247596,0.03534639855433852,0.3533068334231757,1.0010766523903385,5.237308041890856
15,24,female,82,105,105,same,catch,anti,3,2,1,0.07246893679848654,0,j,change,0.9416102896796019,0,0.5005490702687894,0.0353226653769525,0.3533100406095855,1.0010400904682228,6.2988542648199655
15,24,female,83,75,75,same,catch,anti,1,2,1,0.1338066926277861,0,j,change,2.31178243218892,0,0.5004262350394129,0.03535185077089409,0.35323755820240876,1.0010942919141144,7.747159876305432
15,24,female,84,45,95,change,valid,clock,3,1,1,0.11377300434446624,0,j,change,1.3872985165480713,0.3601009980187325,0.5005827457234773,0.035332607654027015,0.35330907845354886,1.0010420147800687,5.286076835199992
15,24,female,85,165,165,same,valid,anti,4,1,2,0.23802356512101142,1,j,change,4.3052740893353985,0.3703009885393077,0.4994650413502768,0.035352171489648754,0.3532612913797948,1.001023092381729,8.300219243245238
15,24,female,86,15,15,same,valid,anti,4,2,2,0.1842964620245766,1,f,same,1.4260698691916787,0.4259395935129945,0.49928543892588095,0.03535345436398529,0.3532933632413915,1.0010737659229108,5.332269295875221
15,24,female,87,75,75,same,valid,clock,4,1,2,0.3364447315232155,1,j,change,3.2390604484032792,0.36454641057810977,0.49963502221612544,0.03535537867560379,0.35326449856620457,1.0010869153859403,7.333747808690077
15,24,female,88,15,15,same,valid,anti,2,2,2,0.30923143632549,1,f,same,0.9624313421622901,0.4205205043267388,0.5006177040522743,0.03538584694410929,0.3532914389295456,1.001066710113264,5.038674495621763
15,24,female,89,15,325,change,valid,anti,3,0,2,0.38432962432943896,1,j,change,2.69455657123558,0.26413793881102937,0.5002642721387929,0.03530053579243031,0.35332479366570624,1.0010586921480353,6.887825457232566
15,24,female,90,165,215,change,valid,clock,2,1,2,0.3888626612331336,1,j,change,1.4951189833989247,0.3589651696324167,0.49969114797363545,0.03531593028606039,0.353315172107159,1.001054843524571,5.6508038170645705
15,24,female,91,105,105,same,valid,anti,1,2,2,0.19799050544611418,1,f,same,1.022811752925918,0.4152467762170271,0.49943361092596206,0.03531528884877844,0.3532946461159554,1.0010432976544053,5.02557538523115
15,24,female,92,45,45,same,valid,clock,2,0,2,0.23547032422720804,1,f,same,1.4020339333123957,0.2572001035820777,0.5000881976191067,0.03532811759350807,0.35330587126736646,1.0010378454378497,5.485556116456792
15,24,female,93,15,15,same,valid,clock,2,2,2,0.19403764851676897,1,j,change,3.7901005709431956,0.41047104140355306,0.5003729957491032,0.03530823303935904,0.3533203036049599,1.0010339968146127,7.746868343084088
15,24,female,94,45,45,same,catch,anti,3,1,1,0.17607708536070277,0,j,change,0.7867359119538833,0,0.5002216165630671,0.03530919519494091,0.3532949668344827,1.0010731244856288,6.22750239095717
15,24,female,95,15,65,change,valid,clock,3,0,1,0.038894508591738486,0,j,change,3.0929070512552244,0.2508426612186962,0.5007123160437459,0.03530791232060437,0.3533087577350216,1.0010513156198613,6.9230371539686075
15,24,female,96,135,135,same,catch,anti,3,1,1,0.19771532887466492,0,j,change,0.7097028285459146,0,0.49969627947166373,0.03530855375788633,0.3532808552154165,1.0010894811350681,6.14520599435923
15,24,female,97,165,165,same,valid,clock,5,2,2,0.09497504488467712,1,j,change,1.5968929422019755,0.40574452738369793,0.4994159714019588,0.03533902202639183,0.3533097198908308,1.0010506741825793,5.485398964335445
15,24,female,98,75,75,same,valid,anti,4,1,1,0.07395418470446202,0,j,change,2.268925124390762,0.35385379625893354,0.4998592045278656,0.03535537867560379,0.35332800085188865,1.0010333553773307,6.1218384360734035
15,24,female,99,135,185,change,valid,clock,2,0,1,0.0877284077796503,0,j,change,4.163177141229653,0.25659018095654346,0.49929922982641983,0.03536051017340469,0.3532933632413915,1.0010420147800687,8.02936756213444
15,24,female,100,105,105,same,valid,clock,2,2,1,0.11292983510566046,0,j,change,0.2871031347679036,0.4014266088693048,0.4994871709345716,0.03530181866699422,0.35331453067010443,1.0010574092734714,4.177587990755683
15,24,female,101,135,85,change,valid,anti,1,2,1,0.6659305105390558,0,j,change,8.445866225700001,0.41628148307016677,0.5038476612237446,0.03529187638991971,0.35333537737983534,1.0010343175333674,12.967829036452258
15,24,female,102,135,85,change,valid,anti,3,2,2,0.07252410040041468,1,j,change,1.7533048449679427,0.43078107666507715,0.4998008337399824,0.035445500606329006,0.35319843053139266,1.001083387481458,5.580263361297739
15,24,female,103,165,215,change,valid,clock,4,1,2,0.1983923658706317,1,j,change,0.9652841342424381,0.36210694518172826,0.4996302114370792,0.03531560956730573,0.35328053449688923,1.0010987819748607,4.825772178173338
15,24,female,104,15,325,change,valid,anti,5,2,2,0.1386136232285935,1,j,change,1.3902484863685913,0.42693507582625656,0.49988037195657853,0.035346719273093186,0.35328374168284427,1.001025337412102,5.297539959935875
15,24,female,105,45,45,same,valid,anti,4,2,2,0.11042181553671071,1,j,change,1.374883178244545,0.4234057726816919,0.499418216432332,0.03532972118659927,0.3532981740206651,1.001033034658576,5.273494402498045
15,24,female,106,165,165,same,valid,clock,2,2,2,0.0881305889226951,1,j,change,0.6535129272051563,0.419806590655061,0.49947241787845087,0.03538007400902643,0.35328919389939983,1.0010487498709608,4.5435167052705765
15,24,female,107,105,55,change,valid,anti,1,1,1,0.1415748182007519,0,j,change,0.8763687468688204,0.3572253632195175,0.4993659392982863,0.035312723099877985,0.35330747486045766,1.0010420147800687,4.719486670613605
15,24,female,108,105,155,change,catch,clock,2,1,1,0.15388496079867764,0,j,change,0.19175541485265057,0,0.5001629250564292,0.035342229212346865,0.3532436518560189,1.0010817838883668,5.603798334700514
15,24,female,109,45,355,change,catch,anti,1,2,1,0.13527430100975835,0,j,change,0.2358657702795881,0,0.4995381651945081,0.035330041905126564,0.3533135685140678,1.0010728037668741,5.673399405644204
15,24,female,110,75,25,change,valid,anti,2,0,1,0.030410218351562435,0,j,change,1.6689545663596164,0.26250278792454707,0.5001173830130483,0.03533581484020942,0.35329240108558224,1.0010599750223719,5.450507344777179
15,24,female,111,105,155,change,valid,clock,4,2,1,0.08765432177960975,0,j,change,0.20267716656644552,0.41645692883367424,0.4995125077052762,0.035346398554565894,0.3533084370162669,1.0010346382518946,4.048177388183149
15,24,female,112,45,355,change,valid,anti,1,2,2,0.2602163311200911,1,j,change,0.8029809512386237,0.42821795220344727,0.5003409238877339,0.03533870130786454,0.35328887318087254,1.0010439390916872,4.88577029234807
15,24,female,113,15,65,change,valid,clock,3,2,1,0.5397960486184274,0,j,change,0.9536333891169306,0.4251847212900366,0.4996956380343818,0.03529893219956648,0.3533241522284243,1.0010558056803802,5.320711559147867
15,24,female,114,165,165,same,catch,clock,3,2,1,0.16673647641869138,0,j,change,0.2863314857802379,0,0.4999214239392131,0.03531593028606039,0.35330939917207616,1.001047466996397,5.74486000311731
15,24,female,115,105,55,change,valid,anti,5,2,2,0.2514334518496071,1,j,change,2.5827572692478498,0.43619684997990416,0.5002014112903908,0.03534030490072837,0.3533116442024493,1.0010590128665626,6.640042103939777
15,24,female,116,75,75,same,valid,anti,1,1,1,0.17940261667899904,0,j,change,0.855124987251429,0.36533355363007136,0.49954425884811826,0.03532009962805205,0.35327668587342487,1.00105933358509,4.82617211428601
15,24,female,117,105,105,same,valid,clock,5,0,2,0.056962512484005856,1,f,same,6.093889091654319,0.26804624393508286,0.4997087874976387,0.03529957363662106,0.35329945689500164,1.0010782559834297,9.93696884988367
15,24,female,118,15,15,same,valid,clock,2,1,2,0.17798311608930817,1,j,change,1.5548233193221677,0.37339961814919564,0.5002010905716361,0.035328117593280695,0.3532962497090466,1.001049070589488,5.485641427608243
15,24,female,119,75,125,change,valid,clock,3,1,1,0.10517101037271459,0,j,change,0.4230679429558677,0.3688796463996167,0.5002626685454743,0.03531432669296919,0.35331260635825856,1.0010477877151516,4.3086721030608714
15,24,female,120,165,115,change,valid,anti,1,0,1,0.08592019622847147,0,j,change,0.6380462719989737,0.26221123926731527,0.49955131465753766,0.035336135558736714,0.3532949668344827,1.0010593335853173,4.460617678394783
15,24,female,121,165,115,change,valid,anti,5,1,2,0.515858573353853,1,j,change,0.7480912431628894,0.3762570668089793,0.5001286081644594,0.03537911185321718,0.35323980323255455,1.0010776145461477,5.037818818357209
15,24,female,122,105,55,change,valid,anti,5,0,1,0.11694010066730698,0,j,change,1.7180790366126075,0.26742608042128446,0.5004583069007822,0.03537558394828011,0.35328374168284427,1.0010606164596538,5.556662319860379
15,24,female,123,135,135,same,valid,clock,3,0,1,0.3324864223775421,0,j,change,4.221831444407599,0.2728582188621214,0.500189865420225,0.035298611480811815,0.35328213808998044,1.001087877541977,8.32374395365241
15,24,female,124,105,155,change,catch,clock,3,0,1,0.06730632925359714,0,j,change,0.9265127815988308,0,0.5004813986411136,0.03535185077089409,0.3532866281504994,1.0010817838881394,6.263760271815499
15,24,female,125,105,55,change,valid,anti,2,2,1,0.02139898742711921,0,j,change,0.9080365029099084,0.43342348882449744,0.49999615137653564,0.035303422260085426,0.35333377378674413,1.0010320725029942,4.672897160293132
15,24,female,126,165,165,same,valid,anti,5,2,2,0.32364292728857436,1,j,change,0.7961961489390887,0.4431584579971304,0.4997815906233427,0.035323306814234456,0.35329400467867345,1.001035600407704,4.9082545915680384
15,24,female,127,165,115,change,catch,anti,2,0,1,0.025135680010180295,0,j,change,4.67802769597688,0,0.49961096831998475,0.035326834718944156,0.3533010604883202,1.001070238018201,9.913328039338012
15,24,female,128,45,355,change,valid,anti,4,2,1,0.5488836105732844,0,j,change,0.8520743117858274,0.4403693462193473,0.5004570240262183,0.03531528884877844,0.35329272180410953,1.001075369516002,5.203879540654043
15,24,female,129,75,125,change,catch,clock,1,1,1,0.14063992343790233,0,j,change,0.24870766434082725,0,0.49923797257088154,0.0353348526841728,0.3533257558215155,1.001029186035339,5.732335941203246
15,24,female,130,45,45,same,catch,anti,3,1,1,0.10746446918824404,0,j,change,4.367175347771308,0,0.4996985245020369,0.035319778909297384,0.35332992516350714,1.0010618993339904,9.736579369197898
15,24,female,131,135,135,same,valid,anti,3,2,2,0.1724199309942378,1,j,change,4.22047480466631,0.44972525432172805,0.5003765236540403,0.03531593028606039,0.3532741201245244,1.001085953230131,8.041706890126306
15,24,female,132,75,75,same,valid,clock,5,2,2,0.2358298497947544,1,f,same,2.999044579245947,0.4471695810983365,0.4994121227787218,0.0353332490910816,0.35325840491236704,1.001067992987828,6.792116928875657
15,24,female,133,15,65,change,valid,clock,5,1,2,0.19788081967976723,1,j,change,0.8393834761920971,0.3722001286265647,0.4997568952896927,0.03532202393989792,0.35331420995157714,1.0010320725029942,4.802099937203138
15,24,female,134,165,115,change,valid,anti,4,1,2,0.13403985506079152,1,j,change,1.1335129143765243,0.36813886465740425,0.49968216785259756,0.035313043818405276,0.35333569809859,1.001050994901334,5.050127998799098
15,24,female,135,105,55,change,catch,anti,2,0,1,0.11262483170276028,0,j,change,0.3666314090000924,0,0.49904714499507463,0.035332928372554306,0.35331100276516736,1.0010618993339904,5.767233654415577
15,24,female,136,165,165,same,valid,clock,1,0,1,0.11884356564701193,0,j,change,0.20400013085327373,0.2779671978740007,0.500649775913871,0.03530598800898588,0.3533174171375322,1.0010724830485742,4.096087297041322
15,24,female,137,45,45,same,valid,anti,2,2,1,0.14426693025461645,0,j,change,0.7054122549147905,0.4447753428869098,0.5006465687276886,0.035278726926662785,0.35333986744058166,1.0010577299919987,4.614742215998831
15,24,female,138,165,165,same,catch,clock,5,1,1,0.16141094381714538,0,j,change,0.2959803053113319,0,0.49967094270095913,0.03535730298744966,0.3532904767737364,1.0010458634033057,5.744313498597421
15,24,female,139,165,215,change,valid,clock,1,0,1,0.11848179504931977,0,j,change,0.3807725341707737,0.2833082449805585,0.5001741502078403,0.03532491040732566,0.3532725165314332,1.00105933358509,4.272614029900069
15,24,female,140,135,185,change,valid,clock,2,2,2,0.1292460739227863,1,j,change,1.752962317487345,0.45312717083215037,0.4996545860512924,0.03532042034657934,0.3533068334231757,1.0010506741828067,5.615153697981896
15,24,female,141,165,215,change,valid,clock,4,2,2,0.1518140807020245,1,j,change,0.40704452023419435,0.45071245041834296,0.4993502240859016,0.03530983663222287,0.3533167757004776,1.0010734452043835,4.2952445768082725
15,24,female,142,45,355,change,valid,anti,2,0,2,0.015682819553148875,1,j,change,1.401625979234268,0.2883361837975689,0.5001802438614504,0.03532106178408867,0.3533113234834673,1.0010586921480353,5.155546603942639
15,24,female,143,15,65,change,valid,clock,4,2,2,0.01425786674644769,1,j,change,1.883528148510777,0.4483900085320417,0.5007334834722315,0.03534639855433852,0.353287590306536,1.0010432976546326,5.67484071509989
15,24,female,144,135,85,change,valid,anti,5,1,1,0.16427303673708593,0,j,change,0.3203712766976423,0.36438162899458676,0.5000859525885062,0.03533581483998205,0.35324301041873696,1.0010776145463751,4.237696752852571
15,24,female,145,45,45,same,valid,clock,4,2,2,0.16294077161046516,1,j,change,0.5991809488009494,0.4462174625264942,0.49971488115124885,0.03535890658031349,0.3533000983320562,1.0010631822087817,4.543666801582276
15,24,female,146,135,185,change,valid,clock,4,2,2,0.049233514581828786,1,j,change,1.0748287843675826,0.444155547313806,0.4997305963634062,0.03530823303890429,0.35334467821985527,1.0010359211264586,4.860834420034735
15,24,female,147,45,45,same,valid,anti,4,1,2,0.1675113325923121,1,j,change,0.2655444294705376,0.3705317201916962,0.5003980118012805,0.03531368525545986,0.3532725165314332,1.0010946126330964,4.202611419250388
15,24,female,148,15,325,change,valid,anti,4,2,2,0.156053980791512,1,j,change,1.6824022978848916,0.4420054002578887,0.4998774854889234,0.03533934274491912,0.3533017019253748,1.0010795388579936,5.5917816496353225
15,24,female,149,105,55,change,valid,anti,4,2,2,0.14247892397588657,1,j,change,0.3149953912734418,0.43990047125265436,0.4999118023806659,0.03532458968902574,0.3533100406093581,1.0010958955076603,4.21373682728472
15,24,female,150,75,75,same,catch,clock,3,2,1,0.1668471243406202,0,j,change,0.23152195735838177,0,0.5001234766668858,0.0353277968747534,0.3532831002457897,1.0010785767021844,5.697921550944102
15,24,female,151,75,25,change,valid,anti,3,0,1,0.09674509092064909,0,j,change,1.53632266601835,0.28298917963193193,0.5093646628383794,0.03529123495263775,0.35331934144915067,1.0010737659226834,5.401262925762239
15,24,female,152,105,105,same,valid,anti,2,1,2,0.06083935910146465,1,j,change,1.7859652251217994,0.3668779030512689,0.4990189217569423,0.035325231126080325,0.3532997776137563,1.0010756902343019,5.520137280396284
15,24,female,153,75,75,same,catch,anti,3,0,1,0.09850519467954655,0,j,change,0.40718082564535507,0,0.4997767798440691,0.035330041905126564,0.35328630743151734,1.0010327139402762,5.803516551325629
15,24,female,154,105,105,same,valid,clock,4,1,2,0.09539486555149779,1,j,change,1.5064993627320291,0.3634705570876207,0.5002601027963465,0.03533100406093581,0.35331228563973127,1.001074086641438,5.356027489433927
15,24,female,155,15,15,same,valid,anti,5,0,2,0.14980798576516463,1,j,change,0.22764735577129613,0.28774296691468004,0.49995189220771863,0.03532362753276175,0.3533049091115572,1.0010574092734714,4.108197631942403
15,24,female,156,135,135,same,valid,clock,4,2,2,0.0690914490646719,1,j,change,0.852814209630651,0.4378902013342236,0.49939416253664604,0.035333569810063636,0.3532795723408526,1.0010606164596538,4.7075219419639325
15,24,female,157,135,135,same,catch,anti,4,0,1,0.0521815600905029,0,j,change,1.387212884677865,0,0.5002597820780466,0.03527584045923504,0.3533709771463691,1.001030789628203,6.698720781732391
15,24,female,158,75,25,change,valid,anti,4,2,2,1.7696688708588226,1,j,change,3.0204413216429202,0.4359933082330144,0.5005702376975023,0.03530598800898588,0.35330779557898495,1.0010894811352955,8.643017410530774
15,24,female,159,105,55,change,valid,anti,4,1,2,0.10581405119546616,1,j,change,1.162021271341473,0.36001736636459575,0.4990885176962365,0.035326193281434826,0.35333505666130804,1.0010343175335947,5.061226145751334
15,24,female,160,75,75,same,catch,clock,2,0,1,0.09589679018426978,0,j,change,0.2634911888976603,0,0.49887876772208983,0.03528417914321835,0.3533408295966183,1.0010506741828067,5.660967710691239
15,24,female,161,75,125,change,valid,clock,1,2,1,0.05375917495803151,0,j,change,0.12922426505747353,0.4341796524497742,0.5002722901040215,0.035334531965872884,0.3532940046789008,1.0010525984939704,3.9666324352997435
15,24,female,162,135,185,change,valid,clock,5,0,1,0.031219070698625728,0,j,change,0.16342088737701488,0.28270399631869314,0.4994634377571856,0.03532843831226273,0.3532831002457897,1.0010506741828067,3.9070275221470183
15,24,female,163,135,135,same,valid,clock,5,0,2,0.0948615104948658,1,j,change,0.12289456247253838,0.2872132220402132,0.5001225145110766,0.035311760943841364,0.35330843701603953,1.0009676080617282,3.9897620203732913
15,24,female,164,45,355,change,valid,anti,3,0,1,0.07674187090560736,0,j,change,0.493466961813283,0.2824475475276568,0.5004977552903256,0.035261728840396245,0.3533696942718052,1.0010493913082428,4.3317664090868675
15,24,female,165,75,75,same,valid,clock,3,1,2,0.11139615868933106,1,j,change,0.2787586778440527,0.35675025852668923,0.5004153306063017,0.035309195195168286,0.3532811759341712,1.0010372040005677,4.119793534184737
15,24,female,166,15,325,change,valid,anti,5,1,2,0.12233554992644713,1,f,same,1.5018723552743722,0.3536810335540738,0.5003232843637306,0.03532330681400708,0.35331100276516736,1.0010445805287418,5.415863961426567
15,24,female,167,75,25,change,valid,anti,5,0,2,0.1237409388972992,1,f,same,1.5210660815050687,0.2867372664042279,0.4993053234798026,0.03530598800853113,0.3533097198910582,1.0010676722690732,5.449478800178895
15,24,female,168,135,85,change,valid,anti,1,0,2,0.12198628735495731,1,j,change,0.7723247417093262,0.2822156749076552,0.5002491983636901,0.035313043818860024,0.35327861018504336,1.0010436183733873,4.637715290388314
15,24,female,169,45,45,same,valid,anti,1,2,2,0.02435986168029558,1,j,change,0.4170852579122766,0.4406964745208067,0.5004162927625657,0.03531176094429611,0.3533501304359561,1.0010169987281188,4.202766647059889
15,24,female,170,75,25,change,valid,anti,4,1,2,0.050102662028621126,1,f,same,0.6795905577873782,0.3505603345271038,0.49975817816402923,0.035329400467617234,0.3533077955794397,1.0010641443641362,4.484801465555847
15,24,female,171,105,105,same,catch,anti,3,2,1,0.07593205640296219,0,j,change,1.373946359170077,0,0.4997434251076811,0.035290272796828503,0.353327680133134,1.0010734452043835,6.709838813238548
15,24,female,172,105,105,same,catch,anti,1,0,2,0.0930468845717769,1,f,same,1.5304698720137822,0,0.5007822327015674,0.035318496034960845,0.35332639725857007,1.0010638236458362,6.876083948739051
15,24,female,173,15,15,same,catch,clock,5,2,1,0.1502255614018395,0,j,change,0.013572491066042858,0,0.5005519567362171,0.03536243448525056,0.35328759030608126,1.0010574092734714,5.451103560681986
15,24,female,174,75,75,same,valid,clock,5,1,1,0.06825405276049423,0,j,change,1.7349311962357206,0.34755528792914214,0.49960615754071114,0.03532138250238859,0.3532917596480729,1.001086273949113,5.520486863686074
15,24,female,175,105,55,change,valid,anti,2,1,2,0.0643175524810431,1,j,change,1.0471202996282045,0.3526889335019281,0.4995105833936577,0.0353175338791516,0.3533366602541719,1.0010599750225992,4.7900431623115765
15,24,female,176,75,125,change,catch,clock,4,2,1,0.11081245080958979,0,j,change,0.21371758416808007,0,0.49993040406070577,0.035281613394545275,0.3533417917524275,1.0010368832822678,5.532233503677617
15,24,female,177,135,135,same,valid,anti,4,0,1,0.11386216411938221,0,j,change,0.4934326449215405,0.277747153495403,0.5008839005026857,0.03532330681400708,0.35332094504246925,1.0010330346590308,4.438057689581456
15,24,female,178,105,105,same,catch,clock,3,1,2,0.24065345776352842,1,j,change,0.4271131668460839,0,0.5002694036365938,0.03532715543769882,0.3533251143844609,1.001061578615463,5.992637262756489
15,24,female,179,105,55,change,catch,anti,5,1,1,0.1609282623016952,0,j,change,0.1355308759016225,0,0.49960423322909264,0.0353489643030116,0.35331966216790534,1.0010574092734714,5.544512215851228
15,24,female,180,75,75,same,valid,clock,1,0,1,0.04330823817053897,0,j,change,0.29354573030514075,0.2818727360187777,0.5000769724674683,0.0353226653769525,0.35332479366570624,1.0010622200529724,4.155043717154513
15,24,female,181,135,85,change,valid,anti,4,1,1,0.15157610748929073,0,j,change,0.17877721537979596,0.3497730339727804,0.49932969809469796,0.03528417914321835,0.35334660253147376,1.0010599750221445,4.036055186693375
15,24,female,182,15,15,same,valid,clock,3,2,2,0.13276692287809055,1,j,change,0.2909408537143463,0.438829787693468,0.4999955099397084,0.03532362753276175,0.35329432539720074,1.0010760109530565,4.166227495976727
15,24,female,183,45,95,change,valid,clock,1,1,2,0.15452800162120184,1,j,change,0.36150568409584594,0.35459039733651737,0.50043617731626,0.0352982907625119,0.3533219071982785,1.0010452219662511,4.190651180661462
15,24,female,184,15,15,same,valid,clock,2,0,2,0.0779570737377071,1,f,same,1.049675464833399,0.28579039806152384,0.5000622194115749,0.035329079749317316,0.35328887318064517,1.0010577299917713,4.931755248078844
15,24,female,185,45,95,change,catch,clock,1,0,1,0.10243624274289687,0,j,change,0.2156473480740715,0,0.500618024771029,0.03530823303935904,0.35331196492143135,1.001030148191603,5.568774579072851
15,24,female,186,105,155,change,valid,clock,2,0,1,0.08899524630896849,0,j,change,0.3567372397287727,0.28168591787561553,0.5003175114288752,0.03532747615599874,0.3533154928259137,1.0010484291524335,4.202000129570024
15,24,female,187,45,355,change,valid,anti,3,2,2,0.18899017895455472,1,f,same,3.5599182552396087,0.4370675771039364,0.49988357914253356,0.03531945819077009,0.35331998288620525,1.0010288653170392,7.499337395341627
15,24,female,188,135,135,same,catch,anti,5,1,1,0.3220813483526399,0,j,change,0.04761388557653845,0,0.4997299549258969,0.035336135558736714,0.35327861018504336,1.0010692758623918,5.744266352961404
15,24,female,189,105,55,change,valid,anti,1,2,1,0.040794124948206445,0,j,change,2.1016055815302934,0.43538914648173377,0.5006603596284549,0.03533998418242845,0.3532693093452508,1.001070558736501,5.839054098174529
15,24,female,190,15,15,same,valid,anti,5,2,1,0.10573707872799787,0,j,change,2.4346561479515003,0.44180629729717213,0.5002751765714493,0.035352171489194006,0.3532856659949175,1.0010644650828908,6.251427678914752
15,24,female,191,165,165,same,valid,clock,3,1,1,0.02525723236522026,0,j,change,0.33253228513922295,0.3518178991389357,0.4996167412550676,0.035336135558736714,0.3532693093452508,1.0010846703557945,4.131149538902719
15,24,female,192,75,25,change,catch,anti,5,0,1,0.13545133768548112,0,j,change,0.010778711211514747,0,0.49990538800875584,0.03534126705653762,0.35332415222865166,1.0010474669966243,5.379831866473523
15,24,female,193,135,135,same,valid,clock,1,2,2,0.31579814996666755,1,j,change,1.098644065839835,0.4477177871496697,0.4997787041556876,0.03531945819077009,0.35329560827176465,1.0010821046066667,5.1556283871896085
15,24,female,194,15,15,same,catch,clock,3,1,1,0.08210653117794209,0,j,change,0.28003449649395407,0,0.5002071842250189,0.03533709771454596,0.35327219581267855,1.0010481084336789,5.685801273766174
15,24,female,195,45,95,change,valid,clock,5,2,2,0.0496142075780881,1,f,same,1.241156344551655,0.4461223254868,0.5001513791862635,0.03527968908247203,0.3533068334231757,1.0010949333513963,5.097460934869105
15,24,female,196,45,95,change,valid,clock,2,0,1,0.08091538224198302,0,j,change,0.3878463039422968,0.2854397966640877,0.49927549664880644,0.0353277968747534,0.3533344152237987,1.0010731244856288,4.166230382444155
15,24,female,197,165,215,change,valid,clock,2,2,1,0.02817897894738053,0,j,change,0.7558253725628674,0.4445901987961466,0.4993236044410878,0.03532042034657934,0.353322869353633,1.0010663893945093,4.496279022629551
15,24,female,198,135,135,same,catch,anti,4,1,1,0.060649172963167075,0,j,change,1.0504564146608573,0,0.49957440639809647,0.0353287590310174,0.3533055505486118,1.0010545228060437,6.344777963295655
15,24,female,199,75,25,change,valid,anti,1,1,1,0.00037010928190284176,0,j,change,1.646041787069862,0.3563175791538622,0.5003123799310742,0.03534158777529228,0.3533029847999387,1.0010250166933474,5.367776053737089
15,24,female,200,75,75,same,valid,anti,1,0,1,0.004955744038397825,0,j,change,2.4957536855381477,0.2893636730145779,0.5000955741470534,0.03530662944604046,0.35330907845354886,1.001064144364591,6.251264112421268
15,24,female,201,15,15,same,valid,anti,4,0,1,0.08926400850805294,0,j,change,1.1954735057556718,0.29321779904296214,0.5035413749465079,0.03532106178408867,0.353259046349649,1.001091726165214,4.970702995960892
15,24,female,202,75,125,change,valid,clock,5,2,2,0.2266605045929282,1,j,change,2.5160926979424403,0.4501115936672275,0.5004265557577128,0.03530823303935904,0.35333505666130804,1.0010731244856288,6.27478112558083
15,24,female,203,105,105,same,catch,anti,5,1,1,0.05619310852671333,0,j,change,0.07321043823640139,0,0.5000779346232775,0.035312402381350694,0.3533145306696497,1.0010349589701946,5.474337058587025
15,24,female,204,105,55,change,valid,anti,3,1,1,0.03921009570876777,0,j,change,2.296865167969827,0.3610346240126936,0.5000304682685055,0.035373018199152284,0.35331902073085075,1.0010477877149242,6.110110718479973
15,24,female,205,135,85,change,valid,anti,4,0,2,0.45216481857914914,1,f,same,2.6417364603826172,0.29686763871006067,0.499341885402373,0.035272312554752716,0.3533453196573646,1.0010548435247983,6.86318849466852
15,24,female,206,45,95,change,valid,clock,4,0,2,0.20288948228972004,1,f,same,1.2440437742425274,0.29298661542740867,0.49933675390411736,0.03534351208691078,0.35331773785628684,1.0010635029275363,5.214243241977783
15,24,female,207,45,45,same,valid,anti,3,0,2,0.2164446545507417,1,j,change,4.130883983889817,0.28909993911018805,0.5000776139049776,0.035330041905126564,0.35331773785628684,1.0010298274728484,8.182893959521152
15,24,female,208,165,115,change,valid,anti,4,0,2,0.3722298731427145,1,j,change,1.2108465111268742,0.28546803997368464,0.49984445147174483,0.0352992529178664,0.3533340945054988,1.0010372040010225,5.355648720749741
15,24,female,209,45,95,change,valid,clock,1,2,2,0.15276757714400446,1,f,same,1.24960471430677,0.44852695788392266,0.500383900181987,0.03528578273653693,0.35335365834089316,1.0010259788491567,5.155710491154878
15,24,female,210,135,135,same,catch,anti,3,1,1,0.09137786489918653,0,j,change,0.15543210739679125,0,0.5004692113338933,0.03532491040687091,0.3532850245574082,1.0010689551436371,5.497539126067295
15,24,female,211,45,45,same,valid,clock,5,2,2,0.20589237068134025,1,f,same,2.068959312995048,0.4470261258661802,0.5003835794632323,0.03529893219911173,0.35332992516350714,1.0010381661568317,6.086661697666386
15,24,female,212,165,165,same,valid,clock,1,2,2,0.8334235621700827,1,j,change,0.9203706994039749,0.44558997870975875,0.500181847454769,0.035338380589109875,0.3532693093452508,1.0010574092734714,5.579800885054738
15,24,female,213,165,215,change,catch,clock,4,1,1,0.08541089506798016,0,j,change,1.765281119487554,0,0.499692430847972,0.03532747615599874,0.35332607654027015,1.0010336760956307,7.157156611389382
15,24,female,214,135,185,change,valid,clock,1,2,1,0.29125195077085664,0,j,change,0.5372171502353922,0.4442019707707553,0.50095317572368,0.035304705134421965,0.3533273594143793,1.0010609371779537,4.626995591401737
15,24,female,215,135,85,change,valid,anti,2,0,2,0.163904210329747,1,j,change,3.2967997413725243,0.28200765758492063,0.5000808210907053,0.035317854597451515,0.3533097198910582,1.0010064150133076,7.193874082023285
15,24,female,216,105,55,change,catch,anti,1,2,1,0.09255233646717897,0,j,change,0.08061198243240142,0,0.49925272562722967,0.035293159264256246,0.35332800085188865,1.001064144364591,5.508301159911298
15,24,female,217,15,325,change,catch,anti,4,0,1,0.32552297980964795,0,j,change,1.0662970277721797,0,0.500234445307342,0.035330683342635893,0.35326385712869524,1.0010590128663353,6.592771387281118
15,24,female,218,135,135,same,valid,anti,1,0,1,0.13108988524027154,0,j,change,0.0833047359237753,0.2785189649104945,0.5004813986411136,0.0353550579570765,0.353296249709274,1.0010413733425594,3.9669044046850104
15,24,female,219,135,135,same,valid,clock,2,1,2,0.2147175848090228,1,j,change,0.7490880366181045,0.36548765906063546,0.49950994195660314,0.0353226653769525,0.3532763651546702,1.0010493913082428,4.767144815359188
15,24,female,220,45,355,change,valid,anti,1,0,1,0.20916594558411816,0,j,change,0.2579530198545399,0.2817476537302952,0.49916484872665023,0.03536115161068665,0.35331966216790534,1.0010561263993623,4.225148637041912
15,24,female,221,15,15,same,catch,clock,1,2,2,0.21038178985372724,1,j,change,0.33429944470799455,0,0.4997357278612071,0.0353175338791516,0.35329496683471007,1.0010525984944252,5.814842408494314
15,24,female,222,45,355,change,valid,anti,1,1,1,0.04929509255634912,0,j,change,0.335008232846576,0.36299876149318433,0.5007132781997825,0.03522901554151758,0.35342710290387913,1.0010202059143012,4.2030136003936605
15,24,female,223,15,15,same,valid,anti,2,1,1,0.1413131118106321,0,j,change,0.06916457290844846,0.36719666665502676,0.49912732464872533,0.03538841269300974,0.35333056660101647,1.0010625407712723,3.9301689738094865
15,24,female,224,45,45,same,valid,clock,3,1,1,0.1774818328940455,0,j,change,0.24170894272538135,0.3716561804278845,0.500306606995764,0.035334531965872884,0.35330138120662014,1.0010474669966243,4.178793892747763
15,24,female,225,135,135,same,catch,clock,3,1,2,0.23103542721946724,1,j,change,0.4137032801177156,0,0.5000894804934433,0.03531817531666093,0.35325295269603885,1.001127967368575,5.956840895985351
15,24,female,226,135,135,same,valid,clock,3,1,2,0.10958089132827808,1,j,change,0.11780443733414359,0.37584721993836967,0.5003553562255547,0.03535120933338476,0.3532539148518481,1.0010718416110649,3.942954421394461
15,24,female,227,75,75,same,valid,clock,2,1,1,0.0007225790391203191,0,j,change,2.1557605232587775,0.373481913097761,0.4999493264585908,0.03532170322114325,0.35329753258338314,1.0010525984944252,5.886352717352565
15,24,female,228,75,75,same,valid,anti,4,2,2,0.1088599158820216,1,j,change,0.3506060619665732,0.4492333411490829,0.49931398288299533,0.035330683342181146,0.3532879110248359,1.001074086641438,4.236244538963547
15,24,female,229,165,165,same,catch,anti,4,2,2,0.30607235796833265,1,j,change,6.647542108750713,0,0.5005564467969634,0.035297970043302485,0.3533273594143793,1.0010285445982845,12.246052434927606
15,24,female,230,15,325,change,valid,anti,4,0,2,0.12984004479812938,1,f,same,1.5281327954671724,0.2848196762500236,0.5006882621478326,0.03527070896143414,0.3533918238563274,1.0010365625635131,5.47503494229295
15,24,female,231,15,15,same,valid,clock,3,1,2,0.2054895481010135,1,j,change,10.355915558637207,0.3774574162895751,0.4997437458268905,0.03535666154994033,0.3532959289905193,1.0010635029270816,14.330152873734733
15,24,female,232,15,325,change,catch,anti,2,0,1,0.06911229577463018,0,j,change,0.7663763735577049,0,0.4995250157312512,0.03537237676255245,0.35324589688661945,1.001070558736501,6.0742309648690025
15,24,female,233,105,105,same,catch,clock,5,2,1,0.18853700355157343,0,j,change,0.6113541445502051,0,0.5000134701817842,0.035332286935044976,0.35331805857458676,1.0010285445982845,6.133817597060897
15,24,female,234,45,95,change,valid,clock,4,1,2,0.12735287193891054,1,j,change,1.831550244740356,0.37514846474893226,0.49974727373137284,0.03535858586155882,0.3532859867132174,1.0010830667629307,5.7678112686407985
15,24,female,235,15,65,change,catch,clock,4,1,1,0.2947420107389007,0,j,change,0.35927925547093764,0,0.49985471446734664,0.03530117722993964,0.35331677570002284,1.0010747280789474,5.98020685067786
15,24,female,236,75,75,same,valid,clock,2,0,2,0.2310902701028681,1,j,change,0.6009038492006766,0.28150492876862376,0.4997649132551487,0.03535024717757551,0.35331292707678585,1.0010234131004836,4.602454523703727
15,24,female,237,75,75,same,catch,anti,3,0,1,0.20806876720280343,0,j,change,0.28421762938887696,0,0.49917382884768813,0.03532619328188957,0.3533405088778636,1.0010561263989075,5.803142914138789
15,24,female,238,135,85,change,valid,anti,5,0,1,0.1893599675177029,0,j,change,0.3846516258186057,0.27825973891449873,0.5001180244503303,0.035247937939857366,0.35341491559665883,1.0010404111872049,4.390032963459362
15,24,female,239,105,55,change,valid,anti,3,0,2,0.2976916598408934,1,j,change,1.5936642679052966,0.2812777172799834,0.5006497759140984,0.0353043844156673,0.3533052298303119,1.001086594667413,5.686861248788318
15,24,female,240,165,165,same,catch,anti,2,2,1,0.7117159792919665,0,j,change,0.2976207810265805,0,0.4992315581985167,0.03530598800898588,0.3533340945054988,1.0010612578967084,6.3212250296501225
15,24,female,241,15,15,same,valid,clock,5,0,1,0.22951393811035814,0,j,change,0.2712596351893808,0.27814297898037754,0.4999249518441502,0.03538392263226342,0.3532898353364544,1.001036883281813,4.307729190333248
15,24,female,242,15,15,same,valid,anti,4,1,2,0.05573544306344047,1,j,change,0.3336907207767581,0.37292317184482476,0.5002042977580459,0.03533485268462755,0.35330587126736646,1.0010413733430141,4.107626432088637
15,24,female,243,45,95,change,valid,clock,3,0,1,0.14458668671386476,0,j,change,0.2516990068625091,0.28106448532482364,0.5000314304243147,0.03530053579288506,0.35331998288666,1.0010525984944252,4.166291318980711
15,24,female,244,15,325,change,valid,anti,1,1,1,0.07827747163401,0,j,change,0.24428495464053412,0.37062007542261177,0.5004547789962999,0.03530662944604046,0.35330138120662014,1.0010689551436371,4.037720357742273
15,24,female,245,15,15,same,valid,clock,4,2,2,0.15015949336748236,1,f,same,2.084486584019942,0.44781129396867314,0.4999650416712029,0.03533260765425439,0.3533081162977396,1.001035279689404,6.003797629119617
15,24,female,246,45,45,same,valid,anti,5,1,2,0.061966364314230304,1,j,change,0.9012436826446901,0.3744204662254611,0.5002623478271744,0.035310798788486863,0.3532885524618905,1.0010718416110649,4.743867058285559
15,24,female,247,165,215,change,valid,clock,5,0,2,0.15437469812377458,1,f,same,0.7288827638758448,0.28386876622359775,0.5001917897316162,0.035348964303466346,0.35328855246234525,1.0010323932215215,4.625719452033081
15,24,female,248,75,75,same,catch,clock,4,2,2,0.18110659467993173,1,f,same,2.4505192113660996,0,0.5006250805804484,0.03529059351558317,0.3533302458822618,1.0010362418447585,7.947931653580326
15,24,female,249,105,155,change,catch,clock,5,0,1,0.6226312524895548,0,j,change,2.093216865437171,0,0.49950320686548366,0.03535730298744966,0.3533257558215155,1.001058050710526,8.02948751089616
15,24,female,250,165,165,same,valid,clock,2,0,2,0.13833203228477942,1,f,same,1.0107527330037556,0.28086389375443654,0.4994041048134932,0.035354416520021914,0.3533071541414756,1.0010365625635131,4.931415607065901
15,24,female,251,135,185,change,catch,clock,1,2,1,0.06995995507395492,0,j,change,1.5571203060421794,0,0.5080965414349521,0.035306950164795126,0.3532805344971166,1.0010923676022685,6.8837035815927266
15,24,female,252,105,105,same,valid,clock,5,1,2,0.24086416989348436,1,f,same,2.5757935059609736,0.3722111115314314,0.49965137886556477,0.035303101541558135,0.35332671797732473,1.001083066762476,6.639548517991443
15,24,female,253,165,115,change,valid,anti,5,0,1,0.16715180702476573,0,j,change,0.14737148644735498,0.27793121357426087,0.49953399585274383,0.03531977890952476,0.35329432539720074,1.0010202059138464,4.0831802971006255
15,24,female,254,135,185,change,valid,clock,4,1,2,0.23227981544550858,1,f,same,2.2849610551384103,0.37001372413231814,0.5007318798793676,0.03535249220840342,0.3532760444363703,1.0010683137065826,6.322927083339891
15,24,female,255,15,65,change,valid,clock,1,0,2,0.1727922853065138,1,f,same,1.6174981510571342,0.2806747682786783,0.49983033985290604,0.03531977890952476,0.3533417917524275,1.0010465048403603,5.473791836941473
15,24,female,256,135,185,change,catch,clock,3,1,1,0.1269779518784162,0,j,change,0.19786734949775564,0,0.5001353432553515,0.03532170322114325,0.3532895146181545,1.001010584355754,5.6038358587788935
15,24,female,257,75,25,change,valid,anti,4,0,2,0.0636106886536254,1,f,same,1.9345066930768553,0.27783490939232025,0.5001218730735673,0.03533805987080996,0.3532763651546702,1.0010695965806917,5.757028708806047
15,24,female,258,15,325,change,catch,anti,4,2,1,0.12440707146060959,0,j,change,0.27183885300746624,0,0.49919499627640107,0.03533517340292747,0.35332415222865166,1.0010647858016455,5.638233250951544
15,24,female,259,75,75,same,valid,clock,1,2,2,0.684272087410136,1,f,same,0.5914420086219252,0.44645463943574865,0.500221937281367,0.03530983663222287,0.35329624970881923,1.0010747280784926,5.015118675509257
15,24,female,260,15,325,change,catch,anti,3,1,1,0.0017007708147502854,0,j,change,3.3537590466703477,0,0.4992363689780177,0.03536115161068665,0.35330394695574796,1.0010618993342177,8.664334293992397
15,24,female,261,75,125,change,valid,clock,3,0,1,0.020691161444119643,0,j,change,0.18711237146408166,0.27517401870554653,0.5003348302338964,0.03536307592230514,0.3533074748602303,1.0010599750225992,3.94351022675437
15,24,female,262,135,135,same,valid,anti,1,2,2,0.10093303459461822,1,f,same,0.6622861849173205,0.4451483576551465,0.49964175730701754,0.03529668716919332,0.35331966216790534,1.0010660686762094,4.413544524403278
15,24,female,263,135,135,same,valid,anti,5,1,1,0.011706550164490181,0,j,change,1.9040053906383037,0.3678994386108304,0.49972674774016923,0.03532458968902574,0.3532596877867036,1.0010949333513963,5.579345464621838
15,24,female,264,15,65,change,valid,clock,4,0,1,0.07732012656833831,0,j,change,0.19358960461204333,0.2777442501262256,0.50049230307377,0.03526301171496016,0.3533610348690672,1.0010311103474123,3.9437847618892192
15,24,female,265,15,325,change,valid,anti,3,1,2,0.1352249103433678,1,f,same,0.8951631784243546,0.3715639762622521,0.4995378444759808,0.035329079749317316,0.35331677570002284,1.0010407319055048,4.754674954890561
15,24,female,266,15,65,change,valid,clock,4,1,1,0.004551638583507156,0,j,change,2.2825530997774877,0.36946835708635695,0.5001385504419886,0.03528225483159986,0.3533273594143793,1.0010692758623918,5.992404741760311
15,24,female,267,105,105,same,valid,clock,5,2,2,1.059058408632609,1,f,same,2.540423053510949,0.4438790921980486,0.4998576009347744,0.035359868736122735,0.35332158647952383,1.0010660686762094,7.228796490568584
15,24,female,268,135,135,same,valid,anti,3,0,1,0.049077966054028366,0,j,change,2.3093796083253437,0.2803268995150185,0.4999220653762677,0.03532394825151641,0.3533103613281128,1.0010606164596538,6.07478163873111
15,24,female,269,135,135,same,catch,clock,1,2,1,0.2189545984315373,0,j,change,0.3220566530189899,0,0.4994730593157328,0.03534126705653762,0.3533270386960794,1.001066389394964,5.814477109991458
15,24,female,270,165,165,same,catch,clock,5,2,1,0.08016329709016645,0,j,change,0.19617716239736183,0,0.5008194360611924,0.035401882874793955,0.3532779687479888,1.0010529192131798,5.498128927600192
15,24,female,271,105,105,same,valid,anti,4,1,2,0.21231283663428258,1,f,same,0.8217397830271693,0.37298061494597123,0.5000618986928203,0.035331324779690476,0.3533119649209766,1.0010327139402762,4.790470038787589
15,24,female,272,75,25,change,valid,anti,1,2,1,0.019720025477909076,0,j,change,0.29988826163480553,0.4425307286338611,0.4999903784414528,0.0353034222603128,0.35333184947512564,1.0010413733430141,4.025168393308832
15,24,female,273,105,155,change,valid,clock,1,2,2,0.8052096248939051,1,f,same,1.07503789290422,0.4471113914676607,0.49970109025070997,0.03533773915205529,0.3532616120983221,1.0010307896286577,5.627226829523352
15,24,female,274,75,25,change,catch,anti,3,1,1,0.14551163919941246,0,j,change,0.4451689834309036,0,0.49967414988714154,0.035289631359319173,0.3533302458822618,1.0010686344253372,5.802853625948501
15,24,female,275,135,135,same,catch,clock,1,0,1,0.19765535449369054,0,j,change,0.2360739166606436,0,0.5009615144076633,0.035284179142763605,0.35334467821985527,1.0010519570569159,5.687169459377856
15,24,female,276,105,55,change,catch,anti,2,1,1,0.09478357587158825,0,j,change,0.3627590524433799,0,0.4995115455490122,0.03534639855433852,0.3533052298303119,1.0010497120265427,5.685486007367672
15,24,female,277,75,125,change,valid,clock,4,0,2,0.7430024008995133,1,j,change,0.9912681149889977,0.28285028000439716,0.49962572137656025,0.03531400597466927,0.35330651270442104,1.0010846703557945,5.4733598289672045
15,24,female,278,135,135,same,valid,anti,5,2,1,0.07222198346516961,0,j,change,0.2985094923087672,0.4458756769808001,0.49972193696066824,0.035296366450438654,0.35337899511159776,1.001017960883928,4.107155617162334
15,24,female,279,75,75,same,catch,clock,5,1,1,0.03768251294559377,0,j,change,0.23619322398508302,0,0.5003778065283768,0.03530278082280347,0.35329368396014615,1.0010869153861677,5.532751784959601
15,24,female,280,165,165,same,valid,clock,4,1,2,0.10118383655162688,1,f,same,0.8529277440206897,0.37097154162779833,0.5008579222949265,0.03529700788749324,0.3532811759341712,1.001069275861937,4.674044370779029
15,24,female,281,105,55,change,valid,anti,2,0,2,0.19198537009970096,1,f,same,0.3443462760396869,0.2801664311934926,0.4994166128390134,0.03531432669296919,0.35335237546632925,1.0010243752562928,4.284223723042942
15,24,female,282,135,185,change,valid,clock,3,2,2,0.1882159642177612,1,f,same,1.0099239961023159,0.4506575387005997,0.49972514414685065,0.035345115680229355,0.3532879110248359,1.0010449012474965,4.943747879247894
15,24,female,283,165,215,change,valid,clock,2,0,1,0.0018370762268204999,0,j,change,1.408366201646004,0.27757800830306956,0.4998271326662689,0.03521779038965178,0.3533937481679459,1.0009329704507763,5.120552354427218
15,24,female,284,135,135,same,valid,clock,5,2,2,0.6469397991918413,1,j,change,2.2263850073027243,0.4493582946496767,0.49961417550639453,0.035340625619483035,0.35329111821101833,1.0010538813685343,6.627451973990901
15,24,female,285,105,105,same,valid,anti,5,2,2,0.16578490428810255,1,f,same,2.3155627425035163,0.4481177000763906,0.5004201413858027,0.03530598800898588,0.3533549412154571,1.0010375247193224,6.204902633035999
15,24,female,286,75,75,same,valid,anti,5,0,1,0.11586890049329668,0,j,change,0.32831964613205855,0.280013947896869,0.4993656185793043,0.03535537867583116,0.353290476773509,1.0010859532303584,4.154382074651949
15,24,female,287,75,75,same,catch,anti,5,2,1,0.09486792486723061,0,j,change,0.1859465592988272,0,0.5000558050387554,0.03531657172334235,0.3532731579684878,1.0010715208923102,5.520810468768559
15,24,female,288,15,65,change,valid,clock,5,2,2,0.10183842324477155,1,f,same,1.0153909656132782,0.44693207458312745,0.5006975629876251,0.03530053579288506,0.35333120803807105,1.0010907640094047,4.803115332338621
15,24,female,289,15,65,change,valid,clock,2,1,2,0.10613573196633297,1,f,same,0.6980398961127321,0.3689771410765641,0.4997726105016227,0.035332286935499724,0.3532725165314332,1.0010881982602768,4.555221331123448
15,24,female,290,45,45,same,catch,anti,5,1,1,0.06285315128479851,0,j,change,0.26611691219841305,0,0.4994451567959004,0.03529508357587474,0.3533594312762034,1.0010064150137623,5.544282581322932
15,24,female,291,45,355,change,valid,anti,2,2,2,0.21139365708359037,1,j,change,1.1042297012377276,0.44578995853347336,0.500177036675268,0.035300856511184975,0.3533270386960794,1.0010195644772466,4.979064130252482
15,24,female,292,135,185,change,valid,clock,4,0,2,0.15914057674172,1,j,change,2.30261148339423,0.28242118157994756,0.5004419502515702,0.03534543639852927,0.3533042676745026,1.0010875568232223,6.215782370610668
15,24,female,293,105,105,same,valid,anti,4,0,2,0.07711230090581012,1,f,same,1.017644334601755,0.2798706750432696,0.5002501605194993,0.03530246010450355,0.3532728372501879,1.0011250809011472,4.850326074616078
15,24,female,294,105,55,change,valid,anti,4,0,1,0.0863082657524501,0,j,change,0.30424522401881404,0.2774292535351427,0.499616099818013,0.03539803425110222,0.3532879110248359,1.0010702380177463,4.0956447053522425
15,24,female,295,105,105,same,valid,anti,2,0,2,0.00394836686882627,1,f,same,1.7286726931829435,0.27973507070437353,0.5001427197835255,0.035296366450438654,0.3533449989381552,1.0010250166933474,5.47383866185919
15,24,female,296,105,105,same,valid,clock,3,0,1,0.032350245253837784,0,j,change,1.4255050837109593,0.27736060178323785,0.5004320079742683,0.03530727088354979,0.35330009833251097,1.00105933358509,5.191876967207918
15,24,female,297,135,135,same,valid,anti,3,1,3,0.25741260898803375,1,j,change,1.3008334193928022,0.36709563179492033,0.5000064143723648,0.035314647411723854,0.35331677570002284,1.0010580507109808,5.355859432879697
15,24,female,298,135,185,change,catch,clock,4,1,1,0.027368843725980696,0,j,change,1.4919483591716016,0,0.5004172549179202,0.03531400597466927,0.3533305666005617,1.0010388075938863,6.769839172442971
15,24,female,299,135,185,change,valid,clock,1,1,2,0.10169377914962752,1,f,same,1.0373938661923603,0.3653021303195965,0.5000795382165961,0.03529283854595633,0.3533273594143793,1.0010372040005677,4.826741069108721
15,24,female,300,165,115,change,valid,anti,3,1,1,0.06553179315687885,0,j,change,0.3236772441805442,0.3635628603050317,0.49945990985224853,0.03533036262342648,0.3533052298303119,1.0010375247193224,4.118548825239941
15,24,female,301,165,215,change,valid,clock,3,2,2,0.31184689663041354,1,j,change,1.8299588389727433,0.44468107640923293,0.510637595020853,0.035263332433260075,0.3533652042110589,1.0009326497324764,5.743944351471782
15,24,female,302,75,75,same,valid,anti,3,2,1,0.6267502416612842,0,j,change,2.1924905019182006,0.4435062034016697,0.4995673505882223,0.035340625619483035,0.35330170192582955,1.0010384868755864,6.568612936890986
15,24,female,303,45,355,change,valid,anti,2,1,2,0.15469958608036904,1,j,change,1.2428375515314656,0.3665115661965252,0.49966741479602206,0.035312402381350694,0.3533164549817229,1.0010452219662511,5.097166194462261
15,24,female,304,165,165,same,valid,anti,5,0,2,0.04913248821867455,1,f,same,0.9880750404586252,0.2796064047659623,0.49904650355802005,0.03530374297861272,0.35329881545794706,1.0010631822087817,4.731080648544321
15,24,female,305,15,15,same,valid,clock,1,0,2,0.034923691419862735,1,f,same,0.8031980777409444,0.2772953890259441,0.5000978191774266,0.035313043818405276,0.35331998288620525,1.0010599750225992,4.531888731166873
15,24,female,306,45,355,change,valid,anti,3,1,2,0.12035222601161877,1,f,same,1.0422344722478556,0.36480677196913086,0.49999390634638985,0.03531817531620618,0.3533084370164943,1.00100320782758,4.896672800944543
15,24,female,307,165,165,same,valid,clock,2,1,2,0.06943301438968774,1,f,same,1.0139063591445847,0.36306133498277005,0.5002511226757633,0.035272633273052634,0.35332992516350714,1.0010776145463751,4.779724682312008
15,24,female,308,75,75,same,valid,clock,3,0,2,0.014967617041293124,1,f,same,3.2915598406411846,0.2751059295489535,0.4997934572120357,0.03532202393944317,0.35330587126736646,1.0010423354988234,7.027969228973234
15,24,female,309,15,15,same,valid,anti,3,2,2,0.0010493913082427753,1,f,same,0.7488263302288942,0.4474833075123805,0.49994323280498065,0.03529668716919332,0.3533106820464127,1.0010740866418928,4.496225783339014
15,24,female,310,165,165,same,valid,clock,3,2,1,0.007439388992679596,0,j,change,0.8230431834786032,0.44639309924765225,0.49996664526406676,0.03534639855433852,0.35326129138002216,1.001070238018201,4.531491360802647
15,24,female,311,75,75,same,valid,anti,1,2,2,0.009475952197590232,1,f,same,1.1956114147606058,0.4506088018108365,0.500297947593026,0.03533421124711822,0.3532773273109342,1.0010153951348002,4.873732119135639
15,24,female,312,45,45,same,valid,clock,3,2,1,0.03515204307359454,0,j,change,0.29520095907719224,0.449458791158751,0.49982873625958746,0.03532715543724407,0.3533164549817229,1.0010320725027668,4.01363214472849
15,24,female,313,15,15,same,valid,clock,5,2,2,0.025321055369659007,1,f,same,0.9261221463261791,0.4534855004503183,0.49997177676186766,0.03532330681446183,0.3533100406093581,1.0010548435247983,4.63785223723653
15,24,female,314,75,75,same,valid,anti,5,1,2,0.02446922672834262,1,f,same,0.6898298202886508,0.36132784306623816,0.49972674774016923,0.035310157350977533,0.3533093991718488,1.0010920468839686,4.425516629581125
15,24,female,315,45,45,same,valid,clock,1,0,2,0.022069930769703205,1,f,same,0.48391018852498746,0.27297782498178996,0.5001658115243117,0.035296366450438654,0.35331773785628684,1.0010827460437213,4.213863831856088
15,24,female,316,165,115,change,valid,anti,2,0,1,0.03811644523193536,0,j,change,0.25961466299850144,0.27078903047462366,0.5002338038702874,0.03533934274491912,0.35327091293811463,1.0010692758623918,3.9788312885384585
15,24,female,317,135,185,change,catch,clock,2,0,1,0.01847916515680481,0,j,change,0.30317723103098615,0,0.49971359827668493,0.03535698226869499,0.3533231900728424,1.001050353464052,5.54378001525356
15,24,female,318,135,85,change,catch,anti,5,2,1,0.4664842632996624,0,j,change,0.18686605956781932,0,0.500998076329779,0.0353175338791516,0.35329528755301,1.0010840289182852,5.957165463223646
15,24,female,319,105,55,change,catch,anti,3,2,1,0.12383490945148878,0,j,change,0.21989590756629696,0,0.5004589483378368,0.03534383280566544,0.35330202264412947,1.0010570885547168,5.615491735401974
15,24,female,320,45,45,same,valid,anti,4,0,2,0.0988470807228623,1,f,same,0.6928118619703127,0.2727956744246827,0.5000365619216609,0.03534543639852927,0.35327700659217953,1.001047787715379,4.555473095235811
15,24,female,321,105,105,same,valid,anti,1,0,1,0.02699360294627695,0,j,change,0.17632692516190218,0.2706518803980209,0.49943136589581627,0.03530983663222287,0.35335141331052,1.001054522805589,3.930213553696831
15,24,female,322,165,215,change,catch,clock,4,0,1,0.06373448603881116,0,j,change,0.264477077920219,0,0.5005301478704496,0.03529123495263775,0.3533671285231321,1.0010388075938863,5.685888188510944
15,24,female,323,105,155,change,valid,clock,3,0,2,0.06995386142034477,1,f,same,2.7169308639713563,0.2726213006024304,0.5005218091864663,0.03532651400018949,0.3533254351027608,1.0010109050745086,6.5466642377577955
15,24,female,324,15,15,same,catch,anti,4,0,1,0.08465367841790794,0,j,change,0.30062719732359255,0,0.4990766511077709,0.035315288849233184,0.35330202264412947,1.001033034658576,5.590249576811857
15,24,female,325,45,45,same,valid,anti,3,1,1,0.06260972585641866,0,j,change,0.08931147486282498,0.3595840532331608,0.500702694485426,0.03533581483998205,0.3533033055186934,1.001057729992226,3.9078238664678793
15,24,female,326,75,125,change,valid,clock,3,2,1,0.012854081368914194,0,j,change,1.29997004488132,0.4523996254810386,0.5001282874459321,0.03529989435537573,0.35333184947512564,1.0010349589701946,5.0033524716823194
15,24,female,327,45,45,same,valid,anti,2,0,1,0.03466519221638009,0,j,change,0.12135447168338942,0.2705201744729954,0.4990561251161125,0.03530759160184971,0.35330651270442104,1.0010449012474965,3.8590887486134307
15,24,female,328,165,115,change,valid,anti,3,2,1,0.10829128177738312,0,j,change,0.10152251540876023,0.4561094402735535,0.5005423351776699,0.035325231126080325,0.3532744408430517,1.0010776145463751,3.89673918969811
15,24,female,329,15,325,change,valid,anti,3,2,1,0.006887432256007742,0,j,change,0.06550196632588268,0.46005952782992143,0.4995946116705454,0.035332928372554306,0.3533042676740479,1.0010487498707334,3.7656605296092494
15,24,female,330,45,95,change,valid,clock,5,1,2,0.1062794139061225,1,f,same,2.6945652306380907,0.36251768644775567,0.5003046826841455,0.03531721316085168,0.3533084370164943,1.0010519570569159,6.416798214751907
15,24,female,331,75,75,same,valid,anti,2,0,2,0.06922903734994179,1,f,same,0.6949279633918195,0.2724541734424172,0.4995930080776816,0.03532651400018949,0.35328726958778134,1.0010776145463751,4.5197020652353785
15,24,female,332,135,135,same,valid,anti,4,2,2,0.05467835450826897,1,f,same,0.8590233220161281,0.4638650002964157,0.5000141116192935,0.03534415352442011,0.35330555054906654,1.00105933358509,4.602786467470651
15,24,female,333,165,165,same,catch,clock,2,1,1,0.04252087397117066,0,j,change,0.8009754977392731,0,0.4996058368219565,0.03531977890952476,0.3533296044452072,1.00103431753314,6.097688965804537
15,24,female,334,75,75,same,valid,anti,3,0,1,0.03690060096232628,0,j,change,3.4363161875021433,0.2703935529566762,0.5003976910825259,0.03531111950678678,0.3532686679077415,1.0011007062862518,7.13508539774557
15,24,female,335,105,105,same,valid,anti,1,1,2,0.07856194904525182,1,f,same,1.4871690103714172,0.3608433330431551,0.4997754969695052,0.03533356980960889,0.3533055505486118,1.0010426562171233,5.226606623865791
15,24,female,336,45,45,same,valid,clock,5,0,2,0.053170656299244,1,f,same,0.6840174368298904,0.27229380959292354,0.499308530665985,0.03533485268462755,0.35330041905126564,1.0010676722690732,4.4011795389219515
15,24,female,337,135,85,change,valid,anti,2,2,2,0.02680373752673404,1,f,same,1.143041464426915,0.46282828303492274,0.5004057090482092,0.03531336453715994,0.35332607654027015,1.0011459276115602,4.861751033836754
15,24,female,338,15,325,change,valid,anti,1,0,1,0.05905327713480801,0,j,change,0.3193930849215576,0.2702716867825545,0.4997119946838211,0.035324589688570995,0.3532606499425128,1.0010933297585325,4.072168423456333
15,24,female,339,165,165,same,catch,clock,4,2,1,0.08023610021564309,0,j,change,0.11332656403237706,0,0.5001183451686302,0.0353277968747534,0.35334692325022843,1.0010176401651734,5.426858516265838
15,24,female,340,45,95,change,catch,clock,5,0,1,0.19717491800838616,0,j,change,0.22952388038766003,0,0.5004441952819434,0.035314647411723854,0.35331004060981286,1.0010734452043835,5.663040835818265
15,24,female,341,45,45,same,valid,clock,3,0,1,0.21009763316078534,0,j,change,0.14227013615800388,0.2721397673939978,0.49960230891747415,0.03533260765425439,0.35330875773524895,1.0010513156198613,4.048475977213911
15,24,female,342,105,105,same,catch,anti,2,2,1,0.09353694261517376,0,j,change,0.604721362874443,0,0.4996218727528685,0.03530246010450355,0.35328342096454435,1.0010458634033057,5.909284419040887
15,24,female,343,75,125,change,catch,clock,5,2,1,0.01615171016783279,0,j,change,0.25058964117351934,0,0.5002309174028596,0.03535185077089409,0.353278930903798,1.001030789628203,5.485935526578487
15,24,female,344,45,45,same,valid,clock,4,1,2,0.11634580907366399,1,f,same,2.5512793786269867,0.35916749045426455,0.4999284797490873,0.03529797004375723,0.35330266408118405,1.0010644650828908,6.309626882377415
15,24,female,345,105,155,change,valid,clock,5,1,1,0.06916906296919478,0,j,change,0.5573149822416781,0.3575789664075737,0.49996151376626585,0.03532875903056265,0.35330009833251097,1.0010410526242595,4.320165375346733
15,24,female,346,45,355,change,valid,anti,4,1,2,0.020127979556036735,1,f,same,0.7264873165408972,0.3603894277998856,0.49883579142760937,0.035320099627824675,0.35328887318064517,1.0010792181396937,4.471935838316767
15,24,female,347,15,15,same,valid,anti,1,1,2,0.006684738091280451,1,f,same,0.8854296891786362,0.35878447629757,0.4996613211424119,0.0353550579570765,0.3533049091115572,1.0010606164596538,4.684606596925278
15,24,female,348,15,325,change,catch,anti,5,0,1,0.025799246824590227,0,j,change,0.2076960921722275,0,0.4997055803114563,0.03534960574052093,0.3532728372501879,1.0010881982602768,5.473455082395958
15,24,female,349,15,15,same,valid,clock,4,1,1,0.6900001218732541,0,j,change,0.23696391081693946,0.35726809122850955,0.5004939066670886,0.0352982907625119,0.35329368396014615,1.0010856325120585,4.696935982639843
15,24,female,350,75,25,change,valid,anti,2,2,2,0.05446219016175746,1,f,same,0.7227044404771732,0.4617978627865146,0.5002928160952251,0.03534703999184785,0.3532686679081962,1.001051636338616,4.461809468768024
15,24,female,351,105,155,change,valid,clock,5,0,1,0.14353440893819425,0,j,change,0.7955300163757784,0.27391824525157005,0.5100686401979146,0.03533902202616446,0.3533129270772406,1.0010346382518946,4.576927887702368
15,24,female,352,165,165,same,valid,anti,5,1,2,0.003745993422853644,1,f,same,1.3516795071709566,0.3599625478044771,0.5001507377492089,0.03533196621674506,0.35330073976956555,1.0010766523905659,5.049586625777465
15,24,female,353,105,105,same,catch,clock,4,1,1,0.01003913408567314,0,j,change,0.44052561932358003,0,0.500120910917758,0.03532170322114325,0.35333120803807105,1.001063182208327,5.709303213151543
15,24,female,354,45,45,same,valid,clock,1,1,2,0.431188859005033,1,f,same,1.2827756784959092,0.3584311262315032,0.5004470817493711,0.03531945819077009,0.3532981740208925,1.0010869153861677,5.4748190986651935
15,24,female,355,165,115,change,valid,anti,5,2,1,0.018725797771821817,0,j,change,0.8058558729030665,0.46076602857956256,0.49908787625918194,0.03531272309965061,0.35330073976956555,1.0010808217325575,4.566194718534007
15,24,female,356,45,355,change,valid,anti,5,2,1,0.024369483238842804,0,j,change,0.20307581980478062,0.4643346094418725,0.49954522100370014,0.03532555184438024,0.35331773785628684,1.0009765881823114,3.8951811386664303
15,24,female,357,165,165,same,valid,anti,3,0,2,0.08240383733436829,1,f,same,1.1657752827291006,0.2756439729715897,0.5002857602858057,0.035323948251061665,0.35330587126736646,1.0010817838883668,4.943858527170505
15,24,female,358,105,105,same,valid,clock,3,2,2,0.08497279343964692,1,f,same,1.8678543090791209,0.46771373993723936,0.5005949330311523,0.03535024717803026,0.3533010604883202,1.0010599750225992,5.568924354665796
15,24,female,359,135,135,same,valid,clock,1,1,2,0.48879024297002616,1,j,change,1.1244083543351735,0.3569804873788891,0.5000214881470129,0.03534094633778295,0.3533081162977396,1.0010169987281188,5.27381512111333
15,24,female,360,105,155,change,valid,clock,3,1,2,0.06159368928410913,1,f,same,1.1303695512315244,0.35558789933294366,0.5000413727011619,0.03530374297861272,0.35330779557898495,1.001070558736501,4.908805906866746
15,24,female,361,135,135,same,valid,clock,1,0,2,0.07585059387474757,1,f,same,0.7658016457999111,0.27379554010784757,0.5000327132988787,0.03533870130740979,0.3533100406093581,1.0010564471176622,4.578845785019894
15,24,female,362,15,15,same,valid,anti,1,2,2,0.9247228510089371,1,f,same,0.6727823430292119,0.4667735119071911,0.5000246953331953,0.03533902202616446,0.3532776480292341,1.0010400904684502,5.367664764377878
15,24,female,363,105,155,change,valid,clock,1,1,2,0.08861070468947219,1,j,change,1.0040166799340113,0.3542330564132198,0.5004457988748072,0.03528642417359151,0.35334692325022843,1.0010724830485742,4.849802341117993
15,24,female,364,135,85,change,valid,anti,3,1,2,0.09392533285790705,1,j,change,0.9779047324595922,0.3528305010453301,0.5005676719483745,0.03533966346367379,0.3533017019253748,1.0010782559834297,4.849869371308159
15,24,female,365,165,165,same,valid,anti,1,2,2,0.05873865217381535,1,j,change,0.8808847856862485,0.4658631878045098,0.5004156513250564,0.035330683342181146,0.3532725165314332,1.0010949333513963,4.696614301869431
15,24,female,366,75,75,same,valid,clock,2,2,2,0.01732233311258824,1,f,same,1.3550252437621566,0.4649762652341531,0.5006388714809873,0.03529347998301091,0.35332158647952383,1.0010522777756705,5.13288590948423
15,24,female,367,165,115,change,valid,anti,4,2,2,0.028756913891811564,1,f,same,1.292547012538762,0.4640349408983682,0.5003149456797473,0.03535345436375792,0.3533010604883202,1.0010173194464187,5.097864398886486
15,24,female,368,105,105,same,valid,anti,2,2,2,0.05323512074028258,1,j,change,1.42762920309724,0.46310560693888014,0.4996193070046502,0.03534351208691078,0.3533090784540036,1.0010561263989075,5.2848048651731006
15,24,female,369,135,85,change,catch,anti,4,2,2,0.5335215096347383,1,f,same,0.9500795061439931,0,0.5005535603295357,0.03527551974002563,0.3533591105579035,1.0010259788496114,6.781940847941769
15,24,female,370,105,105,same,valid,clock,1,1,2,0.060099140538113716,1,j,change,2.604051060969141,0.351427240542324,0.5002719693848121,0.035324589688570995,0.35331228563973127,1.0010625407721818,6.42818372558304
15,24,female,371,165,165,same,valid,clock,5,0,1,0.01980084656861436,0,j,change,0.2310751963277653,0.27190687417988496,0.5001398333160978,0.03531079878757737,0.3533241522281969,1.001019243758492,3.9787491845727345
15,24,female,372,75,25,change,valid,anti,2,1,2,0.06458503180601838,1,f,same,1.060144361863422,0.3500040187800405,0.499192430527728,0.03534447424226528,0.3532920803672823,1.0010381661568317,4.731295530016723
15,24,female,373,75,75,same,catch,anti,2,1,1,0.06032396428690845,0,j,change,1.0264445326774876,0,0.5000538807280464,0.03530983663222287,0.35330298480039346,1.0010516363381612,6.344892459841503
15,24,female,374,165,165,same,valid,clock,1,1,2,0.2736242935370683,1,j,change,0.9990259775659069,0.3486127769477375,0.5010256581308568,0.03530662944649521,0.3533138892325951,1.0010586921480353,5.074054248912034
15,24,female,375,15,65,change,catch,clock,3,1,1,0.03677744501419511,0,j,change,1.1452560264633576,0,0.5000099422768471,0.035313364536705194,0.35330587126736646,1.001050353464052,6.4512700136428975
15,24,female,376,165,115,change,valid,anti,3,0,1,0.014986539439632907,0,j,change,0.2761201257990251,0.27362214094451415,0.500419820667048,0.03535153005304892,0.3532670643144229,1.0010625407712723,4.048917927464572
15,24,female,377,45,95,change,catch,clock,1,0,1,0.09036214904517692,0,j,change,0.4541090148231888,0,0.4999567029872196,0.03528802776691009,0.3533270386960794,1.0010545228060437,5.815192953940823
15,24,female,378,165,165,same,valid,anti,2,0,1,0.04679605310866464,0,j,change,0.5679320512717823,0.27528245721950634,0.49991340597443923,0.03531528884832369,0.3533347359425534,1.001044580528287,4.414393145858412
15,24,female,379,15,15,same,catch,clock,4,0,1,0.05064018642769952,0,j,change,0.22246582582829433,0,0.4994041048139479,0.035323627532307,0.3533235107906876,1.0010323932210667,5.520588210768437
15,24,female,380,45,355,change,valid,anti,5,1,1,0.012922073715344595,0,j,change,0.20868358478765003,0.3472940466307786,0.4995574083113752,0.035362755204005225,0.3533174171370774,1.0010391283121862,3.942372317108493
15,24,female,381,45,45,same,catch,anti,5,0,1,0.06395866835100605,0,j,change,0.08382782798435073,0,0.4995926873589269,0.03534960574052093,0.35328726958778134,1.0010413733425594,5.414176981511446
15,24,female,382,135,135,same,valid,anti,4,1,1,0.028131833310908405,0,j,change,0.45848297529391857,0.34964353395341974,0.5008967292469606,0.03533645627794613,0.3532818173716805,1.0010683137070373,4.167088625457836
15,24,female,383,15,15,same,valid,clock,4,0,1,0.004803723414624983,0,j,change,0.07981467595618597,0.2770543784116163,0.500120910917758,0.03532779687520815,0.3532596877876131,1.0010914054464592,3.8482580809868523
15,24,female,384,75,75,same,catch,clock,1,1,1,0.028482378756962135,0,j,change,0.08550133771677793,0,0.5003559976621546,0.035360830891477235,0.3532734786867877,1.0010651065194907,5.356508888075041
15,24,female,385,75,75,same,valid,anti,2,1,1,0.5151430501236973,0,j,change,0.3110819827334126,0.35198676295482634,0.5004528546842266,0.03528193411329994,0.35332671797823423,1.0010186023209826,4.60309275374766
15,24,female,386,135,135,same,catch,clock,1,1,1,0.02120431122784794,0,j,change,0.15482402490306413,0,0.49995349580058246,0.03531721316085168,0.3533074748602303,1.0010673515498638,5.390873887668022
15,24,female,387,165,115,change,valid,anti,1,1,1,0.008676400690092123,0,j,change,0.3153683870232271,0.3541697450168451,0.5002847981295417,0.035310157350977533,0.3533090784530941,1.0010702380177463,4.061333265768553
15,24,female,388,15,15,same,valid,anti,3,0,1,0.05731049218138651,0,j,change,0.47486271639718325,0.27883568020326566,0.49908691410382744,0.035319778909979505,0.3533061919861211,1.001075369516002,4.248162763414257
15,24,female,389,105,155,change,valid,clock,4,0,1,0.03743363530065835,0,j,change,0.2252098942972225,0.28065624569841024,0.4996802435407517,0.03531977890907001,0.35323659604637214,1.001098781975088,3.9662956807542287
15,24,female,390,15,15,same,valid,clock,5,1,1,0.14390451821964234,0,j,change,0.300327325418948,0.35627192965174015,0.49999486850174435,0.0353348526841728,0.3533231900719329,1.0010343175335947,4.119832020418471
15,24,female,391,15,15,same,catch,anti,3,0,1,0.02315748759338021,0,j,change,1.2728465508962472,0,0.4997373314545257,0.03535185077089409,0.3533090784540036,1.001036562563968,6.556736726579402
15,24,female,392,135,85,change,catch,anti,2,0,1,0.03763119796712999,0,j,change,5.354997341242779,0,0.5004118027009099,0.03531945819122484,0.3533427539086915,1.0010452219667059,10.538810159596324
15,24,female,393,105,155,change,valid,clock,3,2,2,0.2364039361154937,1,j,change,1.1977791518784215,0.46218171087878496,0.49996311735867494,0.03533741843330063,0.35333217019433505,1.0010218095076198,5.237908106420036
15,24,female,394,105,155,change,valid,clock,4,1,1,0.015145295154070482,0,j,change,0.20615247347814147,0.3585414378303524,0.4999839640695427,0.035310798788486863,0.3533065127048758,1.0010525984935157,3.9551401251701463
15,24,female,395,45,355,change,valid,anti,5,0,2,0.7442336396625251,1,f,same,1.1720937601630794,0.28241467790175023,0.4990554836795127,0.035329721186826646,0.35327027150106005,1.001085311792849,5.696270491514042
15,24,female,396,135,135,same,catch,clock,2,1,1,0.11085606854157959,0,j,change,0.27715732979959284,0,0.5006937143643881,0.03531977890907001,0.35327123365641455,1.0010817838883668,5.662870213514907
15,24,female,397,165,115,change,catch,anti,1,1,1,0.01838198741643282,0,j,change,0.33005184737066884,0,0.5001359846919513,0.035359868736122735,0.3533042676745026,1.0010497120265427,5.638670069704858
15,24,female,398,75,25,change,valid,anti,5,2,2,0.13269411975215917,1,f,same,0.6852695223024057,0.4612570032293774,0.5004996796023988,0.03534094633778295,0.35328887318064517,1.0010442598104419,4.579882026864652
15,24,female,399,105,105,same,valid,anti,3,2,2,0.21469802097362845,1,j,change,0.7414533299897812,0.4603254432445409,0.4990958942244106,0.03534415352351061,0.3532426897008918,1.001049391307788,4.71929456016278
15,24,female,400,135,135,same,catch,anti,1,1,1,0.04285185558183002,0,j,change,0.4072834556018279,0,0.5000295061117868,0.03530887447686837,0.3532943253976555,1.0010343175335947,5.73271342701355
15,24,female,401,75,125,change,valid,clock,2,1,1,0.05641440437102574,0,j,change,1.4538120293855172,0.3608725536531189,0.5100583772018581,0.03533998418242845,0.35330041905035614,1.0010679929873731,5.23634620676512
15,24,female,402,45,45,same,catch,clock,2,0,1,0.027845110868838674,0,j,change,0.24601587300549,0,0.4998957664502086,0.035288348485664756,0.35331517210761376,1.0010843496374946,5.485235077123434
15,24,female,403,15,15,same,valid,clock,1,1,1,0.5012661970913541,0,j,change,0.49390442200456164,0.3630803956680544,0.500189544701243,0.035288669203509926,0.3532462176053741,1.001135343896749,4.779455920112923
15,24,female,404,15,325,change,valid,anti,2,1,1,0.18220505593671987,0,j,change,0.4951616389744231,0.36517074934643867,0.49967863994788786,0.035322344658197835,0.3533042676745026,1.0010474669961695,4.378545143389601
15,24,female,405,105,155,change,catch,clock,4,0,1,0.00272514607058838,0,j,change,0.37195148938553757,0,0.49940314265768393,0.0353104780697322,0.35333120803716156,1.0010484291524335,5.614316943115227
15,24,female,406,45,45,same,valid,clock,4,0,2,0.423133048834643,1,f,same,0.7601422451198232,0.28053825901467644,0.5006850549616502,0.03531785459836101,0.35333858456669986,1.0010394490309409,4.992025331638615
15,24,female,407,105,105,same,valid,clock,4,2,1,0.008681852907102439,0,j,change,1.6529654605301403,0.45939466663366707,0.4993601663627487,0.0353733389174522,0.3533138892335046,1.0010343175335947,5.355343717346841
15,24,female,408,75,25,change,valid,anti,3,2,2,0.13339488992642146,1,f,same,0.655879830583217,0.4626832311553609,0.49969467587925465,0.03532875903056265,0.3533260765407249,1.0010452219667059,4.4251834029400925
15,24,female,409,105,155,change,valid,clock,5,2,1,1.1311412002187353,0,j,change,0.4649473796962411,0.46180442222864654,0.5005349586499506,0.035293800701765576,0.35333313234968955,1.0010644650828908,5.309873835711187
15,24,female,410,135,185,change,catch,clock,5,1,1,0.29013745358406595,0,j,change,0.3220117524133457,0,0.4997062217489656,0.03535505795662175,0.3533007397691108,1.0010420147800687,5.897769337889258
15,24,female,411,105,105,same,valid,anti,3,1,1,0.07650838775407465,0,j,change,1.2285068816590865,0.3673870207786397,0.5000615779745203,0.03533421124666347,0.3533074748602303,1.0010872361044676,5.120880770289659
15,24,female,412,75,75,same,catch,clock,4,0,1,0.020329711564954778,0,j,change,1.0744375076574215,0,0.49956318124623067,0.035366603827242216,0.3532840624011442,1.0011132143126815,6.297491852143139
15,24,female,413,15,65,change,valid,clock,3,1,2,0.17662583491073747,1,f,same,2.710859339871604,0.3696434526315911,0.5001507377492089,0.03534415352442011,0.35331453067010443,1.0010413733434689,6.6164324030996795
15,24,female,414,135,185,change,valid,clock,3,1,2,0.25486161312437616,1,f,same,0.7875027501622753,0.36836015424702107,0.5001651700868024,0.035332928372554306,0.3532869488690267,1.0010490705890334,4.767797477740714
15,24,female,415,105,105,same,valid,clock,2,0,1,0.06052120623553492,0,j,change,0.2497865617615389,0.2786739879791674,0.4991821675321262,0.035367565982596716,0.3533093991727583,1.001019243758492,4.06016585000998
15,24,female,416,165,115,change,catch,anti,3,0,2,0.055026334204740124,1,f,same,0.9186330459478995,0,0.49984028212929843,0.035312402381350694,0.35328438311989885,1.0010856325116038,6.3218914829321875
15,24,female,417,45,45,same,valid,clock,1,2,2,0.10229640942634433,1,f,same,0.7406438362049812,0.4648315330639063,0.49967479132465087,0.03534383280566544,0.3532981740208925,1.001082425325876,4.55546860517552
15,24,female,418,15,65,change,catch,clock,1,2,1,0.13862709340992296,0,j,change,0.27523814960750315,0,0.4989361763546185,0.035351209334294253,0.35331324779599527,1.0010548435247983,5.66113993658746
15,24,female,419,75,125,change,valid,clock,5,0,1,0.0798435406304634,0,j,change,1.034381676960038,0.2804243054507605,0.5006581145980817,0.03529700788749324,0.3533081162977396,1.0010567678364168,4.862111521560109
15,24,female,420,165,165,same,valid,anti,2,2,2,0.07101191213132552,1,j,change,1.3396060549112008,0.46398095041020593,0.499511545549467,0.0353601894548774,0.35327508227965154,1.0010558056801528,5.108158183552405
15,24,female,421,165,215,change,valid,clock,1,1,1,0.04891087165560748,0,j,change,2.243017153956316,0.3671402837221861,0.49977261050207744,0.0353114402250867,0.35331356851384044,1.0010535606506892,6.003229957171243
15,24,female,422,105,155,change,valid,clock,2,2,2,0.11656582204341248,1,f,same,1.175398765490172,0.46313934728591083,0.5005500324250534,0.03534222921280161,0.353283741683299,1.0010692758623918,4.955806899170057
15,24,female,423,165,215,change,valid,clock,5,1,2,0.27709446895096335,1,j,change,0.928309126561544,0.3693180549484094,0.5006100068058004,0.03529700788749324,0.3533235107915971,1.0010586921480353,4.897775752261623
15,24,female,424,45,45,same,valid,clock,2,1,2,0.5552283869328676,1,f,same,1.858973289912683,0.3680847059942022,0.4997007695328648,0.03535794442450424,0.3533065127039663,1.001050353464052,6.227746457823741
15,24,female,425,165,115,change,valid,anti,1,2,2,0.05184929560527962,1,f,same,5.4999217446584225,0.4623013642462662,0.49968537503900734,0.03527808549006295,0.35335654480786616,1.0010461841220604,9.418892507307646
15,24,female,426,45,45,same,catch,anti,2,1,1,0.07042146916046477,0,j,change,0.2666367970732608,0,0.5001202694802487,0.03534383280566544,0.3532641778474499,1.0010776145463751,5.567662006197679
15,24,female,427,75,125,change,valid,clock,2,0,2,0.09727908741388092,1,j,change,1.057970210372332,0.28212888126655933,0.5008518286413164,0.03530246010450355,0.3533469232497737,1.0010391283130957,4.90995343807117
15,24,female,428,15,15,same,valid,anti,3,1,2,0.09976914674098225,1,f,same,0.8364399207439419,0.3669088848707085,0.49945092973121064,0.03532715543769882,0.35330330551823863,1.001072483049029,4.601605260811084
15,24,female,429,165,165,same,valid,anti,2,1,1,0.029031769744506164,0,j,change,0.29090012244978425,0.36577564390348727,0.49980179589601903,0.03529700788749324,0.3533167757004776,1.0010756902347566,4.025136321447462
15,24,female,430,135,85,change,catch,anti,2,0,1,0.07700261514037265,0,j,change,0.4165695423789657,0,0.5001379090044793,0.035311119506332034,0.3533081162977396,1.001032072502312,5.756824731766756
15,24,female,431,105,105,same,valid,anti,3,0,2,0.10238813495107024,1,f,same,1.2146220106615147,0.2803141489966674,0.5003576012559279,0.035316571722432855,0.35332094504246925,1.0010699172999011,5.074161048210954
15,24,female,432,105,155,change,valid,clock,2,1,2,0.06293012375226681,1,f,same,4.430098415714383,0.3678263781485399,0.49924919772274734,0.035315609567078354,0.3533196621674506,1.0010769731088658,8.09933008295775
15,24,female,433,165,165,same,valid,anti,4,2,1,0.046937169298871595,0,j,change,0.22707294873180217,0.4614618570484771,0.49998268119452405,0.035289310641019256,0.3533392260032997,1.0010532399319345,3.978428465957222
15,24,female,434,135,185,change,valid,clock,5,1,1,0.04829316760333313,0,j,change,0.31947550960558146,0.3666914370975444,0.49932809450183413,0.03530791232151387,0.3533671285231321,1.0010647858016455,4.095221677499467
15,24,female,435,105,105,same,valid,anti,5,1,1,0.04745256411297305,0,j,change,0.274793954325105,0.3687280084407303,0.49977517625120527,0.03534639855388377,0.35326834718944156,1.0010577299917713,4.048286753230968
15,24,female,436,45,95,change,valid,clock,2,2,2,0.1041097524757788,1,j,change,1.2304267032886855,0.46436296824938317,0.5005333550561772,0.0353104780697322,0.35333120803807105,1.0010381661568317,5.061825248123569
15,24,female,437,105,105,same,catch,clock,1,1,1,0.05634224268305843,0,j,change,0.26882024940368865,0,0.5006260427362577,0.03530085651163972,0.35332768013267923,1.001029827471939,5.521872368102777
15,24,female,438,105,105,same,valid,clock,1,0,2,0.05165975090403663,1,j,change,1.405273832760031,0.2785245324534351,0.5000186016795851,0.03533934274491912,0.35330330551823863,1.0010554849613982,5.179908069216253
15,24,female,439,105,105,same,valid,clock,3,1,1,0.0706058823643616,0,j,change,0.11171527371152479,0.37083069501098354,0.499075368233207,0.03532138250193384,0.3532612913795674,1.0010865946669583,3.9181000116095674
15,24,female,440,165,115,change,catch,anti,5,0,1,0.06683775935744052,0,j,change,2.4907597759847704,0,0.5003967289267166,0.035432992581263534,0.3531779045397343,1.001074407359738,7.805867418773232
15,24,female,441,75,125,change,valid,clock,1,0,2,0.009455105487177207,1,j,change,1.2555466680860263,0.2768415389913378,0.5006622839400734,0.035275840458780294,0.3533729014579876,1.0010131501048818,4.9679598896464086
15,24,female,442,105,105,same,catch,anti,4,1,1,0.049002276460669236,0,j,change,0.25465539105607604,0,0.49970974965344794,0.03530310154110339,0.3533129270772406,1.0010612578962537,5.544184762145051
15,24,female,443,75,75,same,valid,clock,5,0,2,0.08160139935989719,1,f,same,0.8400893778634781,0.2752286015128921,0.5005535603295357,0.03532875903056265,0.35324685904197395,1.0010750487972473,4.579108453564913
15,24,female,444,165,165,same,catch,anti,1,2,1,0.04991696594970563,0,j,change,0.2884985814607717,0,0.5004955102604072,0.035319137472470175,0.35330202264412947,1.0010737659231381,5.5448643648906
15,24,female,445,15,325,change,valid,anti,4,1,1,0.12769828588716337,0,j,change,0.25062395806526183,0.3728224287251779,0.49999101987850736,0.035311760943841364,0.35329368396014615,1.0010833874812306,4.119430159993499
15,24,female,446,45,45,same,valid,anti,5,2,2,0.07725983146883664,1,f,same,0.7725819580382449,0.46355615793323196,0.5002568956106188,0.035352171489648754,0.3533036262369933,1.001050353464052,4.496830979365768
15,24,female,447,15,15,same,valid,clock,1,2,2,0.0529394181785392,1,f,same,0.589088575425194,0.4627546812284933,0.499495188900255,0.03534575711728394,0.353285665994008,1.0010760109535113,4.284247135502483
15,24,female,448,15,65,change,valid,clock,2,2,2,0.04998592045285477,1,f,same,0.7633529591739716,0.46195375521710114,0.4998986529180911,0.035368848857615376,0.35328438311989885,1.0010256581308568,4.4849243007856785
15,24,female,449,135,85,change,valid,anti,2,1,1,0.0676943987773484,0,j,change,0.26755597662395303,0.3747053518198023,0.49943008302125236,0.03536564167097822,0.3532651400037139,1.0010795388579936,4.013437147810691
15,24,female,450,45,355,change,catch,anti,3,2,1,0.0717550171611947,0,j,change,0.26270157966700936,0,0.49961193047602137,0.0353226653769525,0.3533164549817229,1.00105901286679,5.543752754170782
15,24,female,451,165,215,change,valid,clock,5,2,1,0.06970690808611835,0,j,change,0.2222634523814122,0.46114874959481217,0.510028229652562,0.03533453196541814,0.35331228563973127,1.0010522777756705,4.000150737748299
15,24,female,452,135,135,same,valid,clock,3,2,2,0.08398530082467914,1,j,change,1.0125298348493743,0.4639387263943974,0.4998239254800865,0.0353470399913931,0.3533203036049599,1.0010635029266268,4.77863135255302
15,24,female,453,165,115,change,valid,anti,2,2,2,0.08294681394909276,1,j,change,1.2504475628265936,0.46317005099437175,0.4998030787701282,0.03533389052790881,0.35329272180388216,1.0010567678364168,5.002170623586608
15,24,female,454,45,45,same,valid,anti,2,1,1,0.03897757471349905,0,j,change,0.22042188609520963,0.3765418056671872,0.5007042980778351,0.035322986095707165,0.3532686679081962,1.0010779352651298,3.96684827892841
15,24,female,455,105,155,change,valid,clock,1,0,1,1.3656750260906847,0,j,change,0.4900981334822063,0.2736530539043969,0.5002264273416586,0.03533838058956462,0.35330009833251097,1.0010352796889492,5.544644993357906
15,24,female,456,15,325,change,valid,anti,2,0,1,0.07749684252485167,0,j,change,0.43917699754820205,0.27510214577617187,0.5003810137141045,0.03533324909130897,0.3533065127048758,1.0010262995674566,4.249864496384362
15,24,female,457,75,25,change,valid,anti,1,0,1,0.047965393178856175,0,j,change,0.4166753795225304,0.27664903919439776,0.4998406028480531,0.035311760943841364,0.3533071541423851,1.0010554849623077,4.189842007595871
15,24,female,458,165,165,same,valid,anti,3,1,1,0.14790516222274164,0,j,change,0.04439611571251589,0.3785414688382499,0.5000830661210784,0.03530662944558571,0.35328438312080834,1.0010785767026391,3.9075047514461403
15,24,female,459,135,85,change,valid,anti,4,2,2,0.09942373279318417,1,j,change,1.154195095698924,0.46240369948266913,0.5001985248227356,0.035331645497535646,0.35328919389939983,1.0010670308320186,4.932758776624723
15,24,female,460,45,45,same,valid,anti,1,0,1,0.006294423537838156,0,j,change,0.3281397229893628,0.27820078725553443,0.49983162272746995,0.03529347998301091,0.3533328116318444,1.0010586921480353,4.048856349490961
15,24,female,461,15,15,same,valid,anti,1,0,2,0.024494242779837805,1,j,change,1.462092342586402,0.279785142935385,0.49992270681377704,0.03532426896981633,0.35327412012429704,1.0010564471176622,5.179728787509703
15,24,female,462,165,165,same,valid,clock,4,0,2,0.026612909950927133,1,f,same,0.930308165688075,0.27813972161465145,0.4998078895496292,0.03534319136815611,0.3532584049125944,1.001102630598325,4.6017909568899995
15,24,female,463,135,185,change,valid,clock,2,1,2,0.6692291014942384,1,j,change,0.9582565479513505,0.3806123831843833,0.500669339749038,0.03529347998301091,0.3533373016916812,1.0010439390916872,5.36889632385919
15,24,female,464,75,125,change,catch,clock,5,2,1,0.08031371412016597,0,j,change,0.1745187136102686,0,0.49987395758398634,0.03534736071014777,0.3532962497083645,1.0010452219657964,5.508863379642207
15,24,female,465,165,165,same,valid,clock,5,1,2,0.04414531375550723,1,j,change,0.9244694833032554,0.379419144155258,0.5006648496892012,0.03532747615554399,0.35322986095616216,1.0011144971867907,4.791031937800653
15,24,female,466,105,55,change,valid,anti,3,2,2,0.06089452270316542,1,j,change,1.058363732113321,0.46163536203521444,0.50054169374107,0.03530342225985805,0.35330971989060345,1.0010275824415658,4.920726697066129
15,24,female,467,45,355,change,catch,anti,2,2,2,0.10846286623655033,1,j,change,2.719424771920785,0,0.4997033352810831,0.03531977890907001,0.3533026640816388,1.0010602957408992,8.147274950144492
15,24,female,468,75,125,change,valid,clock,5,1,2,0.14474319739747443,1,j,change,1.0366106713345289,0.3782826174412365,0.49937652301287017,0.03533966346276429,0.35331998288620525,1.0010343175335947,4.943288610191303
15,24,female,469,45,95,change,valid,clock,2,1,2,0.0075195686467850464,1,j,change,0.9257696765680521,0.37719968971448725,0.49955099393901037,0.035329721186826646,0.35326289497243124,1.0010859532303584,4.696110452925495
15,24,female,470,75,125,change,valid,clock,4,2,2,0.4493331939274867,1,j,change,0.7968831282123574,0.4608608335480326,0.5000032071866372,0.03536564167097822,0.3532321059856258,1.0010583714292807,4.979659704720689
15,24,female,471,135,185,change,catch,clock,3,0,2,0.01721457165785978,1,j,change,0.8901519500650465,0,0.4996330979047343,0.03537462179247086,0.3532462176044646,1.0010875568232223,6.179689659839823
15,24,female,472,105,55,change,catch,anti,4,2,1,0.8332532605854794,0,j,change,0.20735228181638377,0,0.5009672873429736,0.035330041904671816,0.3532924010851275,1.0010641443641362,6.334163780733434
15,24,female,473,45,95,change,valid,clock,3,2,2,0.09430955375864869,1,j,change,0.754812863895495,0.4600759655496767,0.5002485569266355,0.035311760943841364,0.3533337737862894,1.001070558736501,4.555440702656597
15,24,female,474,165,165,same,valid,clock,3,0,1,0.5651886242394539,0,j,change,0.013852799136657268,0.2765839839875645,0.49961577909925836,0.03536339664060506,0.35330106048786547,1.0010211680701104,4.213149591500951
15,24,female,475,135,85,change,valid,anti,5,2,2,0.14832466217103502,1,j,change,0.881278307426328,0.4592968434851627,0.49974534941975435,0.03529668716873857,0.3533177378558321,1.0010686344248825,4.755136148259226
15,24,female,476,135,185,change,valid,clock,5,2,1,0.05646571934903477,0,j,change,0.39753232683324313,0.45855021768057014,0.5000984606140264,0.03531657172334235,0.3533231900728424,1.0010740866418928,4.213660175535551
15,24,female,477,15,325,change,valid,anti,2,2,2,0.5488579530847346,1,f,same,1.5163338783413565,0.46134207267366245,0.5004538168404906,0.03532042034657934,0.353296249709274,1.001061899333763,5.733937609966233
15,24,female,478,135,85,change,valid,anti,3,0,2,0.1594298649324628,1,j,change,0.9570827178213221,0.2780807713955455,0.4997437458268905,0.03531336453761469,0.35326193281798624,1.0010445805291965,4.896819048633006
15,24,female,479,75,75,same,valid,anti,5,2,2,0.17284135525369493,1,f,same,0.9424387058616048,0.46059461543444424,0.4998957664502086,0.035350567896784924,0.35329272180388216,1.001078255982975,4.76684366057998
15,24,female,480,165,165,same,valid,anti,3,2,2,0.4018636317277924,1,j,change,0.8672651489841883,0.45983624502648285,0.500549390987544,0.03529668716873857,0.3533315287568257,1.001081463169612,5.08587882352731
