subject,age,gender,ntrial,memory_ori,test_ori,type,trial_type,which_change,trial,quest,pas,pas_rt,vis,test_key,test,test_rt,contrast,fix_dur,target_dur,mask_dur,retention_dur,trial_dur
16,22,female,1,135,135,same,valid,anti,5,2,1,0.8840839028243863,0,j,change,14.933482104485392,0.2,0.4996667722903112,0.035351322711903777,0.35327429098515495,1.001044904598757,19.511830385492203
16,22,female,2,15,15,same,valid,clock,5,2,1,7.548608589898549,0,j,change,4.339162947387877,0.3670372117912738,0.49980083310128975,0.03529519677431381,0.3533361898764724,1.0010628648985858,15.566542270207492
16,22,female,3,75,75,same,valid,anti,2,2,1,2.6036197060411723,0,j,change,4.855646974908041,0.4895303947352734,0.5003502258507524,0.035271784240421766,0.35332945476375244,1.001095578302511,11.150921684111609
16,22,female,4,165,165,same,valid,clock,1,2,1,1.9743728968808227,0,f,same,3.77509984002495,0.5890718826496524,0.4996167400258855,0.03533400385117602,0.3532511991706997,1.0010792216005484,9.383404297899688
16,22,female,5,15,325,change,catch,anti,2,0,2,2.6417667418861583,1,j,change,2.095315953749605,0,0.4999432326230817,0.03533464529050434,0.3532964206406177,1.0010554883467648,9.92557604455169
16,22,female,6,135,135,same,catch,clock,5,0,2,4.8795049884734,1,j,change,2.907155832543367,0,0.5004490075009471,0.03540199641565778,0.3532130335331658,1.001072165768619,13.047315127575985
16,22,female,7,135,135,same,valid,anti,1,1,2,3.477337308546339,1,j,change,5.048946628402518,0.2,0.4995651041633664,0.035352284870896256,0.35330026927636027,1.0010750522451417,12.221672758201748
16,22,female,8,135,185,change,valid,clock,2,0,3,2.7521616503977384,1,j,change,3.4284079990045484,0.2,0.4997860799976479,0.03529455533521286,0.3533118151835879,1.0010772972825634,9.831361762777988
16,22,female,9,45,45,same,catch,anti,4,1,2,1.9695919291541486,1,j,change,1.6842845450335062,0,0.49959589324930676,0.03532470298137014,0.35332079533350225,1.001083390955955,8.853491738903585
16,22,female,10,45,45,same,valid,anti,1,2,2,2.477038077119005,1,j,change,6.291439543705792,0.6758845662617424,0.5002386154149008,0.035335928168933606,0.3532864783317109,1.0010724864880558,12.458030627443122
16,22,female,11,105,105,same,valid,anti,2,0,2,2.1549451120401955,1,j,change,1.6357901313283492,0.0723357464867447,0.5000397692358547,0.03534426687974701,0.35327461170459173,1.0011042377329886,7.475748142712746
16,22,female,12,105,105,same,catch,anti,5,1,2,2.8652669606167365,1,j,change,2.403165118018478,0,0.49970076857266577,0.035317326429776585,0.353282629695741,1.001095578302511,10.479183691534445
16,22,female,13,75,75,same,catch,anti,2,1,2,1.4375648655479836,1,j,change,5.6036097637322655,0,0.500063823209075,0.03534779479605277,0.3533159845387672,1.0010712036096265,12.281201851963488
16,22,female,14,105,105,same,catch,anti,5,1,2,2.748531424752173,1,f,same,3.145665089153681,0,0.5003094944559052,0.03535196415145947,0.35329545848162525,1.0010407352433504,11.092112285230314
16,22,female,15,165,215,change,valid,clock,3,1,2,2.460701580634577,1,j,change,5.024692526077615,0.09338226537841544,0.49983386722465184,0.035321495784955914,0.3533163052584314,1.0010583748237423,11.20984333486831
16,22,female,16,15,65,change,catch,clock,5,2,2,9.970454664995486,1,j,change,1.4413297934436287,0,0.49894066301726525,0.035318288588769065,0.3533044386315396,1.0010628648988131,16.625551477427052
16,22,female,17,165,115,change,valid,anti,1,1,1,5.513645979394369,0,j,change,1.581860481823469,0.020575447070561637,0.5000914050983738,0.03534522903873949,0.35329577920106203,1.0010676756935482,10.785558186882099
16,22,female,18,15,15,same,valid,clock,3,0,2,2.307229533917507,1,j,change,2.973544798761395,0,0.4994749819434219,0.03533945608523936,0.35326851803142745,1.0010561297863205,10.502316237265859
16,22,female,19,165,165,same,valid,anti,3,2,3,2.464861635131456,1,f,same,3.1947643801065624,0.651215509254541,0.5000493908250974,0.03532438226170598,0.35329898639770363,1.0010651099362349,9.28989335430424
16,22,female,20,165,215,change,valid,clock,5,1,2,1.6569611557197277,1,f,same,3.3536075186946164,0.10418102663402222,0.4993781246112121,0.03532887233677684,0.3532832711350693,1.0010275857380293,8.641233064399103
16,22,female,21,75,25,change,catch,anti,5,2,2,1.0216896280549008,1,f,same,1.8546854574167355,0,0.49980820965333805,0.03533240025285522,0.35330315575311033,1.0010471496361788,8.04142992211655
16,22,female,22,135,135,same,valid,clock,1,2,3,1.2898705832094493,1,f,same,1.7818320660630889,0.6317484313352508,0.5000519565824106,0.03531572283168316,0.35328968552789775,1.0010798630398767,6.722014645341687
16,22,female,23,165,165,same,valid,anti,3,1,3,2.0364478631734073,1,f,same,1.4828222558908237,0.06737796641710639,0.5000968573324371,0.03531796786887753,0.35333009620308076,1.001029830775451,7.170495524678017
16,22,female,24,15,65,change,catch,clock,1,2,3,3.1893711585805704,1,f,same,1.6506288670771028,0,0.4989733764209632,0.035297441811962926,0.35331053230493126,1.0010529225899063,10.066303975512255
16,22,female,25,45,45,same,catch,clock,2,0,3,1.423545889207844,1,f,same,1.458558531976223,0,0.5000243746928845,0.03533111737442596,0.3533252854085731,1.0010667135343283,8.053093533393849
16,22,female,26,165,165,same,valid,anti,5,0,2,1.9579549376071554,1,j,change,3.578052898215219,0,0.5001696606916539,0.03533496600994113,0.3532797432189909,1.0010744108058134,10.773965775365468
16,22,female,27,15,15,same,valid,anti,4,1,2,2.3147151303983264,1,f,same,1.5184785829835619,0.039060975609891524,0.4994634360364216,0.035326306579690936,0.3533147016601106,1.001067354973884,7.511281313462405
16,22,female,28,105,105,same,valid,clock,4,0,2,48.169057417796466,1,j,change,2.8402941255706082,0,0.49905900856583685,0.0353529263099972,0.3532896855281251,1.0010439424397646,56.19798472604748
16,22,female,29,135,85,change,valid,anti,4,0,2,3.0610367968060928,1,f,same,4.128163418204167,0,0.4992658727360322,0.03536671725487395,0.3533118151835879,1.0010612613007197,12.398438031191972
16,22,female,30,15,325,change,valid,anti,3,1,3,2.3107705995021206,1,j,change,1.246943541797009,0.01510567478165531,0.49975849810834916,0.035333041692410916,0.3533390763529951,1.0010506775522572,7.275709207347745
16,22,female,31,135,135,same,valid,clock,2,1,2,2.2508011576696845,1,j,change,2.5294115949131992,0,0.4993688237416336,0.03535196415145947,0.35329706207971867,1.0010718450487275,9.984314243672543
16,22,female,32,75,25,change,valid,anti,1,1,2,2.437283273700814,1,j,change,2.681534053370342,0,0.49934925984325673,0.035328551617340054,0.3533147016601106,1.0010516397112497,10.313461116591725
16,22,female,33,45,95,change,valid,clock,2,2,3,2.3488717724378603,1,j,change,1.0675595929169504,0.6158166353143579,0.5000705583215677,0.03538339467627338,0.35325568924577055,1.0010490739541638,7.0635897251688675
16,22,female,34,135,185,change,valid,clock,1,0,4,3.1588489115417815,1,f,same,1.6947454576477412,0,0.4998534311230287,0.03533015521543348,0.35330058999579705,1.0010554883469922,10.043304849152719
16,22,female,35,15,325,change,catch,anti,1,1,2,1.796593187658118,1,j,change,3.734244968229632,0,0.4995955725296426,0.035336569608261925,0.35327493242448327,1.0010583748237423,10.72640465582299
16,22,female,36,165,215,change,valid,clock,2,1,2,1.0885465242329246,1,j,change,1.7368315721548697,0,0.500139833764706,0.03532534442069846,0.35332496468890895,1.0010497153932647,8.04113742580148
16,22,female,37,165,165,same,valid,clock,3,1,3,1.0002123164040313,1,f,same,1.6757950960684411,0,0.5000359206001121,0.03528108511022765,0.353333303399495,1.0010676756933208,7.8884078450591915
16,22,female,38,135,135,same,catch,anti,5,1,2,3.0046982220585505,1,j,change,1.5731304931257455,0,0.49937940748986875,0.03532887233677684,0.3533201538941739,1.0010471496361788,9.795347512562557
16,22,female,39,105,155,change,catch,clock,5,2,2,2.3850964147391096,1,f,same,2.9844710755783126,0,0.49993585607148816,0.03535485062798216,0.35328776121014016,1.0010590162628432,10.561562456302
16,22,female,40,105,155,change,valid,clock,3,1,2,1.8874707022605435,1,f,same,2.8986721565315747,0,0.49995798572672356,0.035337531767254404,0.3532839125743976,1.0010689585719774,9.98467505327153
16,22,female,41,15,15,same,valid,clock,3,2,2,1.779577086249219,1,j,change,1.4648613144115643,0.6028174524896298,0.5000708790412318,0.0353619064603663,0.35330155215478953,1.0010622234594848,6.957982519496454
16,22,female,42,15,15,same,valid,clock,2,2,2,0.7845421470510701,1,f,same,1.6538540238127553,0.5908073393410027,0.4994063479398392,0.035337211047590245,0.3532672351529982,1.001067996412985,6.156097136999961
16,22,female,43,135,135,same,catch,clock,2,2,3,2.3986307836976266,1,j,change,1.6383934126752138,0,0.4997944187084613,0.03532983449576932,0.35333105836207324,1.0010509982719213,9.207313177600327
16,22,female,44,45,95,change,valid,clock,2,1,3,0.8608429538535347,1,j,change,1.1016697306083643,0,0.5002168064791022,0.03532406154226919,0.3533163052584314,1.0010526018702421,7.170108095348496
16,22,female,45,75,75,same,valid,anti,4,1,2,1.7829917882943391,1,j,change,1.3314085878457718,0,0.500043938591034,0.03531027059761982,0.3532967413600545,1.0010837116756193,8.335991030113064
16,22,female,46,105,105,same,valid,anti,4,2,2,1.4344131536106488,1,j,change,1.1740507019269444,0.5801885117037224,0.4998909553212343,0.03534426687974701,0.3533037971922113,1.0010221335041933,6.3446575163213765
16,22,female,47,75,75,same,valid,anti,5,1,2,4.172026640256263,1,j,change,1.249337713936029,0,0.500081462789467,0.03532149578518329,0.3533297754834166,1.001068317132649,10.668258825883868
16,22,female,48,15,325,change,valid,anti,2,0,2,0.5805724717349676,1,f,same,2.425326524669117,0,0.4993883876397831,0.03530449764411969,0.35332400252991647,1.001067996412985,8.240597782929171
16,22,female,49,45,355,change,catch,anti,2,1,3,2.766079920769471,1,f,same,1.6743999656189317,0,0.49976619537983424,0.035327268738683415,0.3533371520352375,1.0010468289165146,9.607267891986794
16,22,female,50,75,75,same,catch,clock,2,1,3,1.6646548992491716,1,j,change,1.4178540776936188,0,0.5000856321448737,0.03531957146719833,0.3532858368921552,1.0010808251988692,8.265593068350654
16,22,female,51,45,45,same,catch,anti,1,0,2,0.948091204969387,1,j,change,1.5112399406284567,0,0.5055737866855452,0.035312194915377404,0.35329321344397613,1.0011023134150037,7.693564888639685
16,22,female,52,105,55,change,valid,anti,3,0,2,3.336345104599559,1,j,change,1.0219150939644805,0,0.49977966560481946,0.03536062358170966,0.35327236666739736,1.0010705621700708,9.654545816083782
16,22,female,53,135,135,same,catch,clock,3,0,2,1.1415890632035826,1,f,same,2.542336596548921,0,0.4996193057831988,0.03533881464568367,0.3533012314351254,1.0010564505059847,8.936317586854102
16,22,female,54,75,25,change,valid,anti,1,2,4,3.33779571954733,1,j,change,1.8748131808076778,0.5705452940183726,0.4994239875202311,0.03535100199223962,0.35331245662268884,1.0010096254379732,8.865500123797801
16,22,female,55,45,45,same,valid,clock,1,0,3,2.7845331669011557,1,j,change,1.9680345145650335,0,0.49912251105524774,0.03532951377610516,0.353312777342353,1.001037207327272,9.901202955239114
16,22,female,56,135,135,same,valid,clock,3,1,3,0.7209854560055646,1,f,same,2.182839382319571,0,0.49962475801703476,0.035328872337004213,0.35331502237977475,1.0010651099362349,8.041322481035877
16,22,female,57,15,15,same,catch,clock,1,0,4,2.1290277576435983,1,f,same,1.8610222361344313,0,0.4993021140555811,0.03533111737442596,0.3533207953332749,1.0010686378523133,9.136425797661786
16,22,female,58,75,75,same,valid,clock,2,2,2,0.6974693295805992,1,j,change,2.6947890755193384,0.5615973628369287,0.49922642421984165,0.03531540211179163,0.3533050800708679,1.0010926918255336,7.039444988242394
16,22,female,59,15,325,change,valid,anti,1,1,2,1.0653552868068346,1,j,change,1.7008240570521593,0,0.49963149312952737,0.035520021244565214,0.3530841042365864,1.0010930125451978,7.982302690068082
16,22,female,60,75,75,same,valid,clock,2,0,3,1.0327887727598863,1,j,change,1.2442552697443716,0,0.4998951246764136,0.03531059131728398,0.3533307376424091,1.001059657702399,7.510805044791823
16,22,female,61,165,165,same,valid,clock,1,1,3,0.6992618316683092,1,j,change,1.2329922373019144,0,0.5000885186216237,0.035296479652743074,0.35332400252991647,1.0010673549736566,7.205353580578276
16,22,female,62,105,155,change,valid,clock,4,2,3,0.7084696926351626,1,j,change,2.021546587094008,0.5531471813108855,0.4995137890202841,0.03535805782439638,0.3533121359030247,1.0010490739541638,6.462357776873887
16,22,female,63,45,95,change,valid,clock,2,0,2,2.647125967130023,1,j,change,1.6705118813797526,0,0.499823924915745,0.03528365086708618,0.3533297754834166,1.0010631856184773,9.537202195774853
16,22,female,64,135,185,change,valid,clock,4,0,3,0.4529497868497856,1,f,same,1.2032182291914069,0,0.499250478193062,0.03532245794417577,0.3533002692761329,1.0010869188720335,6.921304379619187
16,22,female,65,165,165,same,valid,clock,2,0,2,0.589260446159642,1,f,same,1.2167670305339016,0,0.5006654932603851,0.03520411239560417,0.35333105836184586,1.0010602991417272,7.040827931345575
16,22,female,66,75,125,change,valid,clock,2,1,2,0.39246879718598393,1,j,change,1.0962672082125664,0,0.49955997264896723,0.035336248888597765,0.3532829504156325,1.00106992073097,6.733229890557823
16,22,female,67,165,115,change,valid,anti,2,1,2,0.6913589789312482,1,j,change,2.037400721234235,0,0.4999037841068912,0.03531443995302652,0.35330732510828966,1.0010686378523133,7.994245327435465
16,22,female,68,105,105,same,catch,anti,1,1,2,0.6891004712013,1,j,change,1.3070143310364983,0,0.49955131321871704,0.03537922532086668,0.35328134681708434,1.0010224542236301,7.216401730859843
16,22,female,69,75,75,same,valid,clock,3,2,2,2.4765919560948078,1,f,same,3.111213385041765,0.5450533531401929,0.49996247580156705,0.03533432457084018,0.35330283503344617,1.0010647892165707,9.348646947967836
16,22,female,70,105,55,change,valid,anti,5,0,2,0.6460303888275121,1,j,change,2.333544580671969,0,0.5000455421895822,0.035345229038512116,0.35330379719243865,1.001027585737802,8.276878871887902
16,22,female,71,15,325,change,valid,anti,5,0,2,3.450583517319501,1,f,same,2.212875418378644,0,0.49970397576908,0.03534073896366863,0.3532890440885694,1.0010397730845852,10.891476811328403
16,22,female,72,135,85,change,valid,anti,4,2,2,0.4668632464270104,1,j,change,0.5888829591390277,0.5378096391203764,0.49974919723877065,0.035351964151232096,0.35327076306907657,1.0010926918255336,4.766730981645878
16,22,female,73,135,85,change,valid,anti,1,1,2,0.2804590652690422,1,j,change,1.1747389662821206,0,0.49977068545467773,0.03530064900837715,0.35333009620308076,1.0010667135343283,6.710136793342372
16,22,female,74,15,325,change,valid,anti,4,0,2,0.5324962764450447,1,f,same,0.8427232561512028,0,0.49963919040101246,0.03533849392624688,0.3533095701459388,1.0010404145236862,6.745217107955568
16,22,female,75,105,155,change,valid,clock,2,2,2,0.5044070086223655,1,f,same,2.4968229512107882,0.5307163222932725,0.5000230918144553,0.035291989577899585,0.35332945476375244,1.0010692792916416,6.769410914987475
16,22,female,76,15,15,same,valid,clock,1,1,2,0.22765802818980774,1,f,same,1.5448000441310796,0,0.4995651041633664,0.03532855161711268,0.3532617829191622,1.001083711675392,7.063292738779182
16,22,female,77,45,95,change,valid,clock,3,0,2,0.5494514411216187,1,j,change,1.2261599467349242,0,0.4997116730405651,0.03535645422630296,0.35329128912599117,1.0010696000113057,7.0163416279985995
16,22,female,78,105,105,same,valid,anti,1,2,2,0.2932288385970878,1,j,change,0.7917060617296556,0.5236444878529937,0.5001084032394374,0.035318930028097384,0.3533089287063831,1.0010426595613353,4.8616393007287115
16,22,female,79,75,25,change,valid,anti,2,2,2,1.1039773084437456,1,j,change,1.024495604216554,0.5165761057017968,0.4993303373842082,0.03537890460120252,0.3532297109547926,1.0010663928148915,5.874037359989643
16,22,female,80,135,135,same,valid,anti,4,0,2,0.6207300990254225,1,j,change,3.7892615366063183,0,0.49911288946600507,0.03534651191739613,0.3533413213906442,1.001057733384414,9.70132790761204
16,22,female,81,135,135,same,catch,clock,4,1,2,0.3683756961220297,1,j,change,1.3905557045118258,0,0.49983964017837934,0.03534330472075453,0.35329449632263277,1.0010744108060408,7.028795171758247
16,22,female,82,105,55,change,catch,anti,1,0,1,2.6779166565106607,0,f,same,6.943432752146691,0,0.4993877462004548,0.03529519677431381,0.35333426555848746,1.0010670342539925,14.894800749714022
16,22,female,83,75,75,same,valid,anti,5,2,1,2.73569879037359,0,f,same,4.458023250891074,0.5100518368031537,0.5002209758342815,0.035342021842325266,0.3533060422298604,1.0010545261879997,10.962758676428393
16,22,female,84,165,165,same,valid,clock,2,1,4,2.484393461424588,1,f,same,2.2243225438969603,0,0.49914015063563966,0.03532919305666837,0.35330251431355464,1.0010641477774698,9.995427500041615
16,22,female,85,15,15,same,catch,clock,4,2,4,2.0944153729906247,1,f,same,2.861533783965797,0,0.5001209113056575,0.035354529908318,0.3532832711350693,1.0010436217203278,10.219843052635042
16,22,female,86,165,165,same,valid,clock,2,2,4,1.6033794870281781,1,f,same,1.8506559358149843,0.5319532480236079,0.5003758834222936,0.0353080255599707,0.3533118151833605,1.001064468497134,7.240636590006034
16,22,female,87,165,215,change,valid,clock,4,0,4,0.891088419839889,1,f,same,2.4514712692930516,0,0.4998056438960248,0.0353561335066388,0.3532505577313714,1.0010840323952834,8.606349992366859
16,22,female,88,135,135,same,valid,clock,4,2,1,1.810104144082743,0,j,change,1.6920831638865366,0.5267320775799115,0.49968826050644566,0.035336248888597765,0.3532957792012894,1.0010397730843579,7.311290486044072
16,22,female,89,45,95,change,valid,clock,4,2,2,3.5544129740076187,1,j,change,2.2388697454896374,0.5441453244694268,0.4996683758884046,0.035344266879974384,0.35327332882616247,1.0010705621700708,9.595918906679572
16,22,female,90,15,15,same,valid,anti,4,2,2,0.9940740631457174,1,f,same,2.1738749475623536,0.5396835226706445,0.4993620886289136,0.035325665140362617,0.35331406022100964,1.0010538847486714,7.016359267578991
16,22,female,91,165,165,same,valid,anti,5,2,3,1.0041590923374315,1,f,same,1.3094877209275637,0.5355265271729241,0.49994804341781673,0.035291668858235425,0.35331566381910307,1.0010679964132123,6.109899717381722
16,22,female,92,15,15,same,valid,anti,2,0,1,1.8697442068410055,0,j,change,1.5751080504478523,0,0.4998579211978722,0.035357095665403904,0.3533297754834166,1.0010359244488427,8.724734668638575
16,22,female,93,45,95,change,valid,clock,3,2,2,2.944627753538498,1,j,change,1.1619608542428068,0.531664944556008,0.49963534176504254,0.035337852486918564,0.3532993071171404,1.0010416974023428,7.89982514365056
16,22,female,94,165,165,same,valid,anti,4,2,1,1.4475600932396446,0,j,change,1.320536512648232,0.527687810155886,0.4994438721378174,0.03533656960871667,0.35331117374380483,1.0010554883469922,6.510280026735018
16,22,female,95,165,165,same,valid,anti,5,1,2,2.329882283062034,1,f,same,1.7333719693597232,0,0.4989400215781643,0.03530642196210465,0.35334003851221496,1.0010580541043055,9.34729222819351
16,22,female,96,105,105,same,catch,clock,2,1,3,1.524581236360973,1,j,change,1.1889471672116088,0,0.5004820416243092,0.03531604355111995,0.35333266196039403,1.0010288686162312,7.970935744460803
16,22,female,97,165,115,change,valid,anti,2,0,1,1.4093450648301769,0,j,change,1.366806735625687,0,0.5002912134364124,0.03531315707414251,0.3533108530245954,1.0010590162628432,8.041785920920574
16,22,female,98,105,105,same,valid,anti,1,1,1,2.304390202913055,0,j,change,2.320452484101679,0,0.49936273006824194,0.03535549206753785,0.35328391257417024,1.0010930125454252,9.995364959711424
16,22,female,99,15,15,same,valid,anti,1,2,3,1.2038660828716274,1,f,same,1.940467378321955,0.5411778931527237,0.4999368182297985,0.03532181650507482,0.3532858368921552,1.001077618002455,6.946237124710024
16,22,female,100,105,155,change,valid,clock,5,1,1,0.8435689938510222,0,j,change,1.0874634539964063,0,0.4992729285677342,0.03533849392624688,0.35330989086560294,1.0010583748239696,7.228243020820173
16,22,female,101,75,75,same,valid,clock,3,1,3,2.2963308389898884,1,j,change,1.4687137987702954,0,0.5096264001017516,0.03538371539571017,0.35327268738683415,1.0010413766826787,9.122782384024504
16,22,female,102,15,65,change,valid,clock,1,0,1,4.186312776059367,0,j,change,1.3518512579266826,0,0.49943649558599645,0.03532726873891079,0.3532765360223493,1.0010468289165146,10.76131819622151
16,22,female,103,75,25,change,valid,anti,5,1,1,0.5682061637185143,0,j,change,0.8624189701822615,0,0.5000073765518209,0.03533656960871667,0.3532742909847002,1.0010875603115892,6.686696356753146
16,22,female,104,105,105,same,catch,anti,2,1,2,1.1802460432818407,1,j,change,1.1404335103279664,0,0.5000731240784262,0.03528461302630603,0.35334132139041685,1.001068317132649,7.58252084356991
16,22,female,105,75,75,same,valid,anti,4,0,1,0.4723206118815142,0,j,change,1.2465679790939248,0,0.4998309807479018,0.035315402112246375,0.35333362411893177,1.0010574126649772,6.969970378333983
16,22,female,106,105,155,change,valid,clock,1,0,1,0.32282035723028457,0,j,change,1.468761585997072,0,0.4989813944116577,0.03531155347627646,0.35331245662246147,1.0010628648988131,7.016185116812721
16,22,female,107,135,85,change,valid,anti,5,1,1,0.3680937835556506,0,j,change,1.001420467301159,0,0.4990994192407925,0.03531604355111995,0.35329128912599117,1.0010484325148354,6.603288723369133
16,22,female,108,45,95,change,valid,clock,5,1,1,0.3130303901107254,0,j,change,0.5312736931632571,0,0.4997726097726627,0.03535934070305302,0.3533281718850958,1.0010526018700148,6.051144840839697
16,22,female,109,15,15,same,catch,anti,5,1,4,1.1041258016389293,1,f,same,2.6759397406272,0,0.4991247560924421,0.035336569608261925,0.35331053230493126,1.0010660720954547,9.136288850374058
16,22,female,110,105,55,change,valid,anti,2,0,1,0.9794656041008238,0,j,change,1.111825318121646,0,0.49925015747339785,0.03533143809409012,0.35331373950157285,1.0010628648988131,7.298466190376985
16,22,female,111,105,55,change,valid,anti,1,2,1,0.2748849578638328,0,j,change,1.6391544803896068,0.5376741764822521,0.49975272515484903,0.035368962292523065,0.3532653108350132,1.0009852507450887,5.591263340333626
16,22,female,112,165,115,change,valid,anti,5,2,4,6.7140668918546,1,j,change,1.3249759139548587,0.5496707355406574,0.49966420653345267,0.03534298400109037,0.3532630657973641,1.0010705621702982,11.751374604392367
16,22,female,113,45,355,change,valid,anti,3,0,3,0.8456434085060209,1,f,same,1.7403931637968526,0,0.4990660643979936,0.0352996868491573,0.35330475935143113,1.0010769765631267,7.91133096086287
16,22,female,114,135,135,same,catch,clock,4,2,3,0.9844569639139991,1,j,change,0.4766153686286998,0,0.49903559603171743,0.035341059683105414,0.3533108530245954,1.0010622234594848,6.698198646050059
16,22,female,115,75,75,same,valid,anti,1,2,1,0.32281618787510524,0,j,change,1.4009165525976641,0.5465525025143299,0.4996093634740646,0.035340738963896,0.3532893648080062,1.0010535640290072,5.402691094384863
16,22,female,116,135,85,change,valid,anti,2,0,3,0.7933317896026892,1,j,change,1.6839695983435377,0,0.4996638858137885,0.03533400385094865,0.35329866567826684,1.0010606198616188,7.711224353653506
16,22,female,117,165,165,same,valid,clock,4,2,2,2.7078763612944385,1,j,change,1.1641763855409408,0.5575567478813402,0.49944355141860797,0.03532887233677684,0.3532867990511477,1.0010785801614475,7.605151783778638
16,22,female,118,165,115,change,catch,anti,2,1,3,0.6448078055464066,1,j,change,1.2889167629891745,0,0.5000468250677841,0.035349719114037725,0.35331855029562576,1.0010696000113057,7.1579069579483985
16,22,female,119,45,45,same,catch,clock,3,0,2,0.8832991018566645,1,f,same,2.5877187468327065,0,0.5000606160124335,0.03534170112288848,0.3533130980617898,1.0010372073274993,8.79564738542922
16,22,female,120,165,215,change,valid,clock,3,2,1,1.5965956251275202,0,j,change,1.1278908065073665,0.5547631876339505,0.4993123770841521,0.03532726873891079,0.353317588137088,1.0010635063381415,6.439489183409478
16,22,female,121,15,15,same,valid,clock,4,2,1,0.6717444069699923,0,j,change,2.285083842529275,0.5643754224787385,0.499066385117203,0.035313477794261416,0.353306042229633,1.0010404145236862,6.7092785475765595
16,22,female,122,45,45,same,valid,clock,2,1,4,0.8451931181261898,1,j,change,1.2395060532626303,0,0.5000400899552915,0.03533175881375428,0.3533121359027973,1.001049715393492,7.275467064016993
16,22,female,123,105,55,change,catch,anti,2,2,2,2.049464911346604,1,j,change,1.420960568161263,0,0.5006388735300789,0.03529487605464965,0.35333298267960345,1.0010619027398207,8.748986846645948
16,22,female,124,105,105,same,valid,clock,1,0,1,0.28373265067102693,0,j,change,0.4968251962486647,0,0.4994037821825259,0.03537473524602319,0.3533018728744537,1.0010615820201565,6.050508853786596
16,22,female,125,105,105,same,valid,anti,2,1,4,0.4285061392156422,1,f,same,1.6088063841166331,0,0.49954040875081773,0.03532406154226919,0.35330155215478953,1.0010083425590892,7.34627073612819
16,22,female,126,135,135,same,catch,anti,2,1,1,0.4902825155195387,0,j,change,0.9189782000444211,0,0.4992735700070625,0.035313798513925576,0.3533275304457675,1.0010635063381415,6.7572886746193035
16,22,female,127,165,115,change,valid,anti,2,2,1,0.19412454441771843,0,j,change,1.052917137590157,0.573657115966806,0.4994371370253248,0.03537698028367231,0.35330411791164806,1.0010692792916416,5.0145356556854495
16,22,female,128,15,15,same,valid,anti,3,0,1,1.6912047127830192,0,j,change,1.2395474260965784,0,0.49912988760706867,0.03530610124198574,0.35330540079075945,1.001083390955955,8.15830881966167
16,22,female,129,15,325,change,valid,anti,3,0,2,1.0778575799522514,1,f,same,2.4967758054231126,0,0.4995885166977132,0.03532021290675402,0.35331406022078227,1.001017322709231,8.912412748220959
16,22,female,130,105,155,change,catch,clock,1,2,1,0.22869715983506467,0,j,change,0.2576228644884395,0,0.5002203343951805,0.03532726873845604,0.3532900062477893,1.001060619861164,5.780874717926963
16,22,female,131,75,125,change,valid,clock,5,1,1,0.23886333109658153,0,j,change,1.1800000513148916,0,0.49977966560481946,0.0353064219616499,0.3533304169227449,1.0010580541043055,6.675006125745313
16,22,female,132,45,45,same,valid,anti,3,2,1,0.15413657781891743,0,j,change,0.8922362754442474,0.5826973678604441,0.4994945458420261,0.03540905224781454,0.35321880648643855,1.001051639711477,4.826167387430814
16,22,female,133,15,15,same,valid,clock,5,1,3,2.2223417793779845,1,f,same,1.7407446725260343,0,0.498978507935135,0.035355812786747265,0.3532710837889681,1.0010724864878284,9.253307260964448
16,22,female,134,45,45,same,valid,clock,4,0,1,0.27822300791422094,0,j,change,0.29194692218197815,0,0.4996253994563631,0.03533432457061281,0.3532752531441474,1.001086598152142,5.827199142523568
16,22,female,135,45,95,change,catch,clock,5,2,1,0.507799901731687,0,j,change,1.5008162314929905,0,0.49915939381435237,0.035321175065291754,0.35328102609764755,1.0010891639094552,7.357246724490324
16,22,female,136,45,355,change,valid,anti,2,0,1,0.19727112484088138,0,j,change,1.1895555723754114,0,0.5000635024894109,0.03532534442047108,0.3533153430994389,1.0010545261879997,6.6755532734573535
16,22,female,137,45,45,same,catch,anti,5,0,1,0.13706691622928702,0,j,change,1.1942236467875773,0,0.4993970470700333,0.03534330472075453,0.35330508007064054,1.0010580541043055,6.674427547508458
16,22,female,138,165,215,change,catch,clock,5,0,4,0.4678077657772519,1,f,same,1.6082691787141812,0,0.49988037157299914,0.03531091203694814,0.3533246439692448,1.0010493946733732,7.358447178115966
16,22,female,139,15,65,change,catch,clock,5,2,1,1.0141697145727449,0,f,same,3.381065610258702,0,0.5001837723561948,0.035313477794261416,0.3533102115852671,1.0010760144041342,9.702281727832087
16,22,female,140,165,115,change,valid,anti,1,0,1,0.4688552361330949,0,j,change,6.91965363561394,0,0.49965201918666935,0.03532951377610516,0.3533070043886255,1.001073769366485,12.72870646070487
16,22,female,141,75,25,change,valid,anti,1,0,1,0.20372015543352973,0,f,same,12.318958251282766,0,0.4991318119245989,0.03533111737442596,0.35332432324958063,1.001057091945313,17.90958977391847
16,22,female,142,105,105,same,catch,clock,4,2,1,0.3641992849234157,0,f,same,1.1184247662272355,0,0.49939672635036914,0.03530994987795566,0.3532980242384838,1.0011042377327612,6.850825275786519
16,22,female,143,105,105,same,valid,clock,3,0,1,0.2121990206501323,0,j,change,0.7621851014182539,0,0.5001116104358516,0.03529198957767221,0.3533262475675656,1.001068317132649,6.239386424835629
16,22,female,144,165,165,same,valid,clock,4,0,1,4.16285341701132,0,j,change,0.3848555542867871,0,0.4996465669528334,0.03539494058350101,0.35325568924599793,1.001066072095,9.84335154593282
16,22,female,145,165,165,same,valid,clock,3,0,1,0.14088829078218623,0,j,change,0.545211206714157,0,0.49904233114421004,0.035334003851403395,0.35333105836207324,1.0010429802805447,5.956155058967397
16,22,female,146,75,125,change,catch,clock,4,0,3,4.273583477550346,1,j,change,1.3748709103433612,0,0.49917190187989036,0.03534554975840365,0.35332400252991647,1.001067996412985,10.937355756340366
16,22,female,147,165,115,change,valid,anti,3,1,1,0.9012314992874053,0,f,same,1.3213790431523194,0,0.5001824894775382,0.03534811551571693,0.35330283503344617,1.0010516397110223,7.511512552325712
16,22,female,148,135,135,same,catch,clock,2,2,1,0.22252715533204537,0,j,change,2.924904136898931,0,0.49959140317378115,0.035335286730060034,0.35329000624733453,1.0010657513757906,8.394299785630665
16,22,female,149,45,355,change,valid,anti,5,0,1,0.28033494676719783,0,j,change,0.9206831456694999,0,0.4998149447656033,0.03532758945857495,0.3532791017796626,1.0010622234594848,6.510534678132444
16,22,female,150,105,55,change,valid,anti,3,1,1,0.1817784417389703,0,j,change,0.6329113518077065,0,0.49908883549232996,0.035302894045798894,0.35333009620308076,1.0010638270578056,6.073147491266809
16,22,female,151,45,45,same,valid,anti,2,2,1,0.9706317022387339,0,j,change,1.0619495649120836,0.5915548761511281,0.5032777547571641,0.03535645422653033,0.3532595378815131,1.001076976562672,5.725005356017846
16,22,female,152,135,85,change,catch,anti,5,0,1,1.097528598570534,0,j,change,1.980152264858134,0,0.4988816506029252,0.03531251563481419,0.3533390763532225,1.0010635063381415,8.287095396133736
16,22,female,153,75,25,change,valid,anti,5,2,1,1.054795271822968,0,j,change,0.5484722840496943,0.6002683953561353,0.5002918548757407,0.03534394616008285,0.35328872336913264,1.0010471496361788,5.344497477219193
16,22,female,154,105,155,change,valid,clock,1,2,4,0.644705175260242,1,f,same,2.168633426427732,0.608890437067934,0.49958466806128854,0.035350039833701885,0.3533143809404464,1.0010282271773576,6.3801448241620164
16,22,female,155,135,135,same,catch,anti,3,0,1,1.034901673771401,0,j,change,0.2692159174439439,0,0.5002155236006729,0.03533464529027697,0.3532912891264459,1.001064147777015,6.498661636927409
16,22,female,156,45,45,same,valid,clock,4,1,1,1.4650357858977259,0,j,change,1.084775823383552,0,0.5000708790412318,0.03532887233677684,0.3532919305653195,1.0010753729648059,7.782766963824088
16,22,female,157,105,55,change,catch,anti,3,0,1,1.0348263046553257,0,j,change,0.39625617545698333,0,0.49904617978017995,0.03531219491515003,0.3533134187819087,1.001050998271694,6.662175736404151
16,22,female,158,15,65,change,catch,clock,2,2,2,2.3424115166576485,1,j,change,1.0731558299776225,0,0.49994772269837995,0.03530930843862734,0.3533426042690735,1.0010708828899624,8.653476536792368
16,22,female,159,15,325,change,catch,anti,1,0,1,0.2702755751465702,0,j,change,0.12286897832836985,0,0.4999105192191564,0.03530385620479137,0.3533336241193865,1.0010721657681643,5.638302969735378
16,22,female,160,15,325,change,catch,anti,3,0,1,1.0014967985766816,0,j,change,0.42357026390118335,0,0.5002572171538304,0.035318930028097384,0.35328262969596835,1.001084673834157,6.640541913567631
16,22,female,161,135,185,change,valid,clock,2,1,1,0.7872583217122155,0,j,change,0.30664101337151806,0,0.49936850302174207,0.03528717878316456,0.35333330339972235,1.0010670342539925,6.380513331032489
16,22,female,162,75,75,same,valid,anti,1,0,1,1.4711047637129013,0,j,change,0.5728084906036202,0,0.49902116364773974,0.03543118190327732,0.3532072605794383,1.0010747315254775,7.2631511089844025
16,22,female,163,165,115,change,catch,anti,3,1,1,0.519165885179973,0,j,change,1.0962296840143608,0,0.49959525180975106,0.035318609308433224,0.35329994855646873,1.00102918933635,6.88633631688117
16,22,female,164,135,85,change,valid,anti,2,2,2,2.4826407285727328,1,f,same,3.154993861426192,0.6065559374007056,0.5003893536472788,0.03529423461532133,0.35333458627792425,1.0010920503864327,9.395752004177211
16,22,female,165,135,135,same,valid,clock,1,0,1,0.5965010128325048,0,j,change,0.9216472289181183,0,0.4999419497444251,0.0352932724567836,0.3533297754834166,1.0010490739541638,6.746303064668609
16,22,female,166,135,135,same,valid,anti,3,0,1,1.2622627155715236,0,j,change,1.3184155936455682,0,0.49885791734914164,0.03531315707459726,0.3533076458279538,1.0010506775520298,7.863096971508185
16,22,female,167,135,135,same,valid,anti,4,2,3,0.8263813074327118,1,f,same,1.3524878864191123,0.6043535945304803,0.4999797946625222,0.035282047268992756,0.3533374727549017,1.001040414524141,5.886191993041393
16,22,female,168,105,55,change,valid,anti,5,1,1,1.4592310810689924,0,j,change,0.896321281544715,0,0.49944643789513066,0.0353471533562697,0.3533079665480727,1.001038490206156,7.593283553368565
16,22,female,169,165,115,change,catch,anti,4,0,1,0.7556036136124931,0,j,change,0.4096058099007678,0,0.4998155862049316,0.035320212906299275,0.35323131455288603,1.0011051998917537,6.451542469053493
16,22,female,170,15,65,change,valid,clock,3,2,3,1.3577563480039316,1,j,change,1.3478297543160807,0.602069137803084,0.4999627965212312,0.035332720972746756,0.3533147016601106,1.001053564029462,6.42793622040881
16,22,female,171,75,75,same,valid,clock,3,0,3,1.0948691912863069,1,j,change,0.9501110972846618,0,0.4994198181648244,0.03532887233677684,0.35330026927658764,1.0010939747039629,7.346308901765951
16,22,female,172,75,125,change,valid,clock,4,0,1,0.47057268982416645,0,j,change,0.6011886511428202,0,0.49904104826600815,0.035406165770837106,0.35327429098515495,1.0010641477774698,6.356138638122047
16,22,female,173,15,65,change,catch,clock,4,0,1,1.1391766100446148,0,j,change,0.7546453033173748,0,0.500153624709128,0.035332400253082596,0.35329609992095357,1.0010696000113057,7.134739774495301
16,22,female,174,45,45,same,catch,anti,1,1,1,0.9209849428543748,0,j,change,0.7073670585004947,0,0.4997453486030281,0.03532309938327671,0.3533147016601106,1.001026944298701,6.875511708191425
16,22,female,175,75,25,change,valid,anti,3,2,2,0.9737086864988669,1,f,same,1.2985739521768664,0.5998421726881763,0.4993178293184428,0.03537698028321756,0.3533086079869463,1.001045546037858,6.13242642370642
16,22,female,176,15,15,same,valid,anti,2,1,1,0.40189089887462615,0,j,change,1.3264974079438616,0,0.49991725433210377,0.03536896229206832,0.3532422190210127,1.0010894846291194,7.040255126061766
16,22,female,177,135,185,change,valid,clock,5,0,3,1.3117670754345454,1,f,same,0.7000921748258406,0,0.5001237977826349,0.03532887233677684,0.35331277734212563,1.0010211713452009,7.299917126043965
16,22,female,178,45,45,same,valid,clock,2,2,4,0.40597750857250503,1,f,same,1.3544122042803792,0.5977291639139273,0.4991876171425247,0.03534779479605277,0.35328615761181936,1.0010490739541638,5.473271224905147
16,22,female,179,15,15,same,valid,clock,2,1,1,0.49041914208783055,0,j,change,0.8595905436454814,0,0.4998806922926633,0.03533111737442596,0.35329289272431197,1.0010782594417833,6.651729256174349
16,22,female,180,165,215,change,valid,clock,4,2,1,0.5857030238730658,0,j,change,1.2314608010037773,0.5957391747239644,0.49930211405535374,0.03533656960871667,0.3532851954528269,1.0010667135343283,5.603189620999274
16,22,female,181,165,165,same,catch,anti,1,1,4,0.5351050100257453,1,f,same,1.8957654744021966,0,0.4991828063484718,0.0352996868491573,0.3533009107154612,1.0010878810312533,7.581367215012051
16,22,female,182,165,115,change,valid,anti,1,2,1,1.2556267054264936,0,j,change,1.0755381354897509,0.6031946336717409,0.49969948569378175,0.03532791017778436,0.35332143677305794,1.0010429802805447,6.215521996877214
16,22,female,183,15,15,same,valid,clock,2,0,4,0.5851430473758228,1,f,same,3.2171727408826882,0,0.49999005769132054,0.03531893002764264,0.35329321344397613,1.0010676756937755,9.03072462113414
16,22,female,184,15,15,same,valid,anti,2,2,2,1.9711535130986704,1,f,same,3.754555501817322,0.6100796350384524,0.499546502423982,0.035333362412075076,0.3532957792012894,1.0010663928146641,9.513447133215323
16,22,female,185,165,215,change,catch,clock,5,2,1,0.647612178109739,0,j,change,0.7000389353647734,0,0.4990179564515529,0.03537730100288172,0.3533082872677369,1.0010679964134397,6.70914865612076
16,22,female,186,135,135,same,valid,clock,5,2,3,0.5090433317895986,1,f,same,1.2604615540531086,0.6081296068593329,0.5002261073486807,0.0353064219616499,0.3533073251087444,1.0010538847486714,5.6034288778532755
16,22,female,187,105,105,same,valid,clock,5,0,1,0.944481826100855,0,j,change,0.3716582616739288,0,0.49972738830274466,0.03536607581554563,0.3532823089763042,1.0010728072079473,6.675233836691859
16,22,female,188,165,215,change,catch,clock,4,1,1,0.8356725555067896,0,j,change,1.6090469238497462,0,0.49936593726488354,0.03532951377610516,0.35331502237977475,1.001057091945313,7.840384568510217
16,22,female,189,135,135,same,valid,anti,5,1,1,3.9281501404107075,0,j,change,2.64712628784946,0.005044263415110134,0.5004903803351226,0.03531476067246331,0.3533057215104236,1.0010651099360075,10.39720582632117
16,22,female,190,15,325,change,valid,anti,4,1,1,1.2574352434967295,0,j,change,1.5439543064308054,0.010575862463135188,0.49952501420784756,0.03535003983324714,0.3532505577318261,1.001071524328836,6.580133727262364
16,22,female,191,165,115,change,catch,anti,4,1,1,0.3079585296673031,0,j,change,0.17031399736015373,0,0.4997033343292969,0.035319250747761544,0.3533246439692448,1.0010471496361788,5.768024443968443
16,22,female,192,75,75,same,valid,anti,3,0,1,0.1490502849915174,0,j,change,0.2741078541675961,0,0.5004278400047042,0.035355171347418946,0.3532880819298043,1.0010712036096265,5.686099497496343
16,22,female,193,135,135,same,valid,anti,1,0,4,0.6864955862561146,1,f,same,1.3127670792828212,0,0.5004506110990405,0.035302573326134734,0.3533320205210657,1.0010506775520298,7.299906542295503
16,22,female,194,135,185,change,valid,clock,1,1,4,0.4440459681050015,1,j,change,1.08488679238053,0.01580575287275901,0.49938293540571976,0.03537922532086668,0.353266914433334,1.0010647892163433,5.273154033947776
16,22,female,195,135,135,same,valid,anti,5,0,1,1.2159700422193964,0,j,change,0.7098555222150935,0,0.49948716928975045,0.035408090088822064,0.3532409361423561,1.0010275857380293,7.169266847723975
16,22,female,196,165,115,change,valid,anti,3,0,2,0.7129216020075546,1,j,change,1.1917515397749412,0,0.499578574388579,0.035355171347418946,0.35330315575311033,1.0010320758128728,7.169267809882513
16,22,female,197,105,105,same,valid,anti,3,2,1,0.18100037588328632,0,j,change,0.18852606231939717,0.6062927246413492,0.5002440676489641,0.035335607449269446,0.3532823089763042,1.001050998271694,4.131669204627997
16,22,female,198,45,95,change,valid,clock,4,1,4,1.9919749530790796,1,j,change,1.0565473632354951,0.012891603407326174,0.4995080160665566,0.03533945608523936,0.3533143809404464,1.001042018122007,6.75738104187667
16,22,female,199,135,135,same,valid,anti,3,1,4,0.5370488917856164,1,j,change,0.9160288622024382,0.009904042888794568,0.49937267237737615,0.035356774945739744,0.35327493242448327,1.0011068034900745,5.178273617474133
16,22,female,200,135,185,change,valid,clock,4,2,1,0.7733294675927027,0,j,change,0.4796083243427347,0.6131491473567026,0.5007841595283935,0.035356133506411425,0.35329930711759516,1.001060619861164,4.979835393849953
16,22,female,201,135,185,change,valid,clock,5,2,4,0.7003243758476856,1,j,change,1.1847377218900874,0.6194967744276331,0.5080340270715169,0.035367679413866426,0.35326659371366986,1.001068317132649,5.611692540189324
16,22,female,202,15,15,same,valid,anti,5,1,1,0.8994999339320202,0,j,change,0.7196297740720183,0.007068491255966897,0.49981751052291656,0.03533111737442596,0.3533207953332749,1.0010538847486714,5.379615316030595
16,22,female,203,135,85,change,valid,anti,3,2,1,0.2858949425076389,0,j,change,1.8536129709286797,0.6177113476422758,0.4993771624517649,0.03532406154226919,0.35331983317473714,1.0010561297863205,5.862213068171059
16,22,female,204,45,355,change,catch,anti,4,1,1,0.17947535397797765,0,j,change,0.29617785571963395,0,0.49954457810599706,0.03534939839391882,0.35332143677305794,1.0010667135343283,5.673485593914847
16,22,female,205,75,125,change,valid,clock,5,2,1,0.16834189227165552,0,j,change,0.23021929526385065,0.6241688303636903,0.5004717785955108,0.035318288588769065,0.3533018728744537,1.0010388109253654,4.131868371526707
16,22,female,206,75,125,change,valid,clock,3,0,1,0.20371117528384275,0,j,change,0.5141668280957674,0,0.4993986506683541,0.035338173206582724,0.3533086079869463,1.001037848766373,5.921205597968765
16,22,female,207,165,165,same,valid,anti,3,0,1,0.17071585907342524,0,j,change,0.2692123895280929,0,0.49973925492940907,0.03534715335672445,0.3533185502960805,1.001071524328836,5.697784917710123
16,22,female,208,105,155,change,valid,clock,5,2,4,2.1806017213662017,1,j,change,1.8115214041877152,0.6301975648194917,0.49918440994633784,0.03534587047806781,0.35329770351927436,1.0010949368629554,7.687275897148993
16,22,female,209,75,25,change,valid,anti,3,0,4,1.2149899229889343,1,j,change,1.7346997486838518,0,0.4995169962166983,0.03533143809409012,0.35329321344397613,1.0010279064576935,8.170318487434997
16,22,female,210,105,155,change,valid,clock,2,0,1,1.9531486330288317,0,j,change,0.3590058717354623,0,0.49944740005412314,0.03532694801879188,0.3533275304462222,1.001045546037858,7.511084391601344
16,22,female,211,15,15,same,catch,clock,5,2,1,1.1341143711906625,0,j,change,1.5944227495424457,0,0.4997508008368641,0.03533849392624688,0.3533387556335583,1.0010798630396494,7.981787935039847
16,22,female,212,75,25,change,valid,anti,4,0,4,2.2037839786430595,1,j,change,0.9361848089215528,0,0.5003133430918751,0.03532566514013524,0.35329770351927436,1.0010558090666564,8.300604748959813
16,22,female,213,165,165,same,valid,anti,2,1,3,4.297038667243214,1,f,same,2.484807510484643,0.011980847005109041,0.4997552909121623,0.03532855161711268,0.3532851954528269,1.001047470355843,10.538410025952544
16,22,female,214,135,135,same,valid,clock,5,1,4,0.4929079265220935,1,f,same,1.4432525077072569,0.009189893569538976,0.4991680532443752,0.035316364270784106,0.3532701216295209,1.0010805044794324,5.708351988525919
16,22,female,215,45,45,same,valid,anti,4,1,1,0.6114940147299421,0,j,change,1.748153937731331,0.006563903501525831,0.5002482370041434,0.03533047593509764,0.3532845540139533,1.0010487532344996,6.086682501664654
16,22,female,216,105,55,change,valid,anti,1,1,1,0.5548462662459315,0,j,change,0.2847239950892799,0.011175611031656318,0.5000869150235303,0.035336569608261925,0.3533018728744537,1.0010442631596561,4.566843105233147
16,22,female,217,165,165,same,valid,anti,1,2,1,1.28585581471134,0,j,change,0.2692341984638915,0.6284657299928103,0.5001985254593819,0.035352926310224575,0.3532925720046478,1.0010570919448583,5.273570007324906
16,22,female,218,15,15,same,catch,clock,2,2,4,0.46630070417177194,1,j,change,1.0224991244353987,0,0.500194676823412,0.03530417692445553,0.3532948170422969,1.0010837116756193,6.675550386980376
16,22,female,219,75,75,same,catch,clock,4,1,1,0.6982509233516794,0,j,change,0.38320801747795485,0,0.5002216172733824,0.035334003851403395,0.3533153430994389,1.0010442631592014,6.334113216600144
16,22,female,220,105,155,change,valid,clock,3,2,3,1.05063104797091,1,j,change,2.0968226946351933,0.6346013947394726,0.49951795837614554,0.035324382261478604,0.35334388714773013,1.001059016263298,6.863455856790097
16,22,female,221,45,45,same,valid,anti,1,1,4,0.6143169890328863,1,j,change,0.8934861198949875,0.01552740320749893,0.49939127411653317,0.03568711617890585,0.3529737766789367,1.0010513189918129,5.237342799266571
16,22,female,222,165,165,same,valid,clock,5,1,1,0.3951961970346929,0,j,change,1.0565954711823906,0.013089709707574726,0.49989159676033523,0.03535003983324714,0.35329449632263277,1.0010740900861492,5.250152662550136
16,22,female,223,15,65,change,valid,clock,1,2,1,0.24532839767152836,0,j,change,0.35587276153728453,0.6329205898031864,0.4993191121966447,0.03535549206753785,0.353306042229633,1.0010750522451417,4.378086124770107
16,22,female,224,135,85,change,valid,anti,1,0,1,1.5677488175069811,0,j,change,0.921948063943546,0,0.5001045546041496,0.035336248888597765,0.3533054007903047,1.0010670342544472,7.793952061393611
16,22,female,225,165,215,change,catch,clock,1,2,1,0.11440486621495438,0,j,change,0.36209183614573703,0,0.5001433616807844,0.03534362544041869,0.35328102609764755,1.0010712036096265,5.803632021675639
16,22,female,226,105,105,same,valid,anti,4,0,4,0.8867247083699112,1,j,change,1.046702873776212,0,0.49991949936929814,0.03534202184255264,0.3532842332938344,1.0010333586915294,7.169442281368447
16,22,female,227,75,75,same,valid,anti,2,1,3,0.6494582403784079,1,f,same,1.8751925921460497,0.01719972310164447,0.4997687611366928,0.035301290447478095,0.3533127773425804,1.00108531527394,6.298166638229304
16,22,female,228,75,25,change,catch,anti,4,0,1,0.22066184988534587,0,j,change,0.2552120149275652,0,0.49940923441636187,0.03534779479605277,0.3533316998009468,1.0010375280471635,5.732181458043215
16,22,female,229,135,185,change,valid,clock,3,0,4,1.1324151985190838,1,f,same,1.1333013468938589,0,0.5006638896620643,0.035316684990448266,0.35331790885629744,1.001010266877529,7.535119121690059
16,22,female,230,105,155,change,catch,clock,5,2,4,0.8902349848685844,1,f,same,2.044650909496795,0,0.500067671845045,0.03530898771896318,0.3533070043886255,1.0010407352433504,8.112360599207022
16,22,female,231,75,125,change,valid,clock,2,0,1,0.8723304900468065,0,j,change,0.931052332465697,0,0.49946792611171986,0.03536190645991155,0.35331149446392374,1.0010481117951713,7.0515146305888265
16,22,female,232,45,45,same,valid,clock,5,1,4,0.45620509123182273,1,f,same,1.1930119679741438,0.014827375388334452,0.49969242986207973,0.03532887233677684,0.3533050800710953,1.0010580541043055,5.332297943417416
16,22,female,233,165,215,change,valid,clock,2,0,1,1.4158056413302802,0,j,change,1.1599717510139271,0,0.49968601546879654,0.03534715335672445,0.35326114147937915,1.0010692792916416,7.734453435998148
16,22,female,234,135,85,change,catch,anti,1,0,1,0.4033434381403822,0,j,change,0.9911381955284924,0,0.4998858238068351,0.03532534442092583,0.3533297754834166,1.001068317132649,6.687223299127709
16,22,female,235,75,75,same,valid,anti,2,0,4,0.5210683941054413,1,f,same,2.2482642652894356,0,0.49961577786689304,0.03533015521543348,0.3533297754834166,1.0010631856184773,8.00570175382336
16,22,female,236,15,15,same,valid,clock,3,1,1,0.22993193046295346,0,j,change,0.3823667698529789,0.01242190618699529,0.4995583690511012,0.03529327245632885,0.3533788455888498,1.0010307929342162,4.413296330838875
16,22,female,237,15,65,change,valid,clock,2,2,1,0.18046252904150606,0,j,change,0.7543300359075147,0.6385703830155687,0.49982039699943925,0.03532245794394839,0.3533147016601106,1.001038490206156,4.661216463950495
16,22,female,238,135,185,change,valid,clock,5,1,4,0.43942183228409704,1,j,change,0.8976240447364034,0.016319111182046264,0.4993502220022492,0.035317647149440745,0.3533102115852671,1.0010814666379702,5.061075283163518
16,22,female,239,45,45,same,valid,anti,4,0,1,0.4800528417681562,0,j,change,1.2565539059160074,0,0.5001109689965233,0.0353096291582915,0.35332400252991647,1.0010224542234027,7.0048961060788315
16,22,female,240,135,85,change,catch,anti,5,2,1,0.2756405733439351,0,j,change,0.019619382755536208,0,0.5003361141862115,0.03529391389565717,0.3533503015405586,1.0010336794111936,5.579819422011951
16,22,female,241,165,215,change,catch,clock,4,2,4,0.37211111781061845,1,f,same,1.274454231382606,0,0.500262348668457,0.03531476067246331,0.3533153430994389,1.0010211713452009,6.911541352949371
16,22,female,242,75,75,same,valid,clock,5,2,1,1.201517132202298,0,j,change,0.40669592057429327,0.6444568940232216,0.49930371765367454,0.035298403970955405,0.3532826296955136,1.0011045584524254,5.331532064908515
16,22,female,243,45,355,change,catch,anti,1,1,1,0.30974846599792727,0,j,change,0.29659575341520394,0,0.4999688901943955,0.03532758945857495,0.3533028350329914,1.0010615820201565,5.886269607195118
16,22,female,244,135,135,same,valid,clock,3,2,4,1.250500643363921,1,j,change,1.345735134324059,0.6499837664149091,0.5000904429393813,0.03530994987795566,0.35335607449451345,1.0010266235794916,6.356993997410882
16,22,female,245,75,75,same,valid,clock,4,0,1,0.5618918353761728,0,j,change,1.1196617818927734,0,0.49991276425680553,0.03530706340143297,0.353290968406327,1.001088843189791,6.899332518277788
16,22,female,246,135,135,same,valid,clock,5,0,1,0.7429060022041085,0,j,change,0.902505076991929,0,0.4991334155229197,0.035335928168933606,0.35331406022078227,1.0010333586915294,6.957311253282569
16,22,female,247,135,135,same,valid,clock,4,0,2,0.8806262243474521,1,j,change,0.7734667355998681,0,0.4994031407431976,0.03535549206753785,0.35330668366896134,1.0010622234594848,6.992448976711785
16,22,female,248,45,45,same,valid,anti,1,0,4,0.41144866497234034,1,f,same,1.8090194702481313,0,0.4997642710618493,0.03532919305689575,0.3532774981813418,1.0010814666379702,7.41732841819794
16,22,female,249,105,105,same,valid,anti,5,2,1,0.1921466663757201,0,j,change,0.06416381333065146,0.6483938076288256,0.49903623747104575,0.03529166885800805,0.35333779347456584,1.0010423388416712,4.036088657172513
16,22,female,250,105,155,change,valid,clock,2,1,3,0.7769696355467204,1,f,same,2.9203281090240125,0.014096386653025095,0.49970397576862524,0.03534202184255264,0.35328038465831924,1.0010843531149476,7.464375103432303
16,22,female,251,165,115,change,valid,anti,4,1,4,0.9501813348865653,1,f,same,1.2987920415343979,0.011821724511002496,0.50053977116022,0.035319250747761544,0.35332945476375244,1.001064147777015,6.015558109909307
16,22,female,252,105,105,same,valid,clock,2,2,2,2.4736070183716947,1,j,change,2.8798186522844844,0.6540800795250143,0.5007180912821241,0.035359340702598274,0.3533079665480727,1.0010670342544472,9.066883195188439
16,22,female,253,75,125,change,catch,clock,1,0,1,0.324884188136366,0,j,change,1.6951765048484049,0,0.49944996581098167,0.03528814094215704,0.3533403592318791,1.0010676756933208,7.310319667683416
16,22,female,254,135,85,change,valid,anti,3,0,1,0.36013159768390324,0,j,change,1.329176058407029,0,0.5007203363197732,0.03529102741867973,0.3533432457084018,1.0010522811508054,6.923145310373457
16,22,female,255,75,125,change,catch,clock,3,0,4,0.6904423621899696,1,j,change,1.0621589948386827,0,0.5002591414718154,0.035407448649493745,0.3532178443279008,1.0010708828899624,7.028915120904912
16,22,female,256,15,65,change,catch,clock,4,2,1,0.341554233050374,0,j,change,1.0723309390541544,0,0.5002527270789869,0.03534811551571693,0.35332560612823727,1.001032717252201,6.6401076591700985
16,22,female,257,45,45,same,valid,anti,3,1,1,0.6173769751517284,0,j,change,1.1593819475892815,0.009560110490835078,0.49983835729926795,0.03532887233723159,0.35329289272431197,1.0010795423199852,5.544465212823525
16,22,female,258,15,15,same,valid,anti,3,1,4,0.3422004831322738,1,f,same,1.4443195419607946,0.013336940120788066,0.49941500737031674,0.035351643431567936,0.3533127773425804,1.0010176434293498,5.532177801839225
16,22,female,259,135,185,change,valid,clock,4,1,4,1.1458437299952493,1,j,change,0.793754818812431,0.011173700533513548,0.4995153926183775,0.035379866760195,0.35323035239389355,1.001079221600321,5.685111039555068
16,22,female,260,75,75,same,catch,clock,5,0,1,0.37508066099053394,0,j,change,1.5729316469469268,0,0.5003749212633011,0.035318930028097384,0.35334132139041685,1.0010423388416712,7.217830536872043
16,22,female,261,165,165,same,valid,clock,5,2,4,0.6948275618765365,1,f,same,1.109715624306773,0.6525284571287975,0.49965009486913914,0.03532823089744852,0.3532980242384838,1.0010654306561264,5.555779239688945
16,22,female,262,15,325,change,valid,anti,1,2,4,0.5354340683802548,1,j,change,0.9155455376990176,0.6510000099994182,0.49972386038689365,0.03530674268131406,0.35329609992095357,1.001083070236291,5.191193166875564
16,22,female,263,135,85,change,valid,anti,1,2,4,0.6502680574781152,1,j,change,1.8454326956998557,0.6494874471124946,0.49947145402757087,0.035319892186635116,0.3533320205210657,1.0010580541038507,6.215378635196885
16,22,female,264,135,135,same,valid,clock,2,0,4,0.31965485434830043,1,f,same,1.2965963948545323,0,0.5001969218610611,0.03532726873891079,0.35327364954582663,1.0010647892163433,6.898907244030397
16,22,female,265,75,75,same,valid,clock,1,1,1,0.5657792781757962,0,j,change,0.8757965072350089,0.009027663497830574,0.5003976923580922,0.03533400385094865,0.35329449632263277,1.0010638270578056,5.226807479695253
16,22,female,266,75,125,change,valid,clock,2,2,4,1.3145615056891984,1,j,change,1.4464067854014502,0.6480492046257194,0.4997447071636998,0.03533400385094865,0.35328423329428915,1.0010718450489549,6.427273292905284
16,22,female,267,15,325,change,valid,anti,5,1,1,0.2548476774127266,0,j,change,1.1291268600134572,0.012648713974989345,0.4998155862049316,0.03530930843862734,0.35334003851221496,1.0010330379718653,5.144152575314365
16,22,female,268,105,105,same,valid,anti,4,1,4,0.9276713059830399,1,f,same,1.1758217157989748,0.01603186800841408,0.4993361103379357,0.03533336241162033,0.353307966547618,1.0010391316450296,5.779199278508713
16,22,female,269,105,55,change,valid,anti,4,0,4,0.4594033075177322,1,f,same,1.5288381481905162,0,0.5004044274705848,0.035317967869104905,0.35333105836207324,1.0010670342539925,7.240847302812199
16,22,female,270,15,15,same,valid,anti,3,2,4,0.35291668858235425,1,f,same,1.0188166214879857,0.6466810583440796,0.4997626674635285,0.03532791017823911,0.35330508007064054,1.0010686378523133,5.096376573610996
16,22,female,271,15,65,change,valid,clock,2,0,1,1.5390761606527121,0,j,change,0.8263431417954052,0,0.5003027593434126,0.03530706340143297,0.353287440490476,1.0010872395914703,7.617615911286521
16,22,female,272,135,135,same,valid,clock,1,1,4,5.215329244371787,1,f,same,1.2983340538835364,0.01410024663507975,0.49957183927563165,0.03541290088378446,0.35324542621719957,1.001025340700835,10.302352029577833
16,22,female,273,75,75,same,valid,anti,4,2,1,0.9753135675955491,0,j,change,1.0265639251979337,0.6453673672571967,0.4997084658439235,0.03534747407638861,0.35331085302414067,1.0010673549741114,5.673590469238206
16,22,female,274,45,45,same,valid,anti,3,0,4,0.5222682062922104,1,j,change,1.2650330918531836,0,0.4999271966407832,0.035302252606470574,0.35332720972655807,1.0010535640290072,7.016393905300447
16,22,female,275,135,85,change,catch,anti,2,0,1,0.6634887626250929,0,j,change,0.3305391168919414,0,0.5004708164365184,0.03527402927784351,0.35334292498873765,1.0010763351237983,6.251883586466647
16,22,female,276,15,15,same,valid,anti,1,1,1,0.5233865556888304,0,j,change,0.13871220800092487,0.012115428657674565,0.4996013454833701,0.03538403611537433,0.3533268890068939,1.0010593369825074,4.448439185782718
16,22,female,277,105,105,same,catch,anti,4,1,1,0.16613341680613303,0,j,change,0.2577248533348211,0,0.5002382946950092,0.03534234256176205,0.35330379719243865,1.001064789216798,5.650443491123042
16,22,female,278,75,25,change,valid,anti,4,1,4,0.3450164016026065,1,f,same,1.000689547233378,0.0153592498741712,0.5003050043810617,0.03533207953341844,0.3532832711348419,1.0010708828899624,5.144597092740241
16,22,female,279,105,55,change,valid,anti,2,1,1,0.5400267736758906,0,j,change,0.5899320330931914,0.013524821846276514,0.49989736971383536,0.03534651191739613,0.35330668366896134,1.0010593369829621,4.825656481038095
16,22,female,280,135,135,same,valid,anti,2,0,1,0.2087493601643473,0,j,change,0.39910929740563006,0,0.5000577295359108,0.035337852486918564,0.35330155215478953,1.001049394673828,5.827357257307995
16,22,female,281,75,75,same,valid,clock,1,0,1,0.08904235680165584,0,j,change,0.28715280494998296,0,0.4999387425482382,0.03534170112243373,0.353283912574625,1.0010696000113057,5.615713402360598
16,22,female,282,135,135,same,catch,anti,4,2,1,0.07887233690416906,0,j,change,0.2740299192942075,0,0.4991263596907629,0.035300969727813936,0.3533291340440883,1.001060940581283,5.614298387293275
16,22,female,283,45,45,same,valid,clock,1,1,1,0.05444632885064493,0,j,change,0.2900309430310699,0.01663113406037789,0.49982649067260354,0.03537088661050802,0.35329225128498365,1.0010670342539925,4.06042261868879
16,22,female,284,105,155,change,valid,clock,4,1,1,0.1357070649405614,0,j,change,0.3264287739402789,0.01996823741050427,0.49964368047585594,0.035354209188881214,0.35332336109058815,1.0010368866078352,4.143189454224739
16,22,female,285,165,215,change,valid,clock,1,2,1,0.12190778155672888,0,j,change,0.293320243695689,0.6504615807411767,0.4990516320140159,0.0353307966547618,0.35331213590325206,1.001060619861164,4.07109039547322
16,22,female,286,45,45,same,valid,anti,5,0,4,2.0547994411781474,1,j,change,0.9788440494321549,0,0.5002575378739493,0.03530770484030654,0.35332785116543164,1.001060619861164,8.288690976360158
16,22,female,287,135,135,same,valid,clock,3,0,4,0.9004707522926765,1,j,change,0.6721831514428231,0,0.5002908927167482,0.035317967869104905,0.35332111605293903,1.0010237371020594,6.79373012340011
16,22,female,288,15,65,change,valid,clock,2,1,1,0.15782485371983057,0,j,change,0.41128509795453283,0.023229143512898315,0.49918601354465864,0.03530353548512721,0.35329609992095357,1.0010856359931495,4.283266003589688
16,22,female,289,165,165,same,catch,anti,4,1,4,0.26691058464621165,1,f,same,1.4592047820583502,0,0.499790249353282,0.03528717878316456,0.3533464529050434,1.001064147777015,7.005234144583028
16,22,female,290,105,105,same,valid,clock,1,1,1,0.17120656012775726,0,j,change,1.577126339165261,0.026292794140083064,0.5000080179911492,0.035299045410283725,0.35333651059636395,1.0010631856180225,5.486097765610339
16,22,female,291,105,55,change,valid,anti,3,2,4,0.9830390623696985,1,j,change,0.957586751456347,0.6553019609786626,0.49911994529793446,0.03532502370126167,0.35330989086560294,1.0010776180020002,5.626274379503684
16,22,female,292,15,65,change,valid,clock,1,1,1,0.08555132348146799,0,j,change,0.30298031935990366,0.029568960022793772,0.49945638020426486,0.035353888469217054,0.3533121359027973,1.001064468497134,4.048211538979558
16,22,female,293,75,125,change,catch,clock,4,0,4,0.5163923017021261,1,j,change,1.0186556202270367,0,0.5003527916078383,0.03534266328142621,0.353287440490476,1.001040093804022,6.757935245421322
16,22,female,294,15,15,same,catch,clock,5,2,1,0.08383034187409066,0,j,change,0.290674306636447,0,0.5002447090878377,0.035317005710112426,0.35332143677305794,1.0010477910755071,5.615863499153875
16,22,female,295,75,25,change,catch,anti,3,0,1,0.06145309090379669,0,j,change,0.3160977527813884,0,0.4995481060223028,0.03534170112243373,0.35333105836207324,1.0010538847486714,5.614628087086658
16,22,female,296,135,85,change,valid,anti,3,1,1,0.3168119954279973,0,f,same,3.0068464022310764,0.03281005722158031,0.49994451550173835,0.03532694801924663,0.35329449632263277,1.0010628648988131,7.07544929614869
16,22,female,297,15,325,change,valid,anti,1,0,3,3.041331461185564,1,j,change,0.7386830866571472,0,0.4997235396672295,0.03536062358125491,0.35328262969596835,1.0010481117951713,9.01844522814099
16,22,female,298,105,55,change,catch,anti,5,0,4,1.1118814440596907,1,j,change,1.0927152381600536,0,0.5002716495382629,0.03534426687974701,0.3532900062477893,1.0010471496361788,7.440835243753554
16,22,female,299,165,165,same,catch,clock,2,1,1,1.2762149822260653,0,j,change,0.90420906045847,0,0.5000631817697467,0.0353487569545905,0.35328038465831924,1.0010481117951713,7.440663338024024
16,22,female,300,135,135,same,catch,anti,2,1,4,0.4287338501621889,1,f,same,1.1991364302875809,0,0.5000795384717094,0.035341059683105414,0.3532880819298043,1.0010577333846413,6.95764159451528
16,22,female,301,15,15,same,valid,clock,4,0,4,0.453141256476556,1,f,same,1.8075842498433303,0,0.5063672470837446,0.03534138040276957,0.3533018728744537,1.0010696000113057,7.517343876884752
16,22,female,302,105,55,change,valid,anti,5,2,1,1.3587810472649835,0,j,change,1.1460018447796756,0.6540506729261122,0.500080821350366,0.03532823089744852,0.3533207953337296,1.001037848766373,6.298357466417656
16,22,female,303,165,165,same,valid,clock,4,1,1,0.16665137903009963,0,j,change,0.39175744101657983,0.03584508722818158,0.499599100445721,0.03530930843862734,0.35330892870661046,1.0010641477774698,4.331171255309528
16,22,female,304,105,105,same,valid,clock,4,1,4,0.6078685998795663,1,j,change,1.1536731379337652,0.03906904410101081,0.4996305309705349,0.035332720972746756,0.35330957014548403,1.0010282271773576,5.438334271972963
16,22,female,305,45,355,change,valid,anti,1,2,4,0.5123133892752776,1,j,change,1.9129214095755742,0.6585977818967207,0.5000615781718807,0.035352605590560415,0.3532925720046478,1.0010590162628432,6.109900679540715
16,22,female,306,105,105,same,catch,clock,4,1,1,0.9375048909746511,0,j,change,0.2533162411145895,0,0.5002318803021808,0.03532566514058999,0.35328904408834205,1.0010824287974174,6.4399134954974215
16,22,female,307,75,125,change,valid,clock,3,2,1,2.221226316457887,0,j,change,1.2768666845413463,0.6573191558634419,0.4997719683337891,0.035321495784955914,0.3532547270865507,1.00108531527394,7.204516823028371
16,22,female,308,105,105,same,catch,anti,2,0,1,0.11886703861591741,0,j,change,0.47403549981572723,0,0.5003062872597184,0.03532342010294087,0.35327717746167764,1.001067996412985,5.839532416417114
16,22,female,309,105,55,change,valid,anti,4,1,3,0.8101458376363553,1,j,change,1.0152126948532896,0.03727067174140583,0.4996667722903112,0.03534619119773197,0.3533185502960805,1.0010647892163433,5.567558951477622
16,22,female,310,45,95,change,valid,clock,4,0,1,0.0912610952959767,0,j,change,0.2999087873336066,0,0.5002581793128229,0.035338173206582724,0.3533169466977597,1.0010445838788655,5.685730349186997
16,22,female,311,165,165,same,valid,anti,1,0,4,0.24887170829379102,1,f,same,1.9450741952823591,0,0.4999839640177015,0.03529134813834389,0.35330026927658764,1.0010862774324778,7.452249335148281
16,22,female,312,105,105,same,valid,anti,1,0,1,1.12020283593165,0,j,change,0.9665229628849374,0,0.49981975556011093,0.035352605590560415,0.35326915947098314,1.0010699207305152,7.299321870385938
16,22,female,313,75,75,same,valid,clock,5,1,1,0.232520779425613,0,j,change,1.1199395251042006,0.03555821874968987,0.4995256556471759,0.0353391353655752,0.35329706207994604,1.0010500361127015,5.120298410385203
16,22,female,314,165,165,same,valid,anti,1,1,1,0.16468953697039979,0,j,change,0.7359341985920764,0.0386367353978222,0.4992889645500327,0.03532374082260503,0.3533214367726032,1.00102341638285,4.637118872811698
16,22,female,315,45,45,same,valid,clock,5,0,1,0.7413899604489416,0,j,change,0.9997931358298047,0,0.5000513151430823,0.03532823089744852,0.3533009107154612,1.001070241450634,7.004859223319727
16,22,female,316,15,65,change,valid,clock,4,0,4,0.7860068736631547,1,j,change,0.9039223370969012,0,0.5000253368521044,0.03535741638506806,0.3532986656778121,1.0010416974023428,6.934641505996751
16,22,female,317,15,15,same,valid,anti,4,0,2,1.4650226363924048,1,j,change,0.9107655321313359,0,0.49919788017132305,0.035354209188881214,0.35331117374380483,1.0010352830095144,7.6632350733871135
16,22,female,318,15,325,change,valid,anti,5,2,4,0.3251555169549647,1,f,same,1.1640051212511935,0.6621214279381262,0.5000234125341194,0.03529487605464965,0.3533323412402751,1.0010394523646937,5.191205995661221
16,22,female,319,105,105,same,valid,clock,2,0,4,0.6376884708984107,1,j,change,0.9027571626320423,0,0.49963566248516145,0.035351964151232096,0.35325504780621486,1.0010545261879997,6.804285969029024
16,22,female,320,75,75,same,valid,anti,5,0,1,0.5325261033717652,0,j,change,0.7281195437572023,0,0.5000288647675006,0.03532085434608234,0.35329898639747626,1.0010805044794324,6.533662413069123
16,22,female,321,135,135,same,valid,anti,2,1,1,0.42021842290614586,0,j,change,0.7497985880636406,0.041744049083646595,0.49989320035865603,0.03532374082260503,0.35330315575311033,1.0010503568323657,4.896306849160283
16,22,female,322,165,115,change,valid,anti,4,2,4,0.3239820037792924,1,f,same,1.3122010091124139,0.6608213864685124,0.49996856947473134,0.03528493374597019,0.3533288133244241,1.0010670342539925,5.332169014121064
16,22,female,323,15,15,same,catch,clock,3,0,1,0.3223854613934236,0,j,change,0.8642778612361326,0,0.4996699794869528,0.035508154617673426,0.35334228354940933,1.001038490206156,6.416237650690164
16,22,female,324,165,215,change,catch,clock,2,1,1,0.254729973303256,0,j,change,0.8995432310839533,0,0.5001000645288514,0.035354209188426466,0.3532890440887968,1.0010657513757906,6.416027258603663
16,22,female,325,45,355,change,valid,anti,1,1,1,0.05593222295919986,0,j,change,0.2507427866944454,0.04466064124558172,0.5001481724752921,0.035332400253082596,0.35330989086560294,1.0010535640290072,4.072639150631858
16,22,female,326,105,105,same,valid,clock,5,1,1,0.189489504129142,0,j,change,0.5450431496205965,0.04747456169123179,0.4994942251219072,0.03533207953341844,0.35331502237977475,1.0010356037291785,4.449189349028984
16,22,female,327,45,355,change,valid,anti,2,1,1,0.17914757850257956,0,j,change,0.41348266895192864,0.05055117554257457,0.4992193683874575,0.035318930028097384,0.35332849260475996,1.0010577333846413,4.319259086308193
16,22,female,328,15,15,same,valid,clock,4,1,1,0.16394418451864112,0,j,change,1.783260230635733,0.053513499461369934,0.4998066060547899,0.035352284870896256,0.3533130980617898,1.0010477910755071,5.6507747945152005
16,22,female,329,15,65,change,valid,clock,3,1,1,1.43480058294017,0,j,change,1.2155598417953115,0.056320107879332865,0.499808851092439,0.035356133506411425,0.35330475935143113,1.001042018122007,6.403946391069894
16,22,female,330,135,135,same,valid,anti,1,2,4,0.34143845325888833,1,f,same,2.7972243639164844,0.6595277117051335,0.5003685068704726,0.03534811551571693,0.35325985860117726,1.0010901260684477,6.910845712042828
16,22,female,331,135,135,same,catch,clock,3,2,1,0.30554319003158525,0,j,change,1.6997640786303236,0,0.5002738945754572,0.03529423461532133,0.3533454907460509,1.0010506775524846,7.252752736700586
16,22,female,332,105,105,same,valid,clock,4,2,4,1.2666613854830757,1,j,change,0.9218374156666869,0.6582925724786409,0.5000981402108664,0.035333683131739235,0.35332239893159567,1.0010477910755071,5.921998096207972
16,22,female,333,105,105,same,valid,anti,5,1,2,0.8484439324333835,1,f,same,1.3285477686249578,0.05933438935644178,0.4997312369387146,0.03531155347582171,0.3532787810604532,1.0010849945538212,5.920838373976949
16,22,female,334,15,15,same,valid,clock,1,2,2,1.3348595312104408,1,f,same,2.834810140385798,0.6571144914375449,0.4998867859658276,0.035333041692410916,0.3533198331742824,1.0010429802809995,7.959304205147873
16,22,female,335,165,115,change,catch,anti,5,0,1,1.7310005683152667,0,j,change,2.7061387022654344,0,0.49968633618891545,0.03533368313128449,0.3533127773425804,1.0010635063376867,9.713029363807891
16,22,female,336,165,215,change,valid,clock,1,1,1,0.6246255598161952,0,j,change,0.24147078179885284,0.05764080038713071,0.5003954473208978,0.03532662729912772,0.3532864783314835,1.0010821080772985,4.626640320617298
16,22,female,337,15,15,same,catch,anti,1,1,1,0.5833268120341017,0,j,change,1.2439942039545713,0,0.49987940941400666,0.03532406154226919,0.35331951245461823,1.0010314343739992,7.063873882772896
16,22,female,338,45,95,change,valid,clock,3,1,1,0.16473636203863862,0,j,change,0.7989825490030853,0.06062542836076942,0.49982616995339413,0.03531860930797848,0.353317588137088,1.0010651099364622,4.719633943427652
16,22,female,339,165,165,same,catch,anti,3,0,2,0.8476325117353554,1,f,same,1.9276546285618679,0,0.49987459861904426,0.03532406154226919,0.35327910178011734,1.0010955783022837,8.076246925902069
16,22,female,340,165,215,change,valid,clock,1,0,1,0.20637218616639075,0,j,change,0.03403573073410371,0,0.5007366930212811,0.035335928168933606,0.35331855029562576,1.0010865981525967,5.557116319883335
16,22,female,341,165,165,same,valid,anti,4,0,2,0.2857666546501605,1,j,change,1.1959353275251488,0,0.4996183436242063,0.03532758945857495,0.3532627450781547,1.001077618002455,6.792341407343429
16,22,female,342,15,65,change,valid,clock,5,0,1,0.26147085877209975,0,j,change,0.9331924946473009,0,0.5003951266012336,0.035339776804448775,0.35328583689260995,1.0010442631592014,6.498848937199455
16,22,female,343,45,45,same,catch,clock,2,2,1,0.20481252653962656,0,j,change,0.6986694624865777,0,0.49954105019014605,0.035351322711903777,0.35329674135982714,1.0010676756937755,6.109167193715621
16,22,female,344,15,15,same,valid,clock,5,0,1,0.09360940452643263,0,j,change,0.21613232635900204,0,0.500250802761002,0.03526152121185078,0.3533515844192152,1.0010766558434625,5.5096623207023185
16,22,female,345,105,155,change,catch,clock,3,0,1,0.017762095299985958,0,j,change,0.21422244088171283,0,0.4992379701270693,0.035322137224284234,0.35334100067029794,1.0010317550932086,5.473047362594116
16,22,female,346,135,185,change,valid,clock,1,2,4,0.5722206114969595,1,j,change,0.8771239658390186,0.6559819257045568,0.4999201408090812,0.035281726549328596,0.35335222585854353,1.0010352830095144,5.21453129389829
16,22,female,347,105,155,change,valid,clock,4,0,1,0.419103922145041,0,j,change,0.12979812622779718,0,0.49970108929210255,0.03533432457061281,0.35327717746167764,1.0010490739541638,5.7681245084968396
16,22,female,348,15,325,change,catch,anti,3,0,4,0.24757407661581965,1,f,same,0.9066423603935618,0,0.49953527723573643,0.03533336241162033,0.35330411791164806,1.0010789008802021,6.462341420172379
16,22,female,349,15,325,change,valid,anti,2,2,4,0.3547787868328669,1,j,change,0.8498906987451846,0.6548845690415721,0.5007222606373034,0.03536318933856819,0.3532358046277295,1.0010949368625006,4.932976650326964
16,22,female,350,45,45,same,valid,anti,5,2,4,0.43374445315384946,1,f,same,3.345063868109719,0.6537247487717461,0.49935310847922665,0.03533945608432987,0.3532845540139533,1.0010702414510888,7.5111421211368
16,22,female,351,45,45,same,valid,anti,2,1,1,0.7656084628933968,0,j,change,0.3033696730071824,0.0634942556445928,0.49990378410620906,0.03534939839391882,0.35326274507769995,1.0010878810307986,4.779442704718349
16,22,female,352,105,105,same,valid,clock,3,1,4,0.6151643303310266,1,f,same,1.2362369579359438,0.06621459422052367,0.4990612536039407,0.03532470298159751,0.3533095701459388,1.0010638270578056,5.532196403578382
16,22,female,353,135,135,same,valid,anti,2,2,4,0.5446765670685636,1,f,same,0.8928299275039535,0.652582447353145,0.4991629217302034,0.035315722831910534,0.3533349069984979,1.001034320850522,5.155168012192917
16,22,female,354,75,75,same,catch,anti,5,0,4,1.9394705816694113,1,j,change,0.7257609714988575,0,0.5001180248291348,0.03532919305689575,0.3533175881366333,1.001029510056469,7.935901934195499
16,22,female,355,45,45,same,catch,clock,1,2,4,1.2670254022787049,1,j,change,1.0191886562743093,0,0.4998402816181624,0.03535805782485113,0.35328487473361747,1.00107569368447,7.452054658324414
16,22,female,356,45,95,change,valid,clock,5,0,1,0.37543024540173064,0,j,change,0.808304586162194,0,0.500258820752606,0.03528525446472486,0.3533326619599393,1.0010702414501793,6.392647758746534
16,22,female,357,135,135,same,valid,clock,4,1,4,0.41325720304303104,1,f,same,1.0646137829908184,0.06464242241394205,0.4992042945641515,0.03533304169195617,0.3532710837889681,1.0010500361122467,5.202699304808448
16,22,female,358,105,155,change,catch,clock,3,1,1,0.7449149900512566,0,j,change,0.013731290820032882,0,0.4992251413414124,0.035298083251291246,0.353299948556014,1.0010859567128136,5.979384141312039
16,22,female,359,135,85,change,valid,anti,2,1,1,0.46949475110159256,0,j,change,1.389704514578625,0.0630289141785757,0.5003447736171438,0.0353064219625594,0.3533207953332749,1.0010506775524846,5.579865926360071
16,22,female,360,135,135,same,valid,clock,2,2,4,0.30239500601055624,1,f,same,1.4796808069822873,0.6514478002965127,0.5000718412002243,0.03531893002764264,0.3532749324240285,1.0010891639094552,5.427329098123664
16,22,female,361,165,215,change,catch,clock,1,1,1,0.4258252437148258,0,j,change,0.3887888599956568,0,0.4990644607996728,0.03531796786955965,0.3533124566229162,1.0010772972827908,6.050216678191646
16,22,female,362,165,165,same,valid,anti,4,1,1,0.38274265327527246,0,j,change,0.7309531018081543,0.06565382862700236,0.5000888393415153,0.03533977680490352,0.3533159845383125,1.0010577333841866,4.825900548687969
16,22,female,363,15,325,change,valid,anti,2,1,1,0.15083990060247743,0,j,change,0.8462543794266821,0.06844765391504817,0.5005003226442568,0.03535613350686617,0.35327557386426633,1.0010461874771863,4.732756829083883
16,22,female,364,45,45,same,valid,clock,4,2,4,0.30361758929120697,1,f,same,1.1751520531825008,0.6503114969486841,0.4991459235889124,0.035330796655216545,0.3533262475675656,1.001041376682224,5.131151883842904
16,22,female,365,165,115,change,valid,anti,5,1,4,0.35817135922297894,1,j,change,0.797395628205777,0.0712931971824474,0.5004711371566373,0.03532791017823911,0.3533579988115889,1.0010853152734853,4.826792470016699
16,22,female,366,45,45,same,valid,anti,2,0,1,0.11806556022656878,0,j,change,0.08088902202325698,0,0.500039127796299,0.035321175065291754,0.35329321344397613,1.0010792216007758,5.4977915245344775
16,22,female,367,105,105,same,catch,anti,5,2,1,0.21090267185081757,0,j,change,0.7977060848206747,0,0.49949935663607903,0.03535517134787369,0.3533047593509764,1.0010609405808282,6.274504263647032
16,22,female,368,165,215,change,valid,clock,5,2,4,0.5326085283195425,1,j,change,1.609971558581492,0.6491875268055796,0.49958049870656396,0.03531893002855213,0.3533166259785503,1.0010763351237983,5.8624629087726134
16,22,female,369,45,95,change,catch,clock,1,2,4,0.934500068633497,1,j,change,1.2225871299051505,0,0.4991443199915011,0.03532726873891079,0.3532813468173117,1.001088522470127,7.381221159285815
16,22,female,370,165,165,same,valid,clock,3,2,4,0.5290155061529731,1,f,same,1.1448126163404595,0.6481163397449242,0.4994326469504813,0.03535068127257546,0.3533092494262746,1.0010692792920963,5.32036300332129
16,22,female,371,105,105,same,catch,anti,3,1,1,0.4516114237767397,0,j,change,0.7630298769590809,0,0.4995827437433036,0.03533175881329953,0.3532948170422969,1.0010301514948878,6.427376564631231
16,22,female,372,105,55,change,valid,anti,1,0,1,0.170265889413713,0,j,change,0.5366287490514878,0,0.49993168671608146,0.035352605590560415,0.3533166259776408,1.0010214920639555,6.050582298585141
16,22,female,373,75,75,same,valid,anti,3,2,4,0.4673792843332194,1,f,same,1.1361586381990492,0.6470899056446693,0.49989576611551456,0.035303856204336626,0.35330828726728214,1.0010673549741114,5.3681232897624795
16,22,female,374,165,215,change,valid,clock,3,0,1,0.2121778531545715,0,j,change,0.24205801946663996,0,0.4991802405911585,0.035335607449269446,0.35331053230493126,1.0010490739541638,5.720234330600761
16,22,female,375,15,15,same,valid,anti,5,2,4,0.4616807377069563,1,f,same,1.981222185589104,0.6460996164830719,0.5003245682792112,0.03533881464591104,0.3532726873872889,1.0010869188727156,6.215842395800792
16,22,female,376,45,355,change,catch,anti,1,1,1,1.0032777547576188,0,j,change,1.5878123969687294,0,0.4999743424286862,0.03529647965297045,0.3533156638186483,1.001060619861164,7.888339211054699
16,22,female,377,75,25,change,catch,anti,1,1,4,0.33648750412157824,1,f,same,1.328739879691966,0,0.5001295707361351,0.03531187419594062,0.35331309806224453,1.0010410559625598,6.957954616887946
16,22,female,378,45,95,change,valid,clock,1,2,4,0.3084187623553589,1,j,change,0.9749155545177928,0.6451376917728294,0.49980660605433513,0.0353391353655752,0.353266914433334,1.0010641477765603,5.108425689900287
16,22,female,379,105,105,same,valid,anti,3,0,1,1.8731345341930137,0,j,change,0.4510062258095786,0.0011287007849431208,0.500280950407614,0.03534458759986592,0.35329128912599117,1.0010942954240818,6.109829800499938
16,22,female,380,45,45,same,catch,anti,1,2,1,0.04569934201117576,0,j,change,0.31046880231770047,0,0.5005038505596531,0.035327589457665454,0.3532941756029686,1.0010715243297454,5.638809706772918
16,22,female,381,165,165,same,valid,anti,2,0,1,0.10643209659519925,0,j,change,0.2284582237007271,0.002982533600095122,0.5009365013584102,0.035315722831910534,0.35330732510828966,1.0010593369825074,4.073026259241487
16,22,female,382,75,75,same,valid,clock,5,0,1,0.5483423925943498,0,j,change,1.4109374378604116,0.004762908549019479,0.500311098054226,0.03533304169286566,0.35330572150996886,1.001090767507776,5.662707168853558
16,22,female,383,45,45,same,valid,clock,3,0,1,0.2982266128028641,0,j,change,0.7893064373565721,0.006506113866917657,0.49968986410476646,0.03532630657991831,0.3532765360232588,1.001070562170753,4.849360228455225
16,22,female,384,105,105,same,valid,anti,2,2,4,0.46881065610250516,1,f,same,1.1238051589671159,0.6441970257716496,0.49952244845098903,0.0353391353655752,0.3532550478066696,1.001073448646821,5.391152243048964
16,22,female,385,165,215,change,catch,clock,4,2,1,1.0370780772727812,0,j,change,0.6249440344217874,0,0.5000279026089629,0.03530193188635167,0.3533323412402751,1.001064789216798,6.8758956096053225
16,22,female,386,135,135,same,valid,anti,4,1,4,0.41549197751828615,1,f,same,0.9400254266538468,0.0696569300161283,0.4997379720516619,0.03530289404625364,0.3533294547642072,1.0010586955440886,5.0618777237114045
16,22,female,387,75,75,same,valid,clock,4,2,4,0.6445653414957633,1,f,same,1.6905238249792092,0.643193774029081,0.4996975613757968,0.03533304169195617,0.35327942249932676,1.0010766558434625,6.026775920882756
16,22,female,388,105,105,same,valid,clock,3,2,3,0.551787563005746,1,f,same,1.6209443397474388,0.6421984237760203,0.4999951892050376,0.03530417692491028,0.3533275304462222,1.0010372073274993,5.8393085541065375
16,22,female,389,45,355,change,valid,anti,3,1,4,0.5945702805784094,1,j,change,0.9742564756497814,0.06809347594622348,0.49980885109289375,0.03534971911358298,0.35331855029562576,1.0010619027398207,5.332802756136516
16,22,female,390,15,65,change,valid,clock,4,1,4,0.33657377770578023,1,j,change,0.8711951425084408,0.06661078472696222,0.4997062208058196,0.03536351005823235,0.35330347647231974,1.0010885224710364,4.943801900456492
16,22,female,391,105,155,change,valid,clock,3,0,4,0.6043750008011557,1,j,change,0.4171484944781696,0.008390519508685607,0.5000346377210008,0.035319892186635116,0.35331534309898416,1.0010388109249106,4.755803742669741
16,22,female,392,45,45,same,valid,clock,3,2,4,0.39381389537084033,1,f,same,1.4224698748039373,0.6412036914258412,0.4996998064134459,0.035337531767254404,0.35331951245461823,1.0010522811498959,5.579664514423712
16,22,female,393,15,65,change,valid,clock,5,2,4,0.2983010197604017,1,f,same,1.1011017361197446,0.6402025753464815,0.499695957777476,0.03531091203694814,0.3533037971919839,1.0010548469072091,5.1673649802369255
16,22,female,394,45,355,change,valid,anti,1,0,1,0.7055735942531101,0,j,change,2.042250002245055,0.006468969657820123,0.4999640793994331,0.035338173206582724,0.3532765360223493,1.0010673549741114,6.510656551597094
16,22,female,395,75,25,change,valid,anti,3,1,4,0.53161109022858,1,f,same,1.1995116722710009,0.06518503214693214,0.4996151364275647,0.03537601812513458,0.3533175881366333,1.0010596577021715,5.508695992415596
16,22,female,396,75,125,change,valid,clock,1,1,4,0.4001519569674201,1,j,change,0.8259114531556406,0.0637949550458298,0.5003268133168604,0.035337211047590245,0.35331534309989365,1.0010349622898502,5.0147829305306
16,22,female,397,105,105,same,valid,anti,3,1,4,0.4530854512586302,1,j,change,1.3394018835224415,0.06235198055558239,0.5003434907384872,0.035417070239418535,0.3532393325440353,1.0010631856175678,5.544878299724587
16,22,female,398,45,45,same,catch,anti,2,2,1,0.8584632140982649,0,j,change,0.07731716735270311,0,0.4999602307643727,0.035337852486918564,0.3532996278363498,1.001036565888171,6.1685519636384925
16,22,female,399,75,125,change,valid,clock,4,2,4,0.43593464760033385,1,j,change,0.8497351497180716,0.6392100432248464,0.5000500322639709,0.035335607449269446,0.35331855029562576,1.0010359244488427,5.038601495580224
16,22,female,400,135,85,change,valid,anti,5,0,1,0.2831130203203429,0,j,change,0.47650792754757276,0.008312745899393653,0.4994836413734447,0.03537281092758349,0.3533095701459388,1.0010577333841866,4.542519406745669
16,22,female,401,45,95,change,valid,clock,1,1,1,0.21054442800959805,0,j,change,1.566648749129854,0.06090397154730853,0.504516374020568,0.035319250747306796,0.3533445285866037,1.0010663928142094,5.52542761550103
16,22,female,402,135,135,same,catch,anti,1,2,4,0.8035528039235942,1,f,same,1.0964862597284082,0,0.49955644473357097,0.03532662729958247,0.3532813468173117,1.0010830702358362,7.122132285307089
16,22,female,403,45,355,change,valid,anti,4,1,1,0.35418385189404944,0,j,change,0.8626081947722923,0.06331468552490052,0.4999570235677311,0.03533432457061281,0.35327236666671524,1.0010760144041342,4.943453278203378
16,22,female,404,135,85,change,catch,anti,4,2,1,0.18938366664679052,0,j,change,0.18114886907824257,0,0.5005904448644287,0.03529006526059675,0.3533268890068939,1.0010676756937755,5.615819881281823
16,22,female,405,75,25,change,catch,anti,4,1,1,0.061619865118700545,0,j,change,0.24559523641528358,0,0.4997030136100875,0.035342984000635624,0.3532544063673413,1.0010724864878284,5.556364232318629
16,22,female,406,15,325,change,valid,anti,3,2,4,0.5449135788849162,1,j,change,1.1048907179883827,0.6382616698912218,0.4994085929774883,0.035320854345627595,0.3533102115852671,1.0010599784218357,5.402425538521129
16,22,female,407,15,65,change,valid,clock,5,1,1,0.32036909699399985,0,j,change,0.3116060741731417,0.0656038041690731,0.4997001271331101,0.03531187419594062,0.35328359185496083,1.001096861181395,4.284059784708006
16,22,female,408,15,15,same,valid,anti,1,0,4,0.38310121783615614,1,j,change,0.7201281723982902,0.010192445990497567,0.5002376532556809,0.03532951377565041,0.3532701216299756,1.001081787358089,4.708815749130736
16,22,female,409,45,355,change,valid,anti,4,0,1,0.29388118235237926,0,j,change,0.3410292149937959,0.008238213563827007,0.49997498386801453,0.03530994987795566,0.3533509429798869,1.0010596577021715,4.272820164798759
16,22,female,410,105,55,change,valid,anti,2,2,4,0.33110165914695244,1,j,change,1.2996310441221794,0.6373511575107529,0.4999175750517679,0.03531155347627646,0.3533467736242528,1.0010574126645224,5.273788096683347
16,22,female,411,45,45,same,catch,anti,3,2,4,0.24702468386658438,1,j,change,0.880955603421171,0,0.4999448362214025,0.03534105968356016,0.353306042229633,1.001110972844799,6.297794603442526
16,22,female,412,105,155,change,catch,clock,3,0,4,0.28928302482199797,1,f,same,1.6494726727623856,0,0.5007482389282814,0.03530193188726116,0.3533095701459388,1.0010365658872615,7.075998688897926
16,22,female,413,15,325,change,catch,anti,2,0,4,0.369109502666106,1,f,same,0.9103684812125721,0,0.5001696606914265,0.035321495784955914,0.35331373950157285,1.0010452253181938,6.4284836888400605
16,22,female,414,105,105,same,catch,anti,3,1,1,0.14266764336480264,0,j,change,0.7250778386569436,0,0.499125076812561,0.035316043551574694,0.3533021935936631,1.0010808251990966,6.073288928629154
16,22,female,415,75,75,same,valid,clock,4,1,1,0.4945365408721045,0,j,change,0.2230380617247647,0.06804640691016628,0.5000949330151343,0.0353503605529113,0.3532646693956849,1.0010904467890214,4.4373628121720685
16,22,female,416,75,125,change,valid,clock,3,1,1,1.0077485865886047,0,j,change,0.498540084182423,0.07055259977714476,0.499671903804483,0.03530706340188772,0.35332560612823727,1.0010599784227452,5.191069689813048
16,22,female,417,75,125,change,valid,clock,4,1,1,1.183074149098502,0,j,change,0.38276446221061633,0.07296504197775738,0.4992607412214056,0.03532374082260503,0.3533156638186483,1.0010041732039099,5.273032160483126
16,22,female,418,135,85,change,valid,anti,4,1,1,0.1834991026262287,0,j,change,0.343263027310968,0.0752439084897476,0.5000407313946198,0.03532438226193335,0.3532864783310288,1.0010772972827908,4.284751256259369
16,22,female,419,45,355,change,valid,anti,2,2,4,0.35242534608823917,1,j,change,1.1134869665947917,0.6364717753607433,0.4998149447656033,0.03540327929385967,0.35327557386335684,1.0010349622898502,5.14377540901387
16,22,female,420,135,185,change,valid,clock,3,2,4,0.3514003261079779,1,j,change,0.8023728763546387,0.6356173938593616,0.4999743424277767,0.035314439953253896,0.3533015521552443,1.0010789008811116,4.790426390351968
16,22,female,421,15,15,same,catch,anti,3,0,1,0.1787229456949717,0,j,change,0.42826527876331966,0,0.5004393859117044,0.0353455497588584,0.35328647833193827,1.0010699207314246,5.815745923332543
16,22,female,422,105,55,change,valid,anti,4,2,4,0.3651104494310857,1,j,change,0.8953677820445591,0.634782380782718,0.5005846719104738,0.03532245794394839,0.35328359185405134,1.001081787358089,4.956069426822978
16,22,female,423,15,325,change,valid,anti,4,2,4,0.35097056178528874,1,j,change,0.7987506687004498,0.6338934318340905,0.4997716476136702,0.035313477794261416,0.35329385488330445,1.0010882017504628,4.790144477785361
16,22,female,424,45,355,change,valid,anti,5,1,4,0.8801615015836433,1,j,change,0.6848355413812897,0.07766163426840973,0.4999387425477835,0.03531187419594062,0.3532871197703571,1.0010837116751645,5.23818276401289
16,22,female,425,45,95,change,valid,clock,1,0,1,0.273753458961437,0,j,change,0.23076355649845937,0.010077167098433065,0.5002713288176892,0.03533977680490352,0.3533021935945726,1.001053564029462,4.272803808096796
16,22,female,426,135,85,change,valid,anti,5,2,4,0.508693426658283,1,j,change,0.9026025757639218,0.6330136229705733,0.4998537518422381,0.035362868619813526,0.35330091071591596,1.0010381694864918,5.10839907016998
16,22,female,427,105,155,change,valid,clock,5,0,1,0.18182013529258256,0,j,change,0.2865251566072402,0.011897528723445516,0.5003835806928691,0.03536479293688899,0.3533021935936631,1.0010359244479332,4.213782092811016
16,22,female,428,15,65,change,catch,clock,2,1,1,0.15664075679615053,0,j,change,0.35223548005978955,0,0.5004249535277268,0.035319571466970956,0.3533070043886255,1.0010766558434625,5.745734749460098
16,22,female,429,15,15,same,catch,anti,2,2,1,0.15564460158293514,0,j,change,1.1174449677164375,0,0.49975689451002836,0.035310591316374484,0.35331790885629744,1.0010362451685069,6.521923753394731
16,22,female,430,165,115,change,valid,anti,5,0,1,0.18243174765211734,0,j,change,0.43075470463645615,0.013627720695339324,0.49976010170666996,0.035304176924000785,0.35334260426861874,1.0010320758128728,4.366507504198125
16,22,female,431,45,95,change,valid,clock,5,2,4,0.4045297801012566,1,j,change,0.9721252936187739,0.6321371349658189,0.49956125552762387,0.03534041824423184,0.35327878105999844,1.0010712036091718,5.073099383320368
16,22,female,432,45,45,same,valid,anti,4,2,4,0.3394233717381212,1,f,same,1.5652558637166294,0.6312583801637996,0.49931558428033895,0.035375055965232605,0.3532678765923265,1.001042338842126,5.567053818038403
16,22,female,433,135,185,change,valid,clock,2,2,4,0.27442183869879955,1,j,change,1.157131137129909,0.6303719248375462,0.5005234144582573,0.03529647965297045,0.35332977548387134,1.0010721657681643,5.156792457187294
16,22,female,434,165,115,change,catch,anti,5,2,1,0.16785311553485371,0,j,change,0.23800925468640344,0,0.4996709416464,0.03533881464591104,0.35332881332396937,1.0010689585715227,5.626690673600933
16,22,female,435,75,25,change,valid,anti,2,1,1,0.16351794811271247,0,j,change,0.4032680690233974,0.0763312813127039,0.5003851842911899,0.035354529908545373,0.35327076306930394,1.001072807208402,4.261000042334672
16,22,female,436,75,75,same,valid,clock,1,2,4,0.42322741460156976,1,f,same,1.1309976176944474,0.6294813572983331,0.5003784491791521,0.03534587047761306,0.35329802423802903,1.0010407352428956,5.214811602867485
16,22,female,437,165,165,same,valid,anti,2,2,4,0.4182498457339534,1,f,same,1.2188629334041252,0.6286250117783616,0.4999162921722018,0.03532406154226919,0.3532736495462814,1.001094616143746,5.367173638897839
16,22,female,438,15,15,same,valid,clock,1,0,1,0.3558936083145454,0,j,change,0.24979281510968576,0.015302727944805,0.5007594641165269,0.03534426688020176,0.3533021935945726,1.0010612613004923,4.249759460267342
16,22,female,439,165,215,change,valid,clock,4,1,1,0.3492213568497391,0,j,change,1.124839159098883,0.07871810092948602,0.5002036569740085,0.035352605590560415,0.3533037971919839,1.00105645050553,5.214800377679239
16,22,female,440,105,105,same,valid,anti,5,0,1,0.28137279553357075,0,j,change,0.2182683191858814,0.0170908604928717,0.4998729950211782,0.03532406154226919,0.3532996278372593,1.0010394523651485,4.261256618049629
16,22,female,441,165,215,change,valid,clock,2,2,4,0.4082507694065498,1,j,change,1.0538080967598944,0.6278027703893287,0.49929794469971966,0.03530994987795566,0.3533111737442596,1.0010330379718653,5.2144395680807065
16,22,female,442,165,115,change,valid,anti,4,0,1,0.28328749180491286,0,j,change,0.1410605172304713,0.01888928506675741,0.49956285912594467,0.03537633884388924,0.3532871197703571,1.0010538847482167,4.189587965059218
16,22,female,443,15,65,change,valid,clock,3,0,1,0.2579509606839565,0,j,change,0.12319194300926029,0.020726905006208024,0.5003630546361819,0.035327268738001294,0.35326274507769995,1.0010529225892242,4.154771281993817
16,22,female,444,165,215,change,valid,clock,5,0,1,0.22835751773254742,0,j,change,0.31594573167058115,0.022498951552802293,0.5005862755087946,0.03530064900860452,0.35331534309989365,1.001057733385096,4.284786535419698
16,22,female,445,165,115,change,valid,anti,3,2,4,0.40607244158763933,1,f,same,1.902814892167953,0.6270091429442073,0.5002668387433005,0.03532374082260503,0.35333362411893177,1.0010490739541638,5.921760763671955
16,22,female,446,15,15,same,valid,anti,5,0,1,0.17889260638639826,0,j,change,0.3169893533904542,0.024194271494380193,0.49947273690577276,0.03532630657991831,0.35328679905069293,1.0010542054678808,4.213125258980654
16,22,female,447,105,155,change,catch,clock,4,1,1,0.384285956200074,0,j,change,0.015747013779218832,0,0.5000910843782549,0.03534426687929226,0.353268838751319,1.0010824287974174,5.674668087241116
16,22,female,448,75,125,change,valid,clock,1,2,4,0.5757077961816321,1,j,change,0.9554902071458855,0.6262391086085594,0.4997716476136702,0.035335607449269446,0.3533207953332749,1.0010356037291785,5.27388206753858
16,22,female,449,15,15,same,catch,anti,3,2,1,0.199333352148642,0,j,change,0.5248657146848927,0,0.49972033247104264,0.03530930843862734,0.3532935341636403,1.0010907675068665,5.944819864605051
16,22,female,450,45,45,same,valid,clock,1,2,4,0.29320510534398636,1,f,same,1.1412904732160314,0.6254880406444772,0.4997216153496993,0.035320533625963435,0.3533054007903047,1.0010689585715227,5.132428668744069
16,22,female,451,165,165,same,valid,clock,1,0,1,0.6596359575469251,0,j,change,0.2782422510927063,0.025846071686288496,0.5036959731723982,0.035368962292523065,0.35327300810695306,1.001072807208402,4.571181159131811
16,22,female,452,165,165,same,valid,clock,5,0,1,0.17734641698461928,0,j,change,0.4452438559737857,0.027620809633587567,0.49903399243339663,0.035373452366911806,0.3532861576113646,1.0010712036091718,4.272084433935561
16,22,female,453,105,105,same,catch,clock,1,0,1,0.1630500181527168,0,j,change,0.26593206901361555,0,0.49908562829568837,0.035375697404560924,0.35329225128498365,1.0010567712261036,5.638157363017854
16,22,female,454,75,125,change,valid,clock,1,0,1,0.3019302832462927,0,j,change,0.06330524684472039,0.02941704452687932,0.5001141761931649,0.0353455497588584,0.3532973827996102,1.0010718450485,4.108008754363254
16,22,female,455,45,45,same,valid,clock,2,0,1,0.30997072471109277,0,j,change,0.5522096300564954,0.031238637133880753,0.4999913405699772,0.035401675696448365,0.3532409361423561,1.0010824287974174,4.56680910895102
16,22,female,456,105,105,same,valid,clock,1,2,4,0.28016528607531654,1,f,same,1.1847784532847072,0.6247516408370472,0.49975625307160954,0.03529102741867973,0.3533390763532225,1.001064789216798,5.1671051973262365
16,22,female,457,105,105,same,catch,clock,5,1,1,0.27662774840609927,0,j,change,1.5733399230521172,0,0.5005182829436308,0.03532470298159751,0.35332977548387134,1.0010356037291785,7.0408965653496125
16,22,female,458,45,45,same,catch,anti,2,2,1,0.2935145997998916,0,j,change,0.40662311721553124,0,0.5000715204805601,0.03535934070350777,0.35330572151087836,1.0010657513757906,5.9218823164173955
16,22,female,459,135,135,same,valid,anti,3,2,4,0.6237002836451211,1,f,same,0.9460931215899109,0.6239655647830912,0.4994502865311006,0.03536511365655315,0.3533037971919839,1.0010340001308577,5.296455919650725
16,22,female,460,45,45,same,valid,anti,5,1,1,0.5417762993311044,0,j,change,0.3931875299067542,0.08116632483922795,0.49975144227573765,0.03531027059761982,0.3533166259785503,1.001072486488738,4.590122861281088
16,22,female,461,45,45,same,valid,clock,3,1,1,0.1607809266743061,0,j,change,0.278677146930022,0.08347791368626357,0.5004246328080626,0.03533047593464289,0.3532861576113646,1.001047470355843,4.143802670183504
16,22,female,462,105,105,same,valid,clock,5,2,4,0.3096362141232021,1,f,same,0.9332274530879658,0.6231861555458048,0.4998325843462226,0.03530129044702335,0.35334260426861874,1.0010590162628432,4.967776014532319
16,22,female,463,45,45,same,valid,clock,5,2,4,0.4177815950542936,1,f,same,1.0972207077129497,0.6224088407580763,0.49939448131317477,0.035330155215888226,0.3532996278363498,1.0010307929342162,5.261505496492646
16,22,female,464,75,75,same,valid,clock,2,1,4,0.4773911894462799,1,f,same,0.8503858898748149,0.08568147931380536,0.49965971645815443,0.03530866699929902,0.3533435664276112,1.001049715393492,5.084521813426363
16,22,female,465,105,155,change,valid,clock,1,1,2,0.8979447643805543,1,f,same,2.683760168416484,0.08441213231770975,0.4999727388294559,0.03530994987795566,0.3533111737442596,1.001065751374881,7.323289890788146
16,22,female,466,75,25,change,valid,anti,5,0,2,0.5216947595699821,1,f,same,1.6469733045796602,0.03297461437420554,0.49959012029557925,0.03533977680490352,0.35330572150996886,1.001090767507776,5.86270024130954
16,22,female,467,75,75,same,valid,anti,1,1,4,0.3929906080466026,1,f,same,1.0743748853419675,0.0831005330467881,0.49963021025087073,0.03529391389565717,0.3533220782119315,1.0010631856184773,5.155783152468757
16,22,female,468,45,355,change,valid,anti,3,2,4,0.35367358694111317,1,j,change,0.8255945821474597,0.6216292013297068,0.4999361767904702,0.03531379851301608,0.3533182295759616,1.0010699207305152,4.931818210974598
16,22,female,469,15,15,same,catch,anti,4,2,2,0.803663772921027,1,f,same,2.183153366851002,0,0.5000465043485747,0.035297762531627086,0.3533342655591696,1.0010551676277828,8.2065424882976
16,22,female,470,45,355,change,valid,anti,4,2,4,0.4056862951365474,1,j,change,0.7715465870942353,0.6208429180561578,0.4999567028480669,0.035343625439963944,0.3533236818102523,1.0010692792920963,4.884864855156593
16,22,female,471,75,25,change,valid,anti,2,0,4,0.28718231115726667,1,f,same,1.1638049921939455,0.031110696666332704,0.5002950620719275,0.03532791017732961,0.35331149446392374,1.0010481117951713,5.120811882535236
16,22,female,472,15,65,change,valid,clock,4,2,4,1.2259559690410242,1,j,change,0.687551395322771,0.6200457220767821,0.5003508672898533,0.0353878847508895,0.35327621530268516,1.0010513189918129,5.697952333363901
16,22,female,473,45,355,change,catch,anti,2,0,1,0.3935444908702266,0,j,change,0.9330189853199045,0,0.49956157624637854,0.03534683263660554,0.3532678765923265,1.001081787358089,6.498158427806629
16,22,female,474,75,75,same,catch,clock,3,0,1,0.1673034020650448,0,j,change,0.29130965224976535,0,0.5001244392215085,0.0353471533562697,0.35331149446301424,1.0010359244488427,5.685899047719431
16,22,female,475,45,355,change,valid,anti,5,2,3,1.7797525198948279,1,j,change,0.9362637059539338,0.6192527819738713,0.5004910217739962,0.03533432457061281,0.3532704423496398,1.0010782594417833,6.45198281712419
16,22,female,476,105,105,same,valid,clock,2,1,1,0.1572995149435883,0,j,change,0.23887199052751384,0.08179168222698202,0.499375879573563,0.035346511917850876,0.35329770351927436,1.0010843531154023,4.14213075868156
16,22,female,477,135,185,change,valid,clock,3,1,1,0.1611680352843905,0,j,change,0.2745363356116286,0.08395655877224331,0.4998781265348953,0.03531700570965768,0.35329385488330445,1.0010859567137231,4.155158069883328
16,22,female,478,75,125,change,valid,clock,5,0,1,0.7898763561624946,0,j,change,1.779602102381432,0.029230166592608936,0.4996917884227514,0.0353080255599707,0.3532999485569235,1.001096540461731,6.285825667064273
16,22,female,479,75,25,change,valid,anti,4,2,3,0.42355326576034713,1,f,same,0.9975734351764913,0.6184924397122884,0.5004772308293468,0.03531155347627646,0.3532877612105949,1.0010724864878284,5.14468657352154
16,22,female,480,75,75,same,valid,anti,3,1,1,0.2666857601761876,0,j,change,0.8160971113420601,0.08603875249639083,0.5000667096865072,0.03532919305689575,0.3533419628301999,1.0010295100555595,4.802800395639679
