subject,age,gender,ntrial,memory_ori,test_ori,type,trial_type,which_change,trial,quest,pas,pas_rt,vis,test_key,test,test_rt,contrast,fix_dur,target_dur,mask_dur,retention_dur,trial_dur
17,22,female,1,15,15,same,valid,clock,2,0,1,0.9884951818442005,0,j,change,0.8375707745803993,0.2,0.5101318217651851,0.03531689244186964,0.3533427539081231,1.0010019249531297,5.519311109243745
17,22,female,2,75,75,same,valid,anti,3,0,3,2.1796441177961015,1,f,same,0.9691420584618982,0.3150270229513009,0.5000410519827483,0.035195340086829674,0.3535124140554444,1.0009836439920718,6.781622374356857
17,22,female,3,165,165,same,valid,anti,2,1,4,1.195690952976861,1,f,same,1.2136563269123144,0.2,0.49946792781781824,0.03529797004352986,0.35320741065254424,1.0011670950398184,6.073595621292952
17,22,female,4,15,15,same,catch,anti,3,0,3,1.6074910888332852,1,j,change,0.9865660593752636,0,0.5005394487103558,0.035163588943987634,0.3533065127046484,1.0011581149186668,7.782780168556883
17,22,female,5,105,105,same,valid,clock,1,2,3,2.74757648978607,1,f,same,1.8588915066654863,0.2,0.5003242465196536,0.03534768142890243,0.35327219581279223,1.0010885189791452,8.277143859617695
17,22,female,6,75,75,same,valid,clock,5,2,1,1.3211563958668648,0,j,change,0.6593666833654197,0.11397766455402543,0.5001587557144376,0.03535185077089409,0.35319394047076,1.0011622842606585,5.697775944692694
17,22,female,7,135,85,change,valid,anti,1,1,2,1.3654569374323273,1,j,change,1.680020641450028,0.09338226537841544,0.5001796024243959,0.035344474242720025,0.35328919389939983,1.0010529192129525,6.757798754200621
17,22,female,8,45,95,change,valid,clock,3,2,2,2.2518497446118317,1,j,change,1.0795289156695844,0.24043453680453014,0.5000901219308389,0.0353261932816622,0.35327668587342487,1.0010153951349139,7.028754668861211
17,22,female,9,75,25,change,valid,anti,3,1,1,0.9392886076258264,0,j,change,0.7101319500526415,0.020575447070561637,0.49950705548883434,0.03534222921246055,0.35355474891264294,1.0010262995679113,5.320629134463843
17,22,female,10,45,45,same,valid,clock,2,2,3,2.253222099565164,1,f,same,1.2341120808929418,0.20821230939956695,0.5000817832468556,0.03529989435526204,0.35331966216790534,1.001075048797361,7.146818567555215
17,22,female,11,15,15,same,catch,anti,2,1,1,1.0699391083637693,0,j,change,1.374477789915204,0,0.49909974284776126,0.03531464741149648,0.35329592899029194,1.0010461841220604,7.651301572355123
17,22,female,12,135,185,change,catch,clock,1,1,2,5.986914359791058,1,f,same,2.1073451618634635,0,0.500835792710518,0.03531208166259603,0.353303626237107,1.0010593335852036,13.353275723717616
17,22,female,13,105,105,same,valid,clock,3,0,2,1.389169588947766,1,j,change,0.9848017862743745,0.23704404819608071,0.5003338680782008,0.035300856511184975,0.3533071541418167,1.0010432976544053,6.098550416004059
17,22,female,14,75,75,same,valid,anti,1,1,1,0.9794640663656082,0,j,change,0.8681891393131309,0.10418102663402222,0.499499037523492,0.03534992645916191,0.3533052298300845,1.0010689551436371,5.556310812258403
17,22,female,15,75,25,change,valid,anti,4,2,2,3.524970830641905,1,f,same,1.3712119122590138,0.18435721902886748,0.4995465038784914,0.03532362753276175,0.3532962497089329,1.001037524719436,8.605753114658796
17,22,female,16,165,115,change,catch,anti,4,2,1,1.438101307313218,0,j,change,0.6793362279256598,0,0.5003431689179934,0.035289952078187525,0.35333120803795737,1.0010654272389274,7.334629143443976
17,22,female,17,135,185,change,valid,clock,2,0,2,2.7185751883099556,1,f,same,0.7081136678085613,0.18463693706663242,0.500237652493638,0.03531689244186964,0.35333345306821684,1.0010343175332537,7.134530554541698
17,22,female,18,45,45,same,valid,clock,5,2,3,2.0880565029226545,1,f,same,1.2939453456993988,0.16411084760184697,0.5000339961731015,0.03532555184449393,0.3533084370163806,1.0010397697495819,7.063511265882767
17,22,female,19,105,155,change,valid,clock,5,0,1,0.55654461612869,0,j,change,0.6649154361228966,0.14398830216740016,0.5005609368575961,0.03527584045923504,0.3532468590422013,1.0012065434294755,4.908850807473186
17,22,female,20,15,65,change,valid,clock,2,0,1,0.9558271044433013,0,j,change,1.4163078359896417,0.17532329480148065,0.5004464403119755,0.035290272796828503,0.35331132348380834,1.0010574092734714,6.074840330237635
17,22,female,21,105,155,change,valid,clock,4,2,3,1.5782713779802862,1,f,same,1.7350363919412075,0.14678544476673633,0.49991693387880787,0.03533549412145476,0.3532827795271487,1.0010785767020707,7.087499414688523
17,22,female,22,75,75,same,valid,anti,3,1,1,0.8432657750262251,0,j,change,0.8179742257692624,0.1621238415653195,0.49948139799960245,0.035358906580427174,0.35331805857481413,1.0010208473513558,5.35533602010014
17,22,female,23,105,105,same,valid,clock,1,1,2,1.4888668947189672,1,f,same,1.2678388504418763,0.21253649229096983,0.5001751123637632,0.035307270883436104,0.35329913617647435,1.0010721623297059,6.4515301164401535
17,22,female,24,75,75,same,valid,anti,2,1,1,0.4943316191992153,0,j,change,0.49251667255725806,0.18495527989455487,0.49967575348023274,0.03529668716907963,0.35332126576088285,1.0010211680699967,4.649291308076499
17,22,female,25,75,75,same,catch,clock,2,0,1,0.6996553557763718,0,j,change,0.6590526998413679,0,0.4994499675754014,0.03535730298733597,0.35325487700765734,1.001087877541977,6.568266560786697
17,22,female,26,105,105,same,valid,anti,1,0,1,0.41900155163671116,0,j,change,0.18772622689300533,0.20388298244717867,0.5007729318620022,0.03529700788772061,0.353336018817231,1.0010538813687617,4.273010438108031
17,22,female,27,15,15,same,valid,clock,4,0,2,1.1146017412454512,1,f,same,3.741861604786095,0.22880056588946793,0.5004871715760828,0.0353431913682698,0.3532728372500742,1.0010933297584188,8.58388459517937
17,22,female,28,135,135,same,valid,clock,1,0,3,1.5419881603515933,1,j,change,1.5263188109805697,0.2042943333816067,0.49983066057131964,0.03529957363662106,0.3533302458821481,1.0010394490310546,6.745784955602971
17,22,female,29,165,165,same,valid,anti,3,2,2,1.438929723495562,1,f,same,2.2020552931721795,0.13222582751820972,0.4999627966407161,0.03531657172322866,0.35332671797732473,1.001034958970422,7.346842749738698
17,22,female,30,15,325,change,valid,anti,1,0,1,0.9973438084309691,0,j,change,0.5188268241352034,0.18374752521114424,0.4997305963634062,0.035378470415935226,0.35329753258338314,1.0010339968146127,5.237794251311243
17,22,female,31,75,25,change,valid,anti,5,1,1,0.523716820857544,0,j,change,0.7557660396190613,0.22036926747116914,0.5001654908053297,0.03529925291809377,0.3533084370163806,1.0010776145462614,4.979446106123191
17,22,female,32,45,45,same,catch,clock,5,1,1,0.4392600636690531,0,j,change,0.6999882616986497,0,0.49993457340258374,0.03535954801770913,0.3533254351028745,1.0009794746500802,6.30970193053372
17,22,female,33,45,355,change,valid,anti,2,0,3,3.423013420791108,1,j,change,1.7718574546872787,0.20009469990753437,0.5004788328922132,0.035297970043643545,0.35331260635825856,1.0010506741825793,8.901866518195334
17,22,female,34,105,105,same,valid,clock,1,0,2,2.0160320821244113,1,f,same,2.877977150722927,0.18340892279702178,0.4994429117658683,0.03535762370597695,0.35329047677385006,1.001093971195587,8.59456420433878
17,22,female,35,105,155,change,valid,clock,5,1,1,0.506056771043518,0,j,change,2.096961896704215,0.25482528516115094,0.499608081852557,0.03536275520377785,0.3533119649210903,1.0010635029271953,6.2745072318840585
17,22,female,36,165,215,change,valid,clock,1,2,1,0.35436007335476916,0,j,change,0.7387320325414066,0.11841647710693455,0.4999076330389016,0.03533228693538604,0.353278930903798,1.0010744073601927,4.77867464956671
17,22,female,37,105,105,same,valid,clock,2,1,1,0.4451125369547526,0,j,change,0.6849032616440809,0.28682845664552964,0.5003745993423081,0.03533902202639183,0.35331228563973127,1.0010859532302447,4.826753577135037
17,22,female,38,75,25,change,catch,anti,5,0,1,0.43153523510920877,0,j,change,2.2874568874002534,0,0.49996664526395307,0.03533324909130897,0.3533283215705296,1.001037524719436,7.922906300773775
17,22,female,39,165,115,change,valid,anti,5,1,1,2.504582106851899,0,j,change,1.856328964932004,0.31948468420003234,0.5009817196803397,0.03536275520377785,0.3532814966526985,1.0010532399315935,8.04209912899239
17,22,female,40,105,155,change,catch,clock,2,0,2,0.6689115900651359,1,f,same,1.534488155540771,0,0.4998399614111122,0.03529668716907963,0.35332768013324767,1.0010400904683365,7.417350492206879
17,22,female,41,105,105,same,catch,clock,2,1,1,0.8234886616348831,0,j,change,1.2916060241218474,0,0.4993951246922279,0.03537205604357041,0.35331420995134977,1.0010830667627033,7.381546428188926
17,22,female,42,45,355,change,valid,anti,4,0,2,1.537526964417566,1,j,change,1.720675574519305,0.16867924627541633,0.5001484927187221,0.03537814969729425,0.35325166982147493,1.00106991729956,7.005074089207142
17,22,female,43,165,115,change,valid,anti,1,2,2,3.514051323958597,1,f,same,2.497592686076132,0.15810129038979143,0.49957312352353256,0.035329400467958294,0.3532728372500742,1.0009948691435966,9.748400415907895
17,22,female,44,75,125,change,valid,clock,4,1,3,0.79325227277252,1,j,change,2.4538582128660664,0.35064118877881434,0.4998245669177095,0.03530887447652731,0.3532946461158417,1.0010641443644772,6.9222988597171025
17,22,female,45,165,115,change,valid,anti,5,2,2,3.380167338144588,1,j,change,4.058467003506735,0.14878638983388678,0.5002113535672379,0.03532811759339438,0.3532798930596073,1.0010654272389274,11.127000722899766
17,22,female,46,45,95,change,valid,clock,5,1,4,1.2962189199607792,1,j,change,1.1179465156809556,0.3331365147872576,0.4999522129263596,0.03530855375788633,0.35331773785605947,1.0010327139401625,6.086442967570861
17,22,female,47,165,115,change,catch,anti,5,1,3,1.6032582445531034,1,f,same,1.7062576691838558,0,0.4997427836707402,0.03533196621674506,0.3533116442024493,1.00104971202677,8.51270238146401
17,22,female,48,165,165,same,valid,clock,4,1,3,1.5409009242468983,1,j,change,1.8421419769993008,0.31833180521136323,0.49953046794769307,0.03534254993110153,0.3532962497090466,1.0010506741825793,7.122728750948568
17,22,female,49,105,55,change,catch,anti,1,1,3,1.9846443134343872,1,j,change,1.238824720221146,0,0.4991924305275006,0.035303742978726405,0.35329047677385006,1.001075690234643,8.34643479566057
17,22,female,50,45,45,same,catch,anti,3,2,2,1.2007432333183488,1,j,change,2.9828005021171293,0,0.5001154587014298,0.03528642417336414,0.3533472439687557,1.0010484291522062,9.419592636044058
17,22,female,51,45,45,same,valid,anti,5,2,1,0.3429601301861567,0,j,change,2.276414224768587,0.14021862197858687,0.5104310522328888,0.035266539619328796,0.3533658456484545,1.001061899334104,6.379523655884327
17,22,female,52,45,45,same,valid,clock,3,2,2,0.48669851616330106,1,f,same,1.739300987364345,0.1670517103432826,0.49931975581773713,0.03531785459767889,0.3532984947391924,1.001054843524571,6.215118803796599
17,22,female,53,135,85,change,valid,anti,2,1,3,1.030511565433926,1,j,change,0.9819592571900557,0.30590115562700565,0.4996597175495481,0.03531336453715994,0.35330458839291623,1.001075048797361,5.697243551791871
17,22,female,54,105,155,change,valid,clock,2,1,2,1.2995970491322169,1,f,same,2.0042751791373803,0.2950864867484766,0.4999441949610173,0.035336135558736714,0.3532827795271487,1.0010509949012203,7.099594675814387
17,22,female,55,15,15,same,valid,clock,5,0,2,0.8854402728929927,1,j,change,0.8867035835173738,0.15581069386422436,0.4995128284239172,0.035323306814234456,0.3533321701938803,1.0010359211263449,5.4266494077289735
17,22,female,56,75,75,same,valid,clock,3,2,1,0.6435796302625931,0,j,change,1.6926178272085508,0.16020098801947735,0.4995372030384715,0.03532843831203536,0.35333633953587196,1.0010609371784085,6.015537854738795
17,22,female,57,135,185,change,valid,clock,2,2,1,0.3455980407941297,0,j,change,0.6548538517342877,0.18253534552486786,0.4997206540863317,0.03536500023415101,0.3532712336570967,1.0010670308317913,4.696735212787189
17,22,female,58,105,105,same,valid,anti,5,2,2,0.7658311519121526,1,f,same,1.52673125511933,0.20295614247512178,0.4996680562335314,0.03531176094406874,0.35333184947512564,1.0010618993339904,5.991746627162684
17,22,female,59,45,95,change,valid,clock,3,1,3,2.4060830058263036,1,j,change,0.9504226750627822,0.2854436087743772,0.5000590122251651,0.03533100406093581,0.3532712336568693,1.0010663893947367,7.0287043160385565
17,22,female,60,75,125,change,catch,clock,1,1,1,0.4689951693362673,0,j,change,1.4073777468747721,0,0.5000028864674277,0.03533998418220108,0.3533138892328225,1.0010394490309409,7.110887819684422
17,22,female,61,135,135,same,catch,clock,4,0,1,0.274411657736664,0,j,change,0.6373224100850621,0,0.5004134062946832,0.03533292837278168,0.35325006622838373,1.0011051963472255,6.133998161640875
17,22,female,62,45,95,change,catch,clock,4,2,1,0.24672466114475355,0,j,change,0.9188350986755722,0,0.5001978833854537,0.035306629446267834,0.35331100276516736,1.0010442598102145,6.4160685799029125
17,22,female,63,135,85,change,valid,anti,1,2,1,0.23546679632249834,0,j,change,0.36002973703011776,0.19715747135691544,0.49996343807788435,0.03536788670180613,0.3533116442024493,1.0010365625635131,4.296440857242487
17,22,female,64,45,45,same,valid,clock,4,1,4,2.409379672469413,1,f,same,1.9825092896146543,0.2766790882574927,0.4993309809692619,0.035334531965872884,0.3533174171375322,1.0010564471176622,8.076310183650094
17,22,female,65,135,85,change,valid,anti,4,1,2,0.6492807243621428,1,j,change,1.0409759724029755,0.2685956932701735,0.4991860161553632,0.03527712333357158,0.3533488475618469,1.0010833874812306,5.355158021268608
17,22,female,66,105,105,same,catch,clock,1,0,1,0.3712484741811295,0,j,change,1.0907518221629289,0,0.4996834507269341,0.03530727088354979,0.3533296044447525,1.0010352796889492,6.6751835632992425
17,22,female,67,165,215,change,valid,clock,4,2,3,1.2490995824884976,1,j,change,0.9540147235502445,0.21597693149196787,0.49984637578336333,0.03533934274491912,0.3532779687477614,1.0010718416112923,5.90985401530088
17,22,female,68,135,135,same,valid,anti,5,2,3,0.6142890405958497,1,f,same,1.6928686291651047,0.21108874858097632,0.4990849897915268,0.03542946467564434,0.35330907845354886,1.0010609371784085,6.003213921240558
17,22,female,69,105,105,same,valid,clock,4,1,4,0.5239499832905494,1,f,same,1.1954536212017501,0.26107412650702916,0.49951539417270396,0.035326834718944156,0.35330426767427525,1.001057729992226,5.461312034196226
17,22,female,70,45,95,change,valid,clock,2,0,2,1.0767723391741129,1,f,same,1.081593702112741,0.14431387670804638,0.49979602296093617,0.03528963135977392,0.35335558265273903,1.0010551642433256,5.874156429862978
17,22,female,71,135,135,same,valid,clock,5,0,4,0.5751052438135957,1,f,same,1.6677053673543014,0.13355053400549471,0.4999573444242742,0.0353175338791516,0.35330939917207616,1.000989416927041,6.097665232626923
17,22,female,72,135,185,change,catch,clock,5,1,2,0.4684675872144908,1,j,change,1.5097427900850562,0,0.500553239610781,0.03528770704792805,0.35332479366570624,1.0010580507107534,7.146831396299831
17,22,female,73,15,325,change,valid,anti,5,0,1,0.4325580067722967,0,j,change,0.6868747189703299,0.12366154932905507,0.5002681207620299,0.03534287064962882,0.35331068204664007,1.0010246959748201,4.77894854326405
17,22,female,74,15,15,same,catch,clock,3,2,1,0.9737851018505808,0,j,change,0.7521839334085598,0,0.49991725459744885,0.03529957363662106,0.35333633953587196,1.00104361837316,6.969196901344958
17,22,female,75,45,45,same,valid,clock,1,0,1,0.21954889002495293,0,j,change,0.8987545854745349,0.13211266260851137,0.5000227710218041,0.03531432669296919,0.35332832157041594,1.0010461841220604,4.8264132946846985
17,22,female,76,165,165,same,catch,anti,5,2,1,0.3537927221248083,0,j,change,1.7543240887262073,0,0.4996308528741338,0.03531432669296919,0.35333152875659835,1.0010359211264586,7.310540930430307
17,22,female,77,135,135,same,valid,anti,2,2,2,0.5143242554997869,1,f,same,2.1264718579036526,0.20630382574077386,0.499991340597262,0.035328117593280695,0.353262894972886,1.0010859532303584,6.321436703936115
17,22,female,78,135,135,same,valid,clock,2,2,4,0.5325385070805169,1,f,same,1.8394950862700625,0.20197982484282892,0.499838678536662,0.03531176094406874,0.3533405088778636,1.001054843524571,6.0391417826440374
17,22,female,79,15,15,same,catch,anti,4,2,1,1.1793250027742488,0,j,change,1.3646990793452005,0,0.500077293186223,0.03530983663245024,0.35326161209854945,1.0010930090397778,7.699847145508102
17,22,female,80,15,15,same,catch,anti,5,1,1,0.45127225867372545,0,j,change,0.8642680335267414,0,0.49971327755815764,0.035330362623653855,0.3532831002457897,1.0010750487972473,6.533389694284779
17,22,female,81,135,85,change,valid,anti,5,0,1,0.3171833336648433,0,j,change,0.2263349751988244,0.14044568157736848,0.49998075688290555,0.03531817531643355,0.3532911182112457,1.0010471462778696,4.213407769985679
17,22,female,82,45,95,change,valid,clock,2,1,1,0.3631670065215076,0,j,change,0.7791473888053133,0.25397471936273425,0.4997883257142348,0.03526044596560496,0.35338605092101716,1.001055484961853,4.826117592121591
17,22,female,83,45,45,same,valid,anti,5,0,2,0.5842733061406307,1,f,same,1.7872782471317805,0.14871550578135392,0.4995942909522455,0.03531593028583302,0.35333441522425346,1.0010525984941978,6.062472137570467
17,22,female,84,165,165,same,valid,anti,3,0,2,0.9844801055035077,1,f,same,2.9633133183535847,0.14024328718365583,0.49986754321207627,0.03533581484020942,0.35329560827176465,1.0010686344248825,7.59364759053733
17,22,female,85,75,75,same,valid,clock,3,1,3,0.7249485086263121,1,j,change,1.3751458467900193,0.26505518054051225,0.5001850546409514,0.035326514000416864,0.35326963006400547,1.000973060277829,5.77983725454601
17,22,female,86,105,105,same,valid,anti,2,0,1,0.45338803937647754,0,j,change,2.029490397364043,0.13233421499499443,0.5005400901477515,0.035312402381350694,0.35328213808975306,1.0010910847281593,6.169758607927179
17,22,female,87,15,65,change,valid,clock,3,0,1,0.26115058444565875,0,j,change,0.9745487328727904,0.13927244155106544,0.4991372669255725,0.03534543639875665,0.3533049091115572,1.001057729992226,4.884282478693194
17,22,female,88,165,115,change,valid,anti,4,0,1,0.3648417991289534,0,j,change,1.0733015223229359,0.14630242763162882,0.4997985887098366,0.035277444052326246,0.3533491682803742,1.0010192437582646,5.108546894513665
17,22,female,89,15,65,change,catch,clock,4,0,1,0.21463612228103557,0,j,change,0.8707423802065932,0,0.5002001284155995,0.035332928372554306,0.35328181737122577,1.0010859532303584,6.298793969720236
17,22,female,90,165,215,change,valid,clock,3,0,2,0.5401142014843572,1,j,change,3.507593013209089,0.15340094522365533,0.4995343165712711,0.03534543639852927,0.3533116442024493,1.0010262995679113,7.7225803223736875
17,22,female,91,105,155,change,catch,clock,1,0,2,0.45311478711664677,1,f,same,3.758806131370193,0,0.499184412562272,0.03526653961921511,0.35335333762236587,1.0010288653168118,9.38360480025949
17,22,female,92,135,135,same,catch,clock,2,0,1,0.34104640221062255,0,j,change,1.1781405889291818,0,0.49950160327239246,0.035321061783861296,0.35330555054883916,1.001053560650007,6.745676873429602
17,22,female,93,135,85,change,valid,anti,3,0,1,0.40343803940868384,0,j,change,1.6917182114934803,0.1462080727107739,0.4994374595494264,0.03536467951539635,0.3533029847999387,1.001066710113264,5.814501805325108
17,22,female,94,15,15,same,valid,anti,4,2,1,0.36212178455525645,0,j,change,0.5751081302810235,0.1976610185714137,0.5006590767536636,0.03529764932500257,0.35333152875659835,1.0010606164596538,4.649852886371264
17,22,female,95,135,85,change,catch,anti,4,2,1,0.4281590302493896,0,f,same,5.467923648443502,0,0.4998906349524077,0.035321061783861296,0.3532847038386535,1.001091084727932,11.138466092666022
17,22,female,96,15,65,change,catch,clock,4,2,1,0.27639241590281927,0,j,change,1.6103313728874582,0,0.500237973212279,0.035341908493819574,0.35329240108558224,1.0010618993342177,7.0877463680219535
17,22,female,97,75,125,change,valid,clock,4,2,2,0.43684473177972905,1,j,change,1.209831436710374,0.21213714325665256,0.49968762006892575,0.03530021507390302,0.35330619198589375,1.0010724830483468,5.308443109969858
17,22,female,98,165,215,change,valid,clock,4,1,1,1.0343284376704105,0,j,change,0.9135419586541502,0.25878015497973,0.4998024373330736,0.03533196621674506,0.35329432539720074,1.0010426562171233,5.6382223465184325
17,22,female,99,165,165,same,valid,clock,5,2,3,0.4666988240530827,1,f,same,2.2668426984237158,0.2081853684909682,0.4998601666839022,0.03531945819077009,0.35331805857481413,1.0010404111869775,6.474198508145264
17,22,female,100,135,135,same,valid,anti,1,0,2,1.079775869003015,1,f,same,2.855991889667621,0.1527909075220397,0.5006824892127497,0.03535762370597695,0.3532863074319721,1.0010638236458362,7.594791914555344
17,22,female,101,45,45,same,valid,clock,5,1,1,0.45514846385412966,0,j,change,0.9432347294641659,0.2692801497738339,0.5038717151198853,0.035302139385521514,0.3533305666007891,1.001069596580919,5.136017406040764
17,22,female,102,75,125,change,catch,clock,2,2,2,1.5685202492113604,1,f,same,2.4139075778750794,0,0.49964464377467266,0.03531176094406874,0.35333505666130804,1.00103431753314,9.172231669167104
17,22,female,103,15,325,change,valid,anti,3,2,1,0.2647407086212752,0,j,change,0.35682800309677987,0.20457804878131983,0.49926812012085975,0.03533389052859093,0.3533020226439021,1.0010542020875164,4.342497012506101
17,22,female,104,165,165,same,valid,clock,1,1,3,1.6067149497851005,1,f,same,1.228223366403654,0.27947052987225235,0.4995734442422872,0.0352886692037373,0.3533235107913697,1.001061578615463,6.521191482483118
17,22,female,105,75,25,change,valid,anti,4,1,3,1.4481853420047628,1,f,same,3.2581310186858445,0.2737725153049581,0.5000407312641073,0.03530374297861272,0.35331068204664007,1.0010493913082428,8.406328676285284
17,22,female,106,15,325,change,valid,anti,3,1,4,1.0459503181209584,1,j,change,1.13315403024626,0.26823658346572754,0.500108402891783,0.03532491040732566,0.35328374168307164,1.0010439390916872,5.862637179369585
17,22,female,107,75,75,same,catch,anti,3,2,3,1.319098985951996,1,j,change,0.9551619340359139,0,0.5001016678008909,0.03534639855433852,0.35326514000325915,1.0010407319055048,7.463834806821524
17,22,female,108,135,185,change,valid,clock,5,2,4,0.9099412507639499,1,j,change,1.280484143992453,0.21667788053574877,0.5009265560786389,0.03533966346367379,0.3533065127046484,1.0010596543038446,5.875091003907073
17,22,female,109,45,45,same,valid,anti,4,2,4,0.49076619035668045,1,f,same,2.1416745616900243,0.21338608512517426,0.49957697214676955,0.035332286935499724,0.353327680133134,1.0010715208925376,6.369079133469768
17,22,female,110,45,355,change,valid,anti,4,1,2,1.1095581203067013,1,j,change,0.8900554137624113,0.26318448804269123,0.4990323919387265,0.03527391614738917,0.35335205474802933,1.001026620286666,5.708224957168113
17,22,female,111,75,75,same,valid,anti,5,1,2,0.5411818737536578,1,f,same,3.4249367703250755,0.258208175482969,0.5003944838965708,0.03535698226869499,0.3532965704275739,1.0010455426847784,7.64086667149877
17,22,female,112,105,155,change,valid,clock,3,0,3,0.6544757244873836,1,f,same,1.6856184641555956,0.14612321810547427,0.5005618990132916,0.0352851412990276,0.35331100276516736,1.0010493913082428,6.015765564955473
17,22,female,113,105,155,change,valid,clock,1,1,2,1.2061980155215224,1,f,same,2.690562983042355,0.25363349904356763,0.50058883937686,0.03528289626865444,0.3533334530684442,1.001062861490027,7.6058345771871245
17,22,female,114,105,55,change,valid,anti,3,1,3,3.220406812320107,1,j,change,1.7916826758707884,0.24908555193997112,0.5001228352296039,0.03538488478830004,0.3532693093452508,1.001055484961853,8.689593771387763
17,22,female,115,165,215,change,valid,clock,5,1,2,1.358004719694918,1,j,change,2.621457101640317,0.2448660590459137,0.4994162921207135,0.03531015735075016,0.35334307462676406,1.001057729992226,7.616503602632065
17,22,female,116,45,45,same,valid,anti,5,1,4,0.6621986287354957,1,f,same,1.3953123125800175,0.24068094986388228,0.5001731880522584,0.03535441651979454,0.3532965704275739,1.0010465048405877,5.709599557151705
17,22,female,117,135,135,same,valid,anti,3,1,3,0.26884237898798347,1,f,same,1.1200693521932408,0.23670631665242783,0.499923348251059,0.03532875903056265,0.35327540299886095,1.0010843496372672,5.061497473699546
17,22,female,118,75,125,change,valid,clock,5,2,1,0.3071743471291484,0,j,change,1.7458927170575862,0.21001933338717335,0.5002299552470504,0.03530310154133076,0.353291438929773,1.001086594667413,5.732775646424443
17,22,female,119,75,25,change,valid,anti,5,2,1,0.4729361596769195,0,j,change,1.1168249626844045,0.22121788128104242,0.5005788971000129,0.035292838545728955,0.35332960444497985,1.0010330346588034,5.274791067858359
17,22,female,120,165,165,same,valid,clock,5,0,1,0.7558705938874937,0,j,change,0.21074933338627488,0.13997137725293207,0.4995349580083257,0.03529027279705588,0.35333633953587196,1.0010574092734714,4.637657240318958
17,22,female,121,105,55,change,valid,anti,5,1,2,0.6512191476710996,1,j,change,1.0368938658716615,0.23299492469759864,0.4993855031336807,0.0353104780697322,0.3533411503149182,1.0010660686762094,5.320502771329529
17,22,female,122,165,165,same,catch,clock,5,2,1,0.7880008261711282,0,j,change,1.7990640147941122,0,0.49986465674442115,0.0353140059744419,0.35333377378674413,1.0010551642430983,7.8168934040368185
17,22,female,123,75,125,change,valid,clock,5,0,1,0.26033178982152094,0,j,change,0.9284165672975178,0.1455999300726656,0.5008056451608809,0.035340946338010326,0.3533017019253748,1.0010542020875164,4.920886094218076
17,22,female,124,165,165,same,valid,anti,4,0,1,0.10065368868094993,0,j,change,1.3622587314039265,0.15136171053829556,0.5003422067620704,0.03524986225147586,0.35339663463537363,1.0010708794552556,5.1327271537697925
17,22,female,125,45,45,same,valid,anti,4,0,1,0.22294850734351712,0,j,change,2.9068617106233887,0.15679444033281303,0.49957344424205985,0.0353313247794631,0.35326481928473186,1.0010705587367283,6.828281801335379
17,22,female,126,15,325,change,valid,anti,1,1,1,0.1386335077829699,0,j,change,1.010690513592408,0.22923000245161793,0.49971776761890396,0.03535922729906815,0.3532895146179271,1.0010388075938863,4.813794300060408
17,22,female,127,75,75,same,valid,clock,4,1,1,0.43429437735380816,0,j,change,2.195306732076233,0.23543415876243975,0.4998774854891508,0.03530791232083175,0.353359431275976,1.0010609371781811,6.357261935382894
17,22,female,128,135,185,change,valid,clock,3,2,2,0.3722821502772149,1,j,change,1.5230853259045034,0.23201328671120053,0.5000291853939416,0.035324268970043704,0.35331934144915067,1.0010346382518946,5.5568268485099
17,22,female,129,165,165,same,valid,anti,5,1,2,0.7288352975210728,1,f,same,1.2909366843723546,0.24168844884571117,0.49966709407749477,0.03535730298744966,0.3532811759339438,1.001087236104695,5.708849075592752
17,22,female,130,15,65,change,valid,clock,1,0,2,0.5914176340074846,1,j,change,0.7857503436498519,0.16242060783239679,0.5003710714374847,0.035304705134421965,0.35332992516350714,1.0010455426847784,5.061709468703839
17,22,female,131,45,355,change,catch,anti,3,2,2,0.5992066062904087,1,f,same,2.229300980950029,0,0.5003691471258662,0.035270708961206765,0.3533581484016395,1.0010724830483468,8.029756914532982
17,22,female,132,135,85,change,valid,anti,3,1,3,0.7115982755601635,1,j,change,0.7241624273012803,0.2382060677007033,0.5000952534285261,0.03535409580126725,0.3532917596483003,1.0010513156198613,5.097609748306468
17,22,female,133,135,185,change,valid,clock,2,1,3,0.4348238837869758,1,j,change,0.6201953946087997,0.2349551280770794,0.49896343743648686,0.03528578273630956,0.35330266408118405,1.0010843496370398,4.719010724189047
17,22,female,134,135,135,same,catch,clock,5,1,2,0.7046370780226425,1,j,change,2.9660362193947094,0,0.49943713883067176,0.03533356980983626,0.35326995078253276,1.0010808217323302,8.865100298332436
17,22,female,135,105,55,change,catch,anti,3,1,1,0.35365898246232064,0,j,change,1.1568971500303178,0,0.5004939066670886,0.035322023939670544,0.3532898353366818,1.001067992987828,6.723134524140278
17,22,female,136,165,215,change,valid,clock,3,2,1,0.7418526246647161,0,j,change,0.7453167064252284,0.22896249953135495,0.4996116097572667,0.035369811013424624,0.35331966216767796,1.00100320782758,5.226644147943716
17,22,female,137,15,65,change,valid,clock,1,2,2,0.4340432546782722,1,f,same,2.141587646945254,0.23928219632653894,0.49907633038878885,0.03532523112585295,0.3532792516223253,1.0010785767021844,6.321163130957757
17,22,female,138,15,15,same,catch,anti,2,0,2,1.8731031899314985,1,j,change,0.8757401383836623,0,0.49939063463170896,0.03532843831203536,0.3533154928259137,1.0010590128665626,7.922340232418492
17,22,female,139,75,125,change,valid,clock,5,1,1,0.41613464793772437,0,j,change,1.435966283493599,0.2316923263989946,0.5008527907971256,0.035312402381350694,0.353303305518466,1.0010452219660237,5.5929099377228795
17,22,female,140,135,135,same,catch,anti,2,2,1,0.2914427783468909,0,j,change,1.5553367898246506,0,0.49973508642415254,0.035353775082512584,0.35329400467867345,1.0010519570569159,7.122839719589365
17,22,female,141,165,115,change,valid,anti,3,0,2,0.4985689535401434,1,f,same,1.4480275484461345,0.15667642521562264,0.49947979440662493,0.035326834718944156,0.3533257558215155,1.001037204000795,5.638538575072971
17,22,female,142,165,165,same,valid,anti,4,1,2,0.4393713530282639,1,f,same,1.6622630931772164,0.23696982107070977,0.49968345072716147,0.03535858586201357,0.3533151721073864,1.0010516363383886,5.803617256970483
17,22,female,143,15,325,change,catch,anti,3,2,1,0.40580013200769827,0,j,change,1.267693564909223,0,0.4993935210991367,0.0353496057407483,0.3533132477955405,1.0010612578969358,6.851387332512786
17,22,female,144,75,75,same,valid,clock,1,0,1,0.32053259816075297,0,j,change,0.7003253369630329,0.15136561671511944,0.5,0.03529957363662106,0.35330715414193037,1.0010625407714997,4.708742597012588
17,22,female,145,135,135,same,catch,anti,5,0,1,0.9685240336907555,0,j,change,2.4710365433204515,0,0.49911032656200405,0.03535922729906815,0.3532933632413915,1.0010667101134914,8.641240308685155
17,22,female,146,105,105,same,catch,anti,1,0,2,0.9629845817732985,1,j,change,2.274124935295049,0,0.4996391915581171,0.03531657172334235,0.3533456403756645,1.0010336760960854,8.476553544934859
17,22,female,147,135,135,same,valid,clock,4,0,1,2.3070534362113904,0,j,change,2.9332959803052745,0.1561843681062749,0.5004259143206582,0.0353297211863719,0.3532981740206651,1.0010602957411265,9.007981403451822
17,22,female,148,75,125,change,valid,clock,3,0,2,1.5455882268045116,1,f,same,3.270673040842439,0.1611982077707688,0.49902533612907973,0.035336456277264006,0.35330907845354886,1.0010602957411265,8.53529187638992
17,22,female,149,165,215,change,valid,clock,3,1,3,3.2089853810041404,1,j,change,0.8834341779565875,0.23398964639188502,0.49926298862283147,0.03532651400018949,0.35331292707678585,1.0010699172994464,7.770233977058297
17,22,female,150,135,135,same,valid,clock,4,2,3,0.72235614006172,1,f,same,1.220385003454112,0.23650488633002273,0.499479152969343,0.03532491040732566,0.3533045883930299,1.0010750487972473,5.602676460985549
17,22,female,151,165,115,change,valid,anti,4,1,2,0.4223713421240518,1,f,same,1.936490337710211,0.23096084159718508,0.5087777477726831,0.03534287064962882,0.35327508228033366,1.0010782559834297,6.0952162252831386
17,22,female,152,165,165,same,valid,clock,1,0,2,0.40600090186080706,1,f,same,1.4860737563012663,0.15611051943473264,0.49963277718597965,0.035340946338010326,0.3532879110250633,1.0010202059143012,5.603382683375685
17,22,female,153,135,185,change,valid,clock,1,1,4,0.4908486150409317,1,j,change,1.2007586278118652,0.2280121068858077,0.4992575364065033,0.03532907974908994,0.35332832157041594,1.0010574092734714,5.355211260558917
17,22,female,154,105,105,same,catch,anti,1,0,1,0.35088957722223313,0,j,change,0.9871430321636581,0,0.5001584349959103,0.035304384415894674,0.35330138120662014,1.0010737659229108,6.545644673280776
17,22,female,155,75,25,change,valid,anti,2,0,2,0.4470115118740523,1,f,same,1.0668836221191214,0.15136585993418128,0.5004589483380641,0.03535217148942138,0.35328887318087254,1.0010477877149242,5.227019068004665
17,22,female,156,105,55,change,valid,anti,1,1,2,0.3938286682673606,1,j,change,2.423122144401532,0.22524597200829147,0.4995218085450688,0.03536532095290568,0.35327828946651607,1.0010817838881394,6.474210695452712
17,22,female,157,165,165,same,catch,clock,2,2,1,0.15104531818178657,0,j,change,1.168446227354707,0,0.5003479796973807,0.03528995207830121,0.35334339534529136,1.0010699172994464,6.486700119756279
17,22,female,158,165,165,same,valid,clock,2,1,4,0.46102980181512976,1,f,same,1.1475058675471246,0.22259023746987544,0.5005779349442037,0.03532234465842521,0.35332286935386037,1.0010612578969358,5.309863572715585
17,22,female,159,165,215,change,catch,clock,3,2,1,0.3362439616703341,0,j,change,0.6825017206554094,0,0.4992777416789522,0.0353550579570765,0.35329689114632856,1.0010699172994464,6.250235247104001
17,22,female,160,135,85,change,valid,anti,4,2,4,0.3344319014959183,1,j,change,0.9627004250803566,0.2339063671373876,0.4999307247790057,0.03533453196564551,0.3532962497090466,1.0010667101134914,4.979309800711917
17,22,female,161,45,355,change,valid,anti,1,0,4,0.6471222880836649,1,j,change,0.9411548692462475,0.14671270610785217,0.5000022450303732,0.035292517827201664,0.3532779687477614,1.0010519570569159,5.202723670765636
17,22,female,162,15,15,same,valid,anti,1,0,3,0.4265679452007589,1,f,same,1.8595156250901255,0.14237550161626245,0.4997953815236542,0.03532811759350807,0.35327828946651607,1.001067992987828,5.980198511993876
17,22,female,163,75,125,change,catch,clock,2,1,1,0.4047141787775672,0,j,change,0.5971222560115166,0,0.49943264876992544,0.035354737238549205,0.35329913617647435,1.0010663893947367,6.180222052740191
17,22,female,164,105,105,same,valid,anti,2,2,3,0.21001071841601515,1,j,change,1.151270462649336,0.23122422425402928,0.5000423348571985,0.03534511568000198,0.35329079749249104,1.0010750487972473,5.037934277058639
17,22,female,165,15,15,same,valid,anti,4,1,4,0.6760847826074041,1,j,change,0.934348899518227,0.21984086137685283,0.4998450929090268,0.035313043818405276,0.35330426767427525,1.0010618993342177,5.238185207303104
17,22,female,166,45,355,change,catch,anti,2,0,1,0.2707375052837051,0,j,change,0.8735470644944598,0,0.4993717122333692,0.03533100406093581,0.353303305518466,1.0010096221999447,6.297066579260218
17,22,female,167,165,215,change,valid,clock,2,1,4,0.6405283133601642,1,j,change,0.7132881419422574,0.21720319392747223,0.5009993592041155,0.03531689244186964,0.35331068204664007,1.0010461841220604,5.027021505466109
17,22,female,168,45,95,change,valid,clock,2,2,4,0.6410004111612579,1,j,change,0.9655974763293216,0.2286471739486516,0.5003646570651199,0.0352562766236133,0.35338444732815333,1.0010519570569159,5.2626598862475475
17,22,female,169,135,185,change,valid,clock,1,2,3,0.5239891109615655,1,j,change,0.982226736515031,0.22624523468819108,0.4989714554019429,0.035352492208176045,0.3533292837262252,1.0010384868751316,5.178069710115324
17,22,female,170,135,135,same,valid,clock,5,1,4,0.32632156916088206,1,f,same,1.9315224063645928,0.2147076259066762,0.5006741505287664,0.03526493602635128,0.35326995078253276,1.0010525984944252,5.8988649126779364
17,22,female,171,15,65,change,valid,clock,2,2,1,0.20005817835681228,0,j,change,0.9549900288582194,0.2239761291158823,0.4997001280949007,0.03535890658031349,0.35329015605543646,1.001054202087289,4.778708966458453
17,22,female,172,15,15,same,valid,clock,4,1,3,0.7992375235646705,1,f,same,2.7419276728207933,0.21216853576935826,0.5001398333160978,0.035359548017595444,0.35323723748388147,1.0010987819748607,7.240854227616637
17,22,female,173,165,115,change,valid,anti,3,1,2,0.400805581017039,1,j,change,2.7264962966621624,0.20964590538488234,0.4997803077487788,0.03536692454599688,0.353311323483922,1.0010638236458362,6.8166996899933565
17,22,female,174,165,165,same,valid,clock,3,0,3,0.7894116673583085,1,f,same,2.7039619653378395,0.13806219733485875,0.49966388689153973,0.035326834718944156,0.35327347868746983,1.0010580507107534,7.133770772142952
17,22,female,175,165,165,same,valid,clock,1,2,4,0.3559745708623723,1,f,same,1.4510419827081478,0.23202144168974104,0.5002113535672379,0.03532715543747145,0.35329753258338314,1.001067351550546,5.4624711112708155
17,22,female,176,45,355,change,valid,anti,1,2,4,1.588478889338603,1,j,change,1.007774860663858,0.22970466883589855,0.5000035279047097,0.03533356980983626,0.35327700659195216,1.0010894811350681,6.250819275701815
17,22,female,177,105,155,change,valid,clock,1,0,3,0.5065153986629412,1,f,same,1.3749437940628013,0.1340475358040323,0.5002036563205365,0.03531176094406874,0.3532728372501879,1.0010772938276205,5.6034635044666175
17,22,female,178,105,55,change,catch,anti,3,2,1,0.19970057710111178,0,j,change,0.8981224490844397,0,0.5002716486667396,0.03532491040732566,0.35329272180410953,1.0010509949011066,6.298745541209428
17,22,female,179,135,135,same,valid,clock,2,1,3,0.4103594678379068,1,f,same,1.0921770956877026,0.20722375129782528,0.4999162924414122,0.035342229212346865,0.35332864228894323,1.0010009627972067,5.214764730445495
17,22,female,180,75,75,same,valid,clock,1,2,2,0.6144981491327144,1,f,same,2.2202519052289063,0.22751427445678232,0.49962123131581393,0.03530470513464934,0.353303305518466,1.0010477877149242,6.545357950838934
17,22,female,181,75,75,same,valid,clock,4,0,1,0.1847544482068315,0,j,change,0.7947638196048956,0.130047944196419,0.49939833187818294,0.03536820742033342,0.35332319007261503,1.001067992987828,4.67217746772144
17,22,female,182,15,325,change,valid,anti,2,1,1,0.5628541134406078,0,j,change,1.0407893141689328,0.2049243153300272,0.5003242465197673,0.03529540429462941,0.3533103613278854,1.0010782559834297,5.321662810559928
17,22,female,183,15,325,change,catch,anti,2,1,1,0.3310149653721055,0,j,change,0.9213379867464937,0,0.49949679249311885,0.035320741065334005,0.3532792516223253,1.0010846703557945,6.462728006881207
17,22,female,184,135,135,same,valid,clock,3,1,3,0.42634280073298214,1,f,same,1.2523250495992215,0.2087575625883882,0.5001638872122385,0.035306950164795126,0.3533170964190049,1.001021809507165,5.367845649676383
17,22,female,185,75,25,change,catch,anti,4,1,1,0.8564906071139831,0,j,change,1.960997729953533,0,0.4997225783979502,0.035326514000416864,0.3532763651546702,1.0010756902345292,8.029242481874462
17,22,female,186,15,15,same,valid,clock,1,1,3,0.8673337827669911,1,f,same,1.4519788017826158,0.206498563467268,0.5002722901040215,0.03532651400018949,0.3532593670681763,1.0010756902345292,5.980892547076792
17,22,female,187,15,15,same,catch,clock,5,2,1,0.34549284508852907,0,j,change,0.5584259515239864,0,0.4990481071508839,0.0353313247794631,0.35327957234108,1.0010875568232223,6.132038250184905
17,22,female,188,165,165,same,valid,clock,3,1,2,0.4985388059901652,1,f,same,2.16638336522351,0.2043367447096868,0.5001956383550805,0.035280651238508653,0.3532965704273465,1.001070238018201,6.345391818724693
17,22,female,189,105,105,same,valid,clock,3,2,4,0.47145636398749957,1,f,same,2.176568746997191,0.22545157520878414,0.5001722258962218,0.035303422260085426,0.3533199828864326,1.0010035285463346,6.310685253806923
17,22,female,190,75,75,same,valid,clock,1,1,1,0.5577463487788918,0,j,change,1.7643170393309902,0.202118356492518,0.4990490693066931,0.03531432669296919,0.35331260635825856,1.001035600407704,6.038148196374777
17,22,female,191,135,185,change,catch,clock,4,1,1,0.4241308044456673,0,j,change,0.5049772321856381,0,0.49974759444990013,0.03534479496147469,0.35329560827176465,1.0010246959748201,6.133317276021444
17,22,female,192,75,75,same,valid,clock,3,0,1,0.085659131275861,0,j,change,0.847530370449249,0.1336783417468853,0.5002283516537318,0.035353133645458,0.3532904767737364,1.0010400904684502,4.650025112267713
17,22,female,193,45,45,same,valid,anti,2,1,2,0.38125521568645127,1,f,same,2.0578460922681643,0.20574703864559224,0.4991019878782481,0.035316571723114976,0.3533475646875104,1.0010558056806076,6.121076408644058
17,22,female,194,105,55,change,catch,anti,4,2,1,0.06691761829233656,0,j,change,0.7734495018919461,0,0.4998633738700846,0.03537879113446252,0.3533013812068475,1.0011058377845075,6.062877846618221
17,22,female,195,75,125,change,valid,clock,2,1,2,0.3725153127102203,1,j,change,1.8290441494830247,0.2037055309145483,0.499975625385332,0.0353277968747534,0.35329047677396375,1.0010821046066667,5.944861734997858
17,22,female,196,75,125,change,valid,clock,4,0,1,0.13037628632218912,0,j,change,1.3353417802063632,0.13712074537543134,0.49963149431141574,0.03533805987058258,0.35328181737122577,1.0010705587367283,5.144182260540219
17,22,female,197,165,165,same,valid,clock,5,1,2,0.3127686419297788,1,f,same,1.4181776255147724,0.20159476081295835,0.49949390602546373,0.03537718754137131,0.3533116442024493,1.0010484291522062,5.41458557702731
17,22,female,198,15,15,same,valid,anti,1,1,4,0.3851740764425813,1,f,same,1.411503471137621,0.1994771234188655,0.5000590122251651,0.03535185077112146,0.35330747486045766,1.0010426562171233,5.426771922239823
17,22,female,199,15,325,change,catch,anti,4,0,2,0.2804591279405031,1,j,change,1.1524471792477016,0,0.49990795375788366,0.03533421124711822,0.3532972118650832,1.0010250166933474,6.663523517333942
17,22,female,200,45,95,change,valid,clock,4,2,3,1.1584398065679125,1,j,change,1.2536682191584987,0.2234806007015692,0.500213277878629,0.035311440225541446,0.3533289630076979,1.0010548435243436,6.098112314376067
17,22,female,201,15,15,same,valid,clock,2,1,3,0.9717257676243207,1,f,same,1.5052376557009666,0.19744247131031675,0.5022270700619629,0.035313685255914606,0.35332832157018856,1.0010461841220604,6.182394600637963
17,22,female,202,45,45,same,valid,anti,3,0,2,0.5867947958913646,1,f,same,1.6868246868666574,0.14079219589915185,0.4996731877313323,0.03529668716919332,0.3533065127048758,1.0010785767021844,5.967956361742381
17,22,female,203,75,25,change,catch,anti,4,0,1,0.2946692076134241,0,j,change,1.021521822656723,0,0.49992014106510396,0.03528578273653693,0.3533594312762034,1.001042976935878,6.521348634604692
17,22,female,204,75,25,change,valid,anti,1,2,2,0.5201343939284016,1,j,change,1.2900739512983819,0.22141115534553626,0.5009878133337224,0.03534479496147469,0.3533103613281128,1.0010644650828908,5.499038485592337
17,22,female,205,135,185,change,catch,clock,2,0,1,0.2587865675345711,0,j,change,0.613679354508804,0,0.49879858806843913,0.03529989435537573,0.35333890528454504,1.0010583714292807,6.061028903803162
17,22,female,206,75,75,same,valid,clock,2,1,2,0.510851835055746,1,j,change,5.097383000245827,0.1955047633730525,0.500796023602561,0.03534575711682919,0.35329592899006457,1.0010474669961695,9.326069163610555
17,22,female,207,45,95,change,valid,clock,1,0,2,0.6244564621270001,1,j,change,0.9962562516079743,0.13702937882284022,0.4994223857747784,0.035356020112885744,0.35330971989060345,1.0011093656889898,5.308257413891624
17,22,female,208,105,55,change,catch,anti,2,1,1,0.2333090014813024,0,j,change,0.31771572656543867,0,0.49966709407772214,0.03531208166259603,0.3533052298298571,1.001078897420939,5.685128085393444
17,22,female,209,75,75,same,valid,anti,1,0,3,0.5339118241895449,1,f,same,1.3338857176945567,0.13350478356703815,0.5008669024164192,0.03530246010450355,0.35334115031537294,1.0010025663905253,5.6041177704410075
17,22,female,210,135,85,change,valid,anti,1,0,3,0.47974565730919494,1,j,change,0.6884969137249755,0.12995438241284946,0.49992912118614186,0.03533773915205529,0.35329528755301,1.0010596543038446,4.849331526190781
17,22,female,211,165,165,same,catch,clock,1,0,1,0.22152451669307993,0,j,change,0.8029344470392061,0,0.4997552916966015,0.03531208166259603,0.3533029847999387,1.0010673515507733,6.28618812455943
17,22,female,212,45,45,same,valid,clock,5,0,3,0.2599995253367524,1,f,same,2.1380526863708837,0.12657760537827611,0.5003765236538129,0.03535377508296733,0.3532744408430517,1.0010849910740944,6.109979544566613
17,22,female,213,75,75,same,valid,clock,2,0,1,0.2647929857557756,0,j,change,0.648409652603732,0.12338512765104506,0.5002273894979226,0.035289310641019256,0.3533427539082368,1.0010365625635131,4.579521218422997
17,22,female,214,15,325,change,catch,anti,5,1,1,0.19920891546462371,0,j,change,0.6379500564144109,0,0.4988697876005972,0.035329079749317316,0.3533321701938803,1.0010564471176622,6.050070590167252
17,22,female,215,75,125,change,valid,clock,2,2,3,0.31784690047925324,1,j,change,1.3645698297432318,0.21938204062320432,0.4999688902944399,0.03534415352396536,0.3533135685142952,1.001055164243553,5.379837639408379
17,22,female,216,15,325,change,catch,anti,1,2,1,0.30593765615003576,0,j,change,0.8130444599387374,0,0.5000272610823231,0.035348322865957016,0.3532965704275739,1.00103431753314,6.34588059389398
17,22,female,217,15,15,same,valid,clock,3,1,3,0.2958523385841545,1,f,same,1.6151751861289085,0.1936252316824106,0.49927036515100554,0.03537301819960703,0.35328759030608126,1.0010692758623918,5.626417977176516
17,22,female,218,165,165,same,valid,anti,1,0,2,0.47321069481131417,1,f,same,2.6031520866913525,0.12628140185081635,0.5000718409696674,0.03533324909130897,0.35327700659217953,1.0010885189790315,6.792827962044612
17,22,female,219,165,215,change,valid,clock,5,0,2,1.208772103125284,1,j,change,0.8200736498229162,0.1232014424178134,0.4997517637916644,0.035336135558736714,0.3533154928259137,1.0010388075938863,5.685263107930041
17,22,female,220,15,65,change,valid,clock,4,0,3,1.2416563448728084,1,j,change,0.662510046510306,0.12007170708706177,0.5003197564592483,0.03532106178363392,0.35328759030608126,1.001049070589488,5.544560965080564
17,22,female,221,165,165,same,catch,clock,1,1,3,0.38354001509924274,1,f,same,2.2224036064167194,0,0.4999871712557251,0.035266539618987736,0.3533732221767423,1.0010346382518946,7.8413812324442915
17,22,female,222,165,165,same,valid,anti,5,0,1,0.5355279252903529,0,j,change,0.8831227601813225,0.11706940088924318,0.4996882615064351,0.035300856511184975,0.35334115031537294,1.0010525984939704,5.1556072197608955
17,22,female,223,105,105,same,valid,clock,2,2,2,0.3745698361576615,1,f,same,1.9859352058597324,0.2174595092288795,0.49943329020743477,0.0353489643030116,0.35328791102529067,1.001029186035339,6.380150340057753
17,22,female,224,15,15,same,catch,clock,4,2,1,0.346115359920077,0,j,change,1.1152486306918945,0,0.4995432966925364,0.03534479496147469,0.35328630743151734,1.0010432976546326,6.639219460692402
17,22,female,225,165,165,same,valid,anti,1,2,3,0.969277401717136,1,f,same,1.0449795028735025,0.21563787994103945,0.500605516745054,0.035331324779690476,0.3532879110248359,1.0010644650833456,5.757075533723764
17,22,female,226,105,55,change,catch,anti,4,1,1,0.336310029705146,0,j,change,0.6809318030350369,0,0.5002075049437735,0.03528578273653693,0.35331966216790534,1.0010785767017296,6.180777216663046
17,22,female,227,135,185,change,valid,clock,4,2,2,0.42559777139058497,1,j,change,0.8131717852288602,0.213889813140026,0.4997427836706265,0.0353085537581137,0.35333184947512564,1.0010339968143853,4.9434544217156144
17,22,female,228,105,55,change,valid,anti,2,0,1,0.22680033790902598,0,j,change,0.4603142785849741,0.11990294910957022,0.5001956383548531,0.03533773915205529,0.3532946461159554,1.0010416940617688,4.343580079268577
17,22,female,229,75,25,change,catch,anti,3,2,1,0.3571249885344514,0,j,change,0.6721662425698014,0,0.4994124434974765,0.035334531965872884,0.35325615988222125,1.0010596543038446,6.262193882099837
17,22,female,230,75,75,same,catch,anti,4,0,2,0.4833514966976509,1,j,change,2.5946985854384366,0,0.5005538810478356,0.035333569810063636,0.3532888731810999,1.0010695965811465,8.313100264977948
17,22,female,231,45,45,same,valid,anti,2,2,1,0.12153696057521302,0,j,change,0.7907298208656357,0.21205002091451486,0.49955676687386585,0.035342870649856195,0.35334467821985527,1.0010596543038446,4.62557801512412
17,22,female,232,135,135,same,catch,clock,2,1,1,0.2234135493354188,0,j,change,0.5842043516386184,0,0.49928383533278975,0.03531272309965061,0.3533036262369933,1.0009977556110243,6.0269801327649475
17,22,female,233,75,75,same,valid,anti,2,2,2,1.0153784575868485,1,j,change,2.1194080304089766,0.21826699291602153,0.4995288643544882,0.03530791232060437,0.35333601881757204,1.0010509949011066,6.898478446746594
17,22,female,234,135,185,change,valid,clock,4,1,2,0.47561576370480907,1,j,change,0.7854995416928432,0.19167453308322793,0.49956093621631226,0.03531272309965061,0.3532208808346695,1.0011231565895287,4.93215839137838
17,22,female,235,45,95,change,valid,clock,5,0,2,0.5651061995549753,1,f,same,2.621020924324057,0.12269009069589258,0.4996927515671814,0.03531400597466927,0.35328117593371644,1.0010747280789474,6.886903070495919
17,22,female,236,15,15,same,catch,clock,2,0,1,0.2586342261924983,0,j,change,0.6620135740945443,0,0.49993296980937885,0.03532138250238859,0.3532965704275739,1.001042976935878,6.12165273999517
17,22,female,237,15,15,same,valid,clock,2,2,2,0.2740210224637849,1,f,same,1.849748781109156,0.2165766224838946,0.5002642721387929,0.035348964303466346,0.35328245880828035,1.0010724830485742,5.828038696625299
17,22,female,238,75,75,same,valid,anti,4,2,2,0.3333097070617441,1,f,same,2.85470356299129,0.2149596967683665,0.49947081428535967,0.035334531965872884,0.35330266408118405,1.0010561263989075,6.898697176842234
17,22,female,239,135,185,change,valid,clock,3,1,2,0.622640874048102,1,j,change,1.9190265676884337,0.18970912586931765,0.4993050027615027,0.03534960574052093,0.35329849473964714,1.00103431753314,6.215264410047439
17,22,female,240,75,25,change,valid,anti,3,0,1,0.2892936429079782,0,j,change,2.1916794045409915,0.11974501622801309,0.5001186658873849,0.035297970043302485,0.35330458839280254,1.0010416940617688,6.2158853212863505
17,22,female,241,45,45,same,catch,clock,4,0,1,0.17938497715522317,0,j,change,0.9797892750416395,0,0.5000060936540649,0.03537718754159869,0.353290476773509,1.0010240545375382,6.4046182839119865
17,22,female,242,165,165,same,catch,clock,4,0,1,0.44201022579227356,0,j,change,1.7975460535894854,0,0.49960230891747415,0.03533421124711822,0.3533084370164943,1.0010522777756705,7.499620910597059
17,22,female,243,105,105,same,valid,anti,5,0,2,0.47146919273200183,1,j,change,3.138690274977762,0.12245658838343222,0.49936273211187654,0.03527680261504429,0.35334531965690985,1.0010474669966243,7.310482880361178
17,22,female,244,105,55,change,catch,anti,5,0,1,0.2105838425809452,0,j,change,1.057571557133997,0,0.49945990985224853,0.035304063696912635,0.3533017019253748,1.0010676722690732,6.510110012899531
17,22,female,245,45,95,change,valid,clock,5,2,3,1.2880858166040525,1,j,change,0.825541902207533,0.21326679862564485,0.49946311703843094,0.03534736071014777,0.3533068334231757,1.0010570885547168,5.8625329458195665
17,22,female,246,165,165,same,valid,clock,2,2,2,0.6160337498613444,1,f,same,1.0631324971982394,0.21160816865451146,0.49949935824224667,0.03534030490072837,0.353290476773509,1.0010323932215215,5.379608967035892
17,22,female,247,135,85,change,catch,anti,5,1,2,0.5544118373391029,1,j,change,3.823046069946031,0,0.49905965302059485,0.0353409463382377,0.353291438929773,1.0010407319059595,9.571313387628834
17,22,female,248,135,135,same,valid,clock,4,1,3,0.3559909275118116,1,f,same,1.2839770904279248,0.1878004201293114,0.5005952537489975,0.03532587256313491,0.353282779527035,1.0010695965806917,5.404105454846103
17,22,female,249,105,105,same,valid,anti,3,2,4,0.35193672349987537,1,f,same,1.5849801699682757,0.2099632343737744,0.4992488770035379,0.03534511567977461,0.3532863074319721,1.0010888396977862,5.60322360694272
17,22,female,250,45,45,same,valid,clock,1,1,4,0.26550722611136734,1,f,same,1.204699938871272,0.1859837988623786,0.49891949898619714,0.03534511567977461,0.3533270386960794,1.0010564471176622,5.131110731950685
17,22,female,251,45,355,change,valid,anti,3,1,2,0.44255256096994344,1,f,same,1.6942384183698778,0.18422511982359988,0.5052338070772748,0.03528065123828128,0.3533379431287358,1.0010599750221445,5.879547389061827
17,22,female,252,75,75,same,valid,anti,2,0,2,0.30210987948021284,1,f,same,0.9982764581632182,0.1195963861538612,0.4996318150301704,0.03530791232060437,0.3533081162977396,1.0010670308320186,4.979245015551442
17,22,female,253,105,155,change,valid,clock,2,0,3,0.2657676496264685,1,f,same,1.274864512421118,0.11687502935746226,0.49901443169619597,0.035350567896330176,0.35328534527616284,1.0010708794552556,5.202050803111433
17,22,female,254,165,215,change,valid,clock,1,0,2,0.407734385974436,1,f,same,0.8278241358716514,0.11429298143065131,0.5002238615934402,0.035336135558736714,0.35325199053977485,1.001035600407704,4.896842781810847
17,22,female,255,165,115,change,valid,anti,3,2,2,0.45000734445602575,1,f,same,3.2395569208188135,0.20836988043391436,0.5002196922514486,0.03534094633778295,0.3532709129385694,1.0010833874812306,7.405761966492719
17,22,female,256,15,15,same,valid,clock,3,2,4,0.3656884962724689,1,f,same,1.5411328038057945,0.20685764688483882,0.49937235367042376,0.03529957363707581,0.3533328116309349,1.0010336760960854,5.614162677461536
17,22,female,257,105,105,same,valid,clock,3,1,4,0.370773810630908,1,f,same,1.1754661163986384,0.1824061555214133,0.5004592690565914,0.03529893219911173,0.35332543510321557,1.001054202087289,5.215675250593449
17,22,female,258,165,115,change,valid,anti,4,2,3,0.33847616323055263,1,f,same,1.793631362175347,0.2054077374418335,0.49967575348000537,0.03531977890907001,0.3532843831203536,1.0010651065204001,5.814772171117511
17,22,female,259,165,115,change,valid,anti,5,0,3,0.3645467380029004,1,f,same,1.3507195963561571,0.1116884785121561,0.5003075691515733,0.03529957363662106,0.3533392260032997,1.0010221302259197,5.427624713037403
17,22,female,260,165,165,same,valid,clock,3,2,4,0.3199190634504703,1,f,same,1.3811650937554987,0.2040035983418032,0.4991484920774383,0.035320099627824675,0.3533170964187775,1.0010471462778696,5.390328986740769
17,22,female,261,15,325,change,catch,anti,5,1,4,0.2736804192945783,1,f,same,1.0218114315662206,0,0.5000307889868054,0.03531945819077009,0.3533366602546266,1.0010670308320186,6.533464101003574
17,22,female,262,45,45,same,valid,clock,3,1,4,0.21780386004093089,1,f,same,2.4914964666427295,0.18058086102628831,0.5008175117495739,0.03531721316039693,0.35331228563973127,1.0010564471176622,6.405048367574182
17,22,female,263,105,155,change,valid,clock,5,2,4,0.41563785480320803,1,f,same,1.952731849090469,0.2025156656091313,0.5000978191774266,0.0353460778360386,0.35327636515512495,1.001062540771727,6.062712997250401
17,22,female,264,135,85,change,catch,anti,5,0,1,0.23531894504139927,0,j,change,1.4732453324218113,0,0.499652341021374,0.03533036262388123,0.3533023433624294,1.0010500327452974,6.910193977033032
17,22,female,265,15,15,same,valid,clock,4,2,4,0.33828052487524474,1,f,same,0.9406814885701351,0.20104365501786894,0.5005917258445152,0.03532619328188957,0.3532757237176156,1.001056767835962,4.956026912140715
17,22,female,266,45,45,same,catch,clock,4,2,1,0.2542031778079945,0,j,change,0.6078169389461436,0,0.5003944838963434,0.035303101541558135,0.35334339534529136,1.0010381661568317,6.098886208394106
17,22,female,267,105,155,change,valid,clock,2,2,2,1.5953265524863127,1,j,change,1.9391795632968751,0.19957508003806243,0.4993191143803415,0.03540605221678561,0.3533347359430081,1.0010689551436371,7.251456222871184
17,22,female,268,45,45,same,valid,anti,3,1,3,0.3315903345674087,1,f,same,1.0814333428052123,0.17874801959642656,0.4996433609003361,0.035323948251061665,0.35329881545794706,1.0010477877149242,5.097072223907617
17,22,female,269,15,325,change,catch,anti,4,2,1,0.3188234886615646,0,j,change,0.5133714004946341,0,0.4991840918437447,0.03530374297861272,0.35330041905126564,1.0010843496370398,6.050283868045881
17,22,female,270,45,355,change,catch,anti,3,1,1,0.2838552173543576,0,j,change,0.7367666688692225,0,0.5001930726061801,0.03533260765379964,0.35330202264412947,1.0010128293861271,6.25095686398754
17,22,female,271,105,155,change,catch,clock,3,2,1,0.5049073155273618,0,j,change,0.6174308001477584,0,0.500157152121119,0.035312402381350694,0.3533241522281969,1.001035600407704,6.333430617979957
17,22,female,272,105,155,change,catch,clock,3,0,1,0.15614121625503685,0,j,change,0.8564803441186086,0,0.500133418943733,0.035300856511184975,0.35331100276516736,1.0010763316718112,6.227443058013705
17,22,female,273,45,355,change,catch,anti,2,2,2,0.4133912209049413,1,f,same,2.3951525947095433,0,0.5001318153508691,0.035328438311807986,0.35329753258338314,1.0010670308320186,8.076567399979467
17,22,female,274,165,215,change,valid,clock,2,0,1,0.1432242740370384,0,j,change,0.34356885411716576,0.10908582476531416,0.49996343807788435,0.0353277968747534,0.3532798930596073,1.0010747280789474,4.190308011743127
17,22,female,275,15,325,change,valid,anti,4,0,1,0.1453936147490822,0,j,change,0.64706006867209,0.11150713152948925,0.4993290566576434,0.03535185077089409,0.35331260635848594,1.001036883281813,4.531105215590287
17,22,female,276,75,125,change,valid,clock,1,0,1,0.15274127821749062,0,j,change,0.42496306925158933,0.1138072908808747,0.49961770341087686,0.035288669203509926,0.3533270386960794,1.001075369516002,4.284318014315431
17,22,female,277,75,25,change,valid,anti,4,0,2,0.3268565278103779,1,f,same,2.139594701472106,0.11602226023012727,0.4997719690645681,0.0353358148404368,0.35331453067010443,1.0010516363381612,6.156748336592955
17,22,female,278,75,25,change,valid,anti,1,1,2,0.36860062129608195,1,j,change,1.3356977778689725,0.17700205062436064,0.5001302117575506,0.03528385842446369,0.35325936706840366,1.0011119314381176,5.367718965823315
17,22,female,279,165,165,same,valid,anti,4,2,2,0.26908035220048987,1,f,same,2.8712417390902374,0.19816124263480725,0.5003181528659297,0.03533741843330063,0.3533055505486118,1.0010368832822678,6.8047567702096785
17,22,female,280,15,15,same,valid,anti,2,2,1,0.2362557641154126,0,j,change,0.4592244767313787,0.1968125343597943,0.5004243107277944,0.0353085537581137,0.3533023433624294,1.0010522777756705,4.378750403303911
17,22,female,281,135,135,same,catch,anti,2,1,2,0.3701567480156882,1,j,change,0.6588259517807273,0,0.5004727392383757,0.035290914233883086,0.353347564687283,1.0010599750221445,6.204867033269693
17,22,female,282,15,65,change,valid,clock,5,2,2,0.5193329181097397,1,j,change,2.80450564753437,0.20191378207919622,0.5000394483899981,0.03533709771454596,0.3532847038386535,1.0010907640094047,6.9930525933627905
17,22,female,283,45,355,change,valid,anti,2,1,3,1.151699263437422,1,j,change,1.1606312768640237,0.17532393107660532,0.49975753672697465,0.03532715543769882,0.35329079749226366,1.0010509949015614,5.992256569760684
17,22,female,284,135,135,same,valid,clock,3,0,3,0.3600961257830022,1,f,same,1.4817716368002039,0.1136551855936818,0.4994387424235356,0.03537718754114394,0.3533296044447525,1.0010442598104419,5.496547143391581
17,22,female,285,135,135,same,valid,anti,2,0,3,0.35481132444601826,1,f,same,2.4658585412821594,0.11124414227760371,0.500420141385348,0.03531721316039693,0.35327861018504336,1.0010821046066667,6.451690475747455
17,22,female,286,135,135,same,valid,anti,4,2,2,0.3996663884968257,1,f,same,1.253123318231701,0.200552418004453,0.500169660147094,0.03533517340292747,0.3532779687479888,1.0010721623298195,5.521678974777842
17,22,female,287,15,325,change,valid,anti,1,2,1,0.23180162399057735,0,j,change,0.5165330446011467,0.19919789809035943,0.4996128926318306,0.03534864358471168,0.3533077955794397,1.0010532399314798,4.436771287216743
17,22,female,288,105,105,same,catch,clock,4,2,2,0.3182231034143115,1,f,same,1.344596115841341,0,0.5003762029350582,0.03530053579288506,0.3533081162977396,1.0010702380177463,6.840729532219029
17,22,female,289,75,75,same,catch,clock,4,2,1,0.29998704296804135,0,j,change,0.6677592480814383,0,0.4999797947270963,0.035346719273093186,0.3533244729469516,1.0010439390916872,6.203982491329498
17,22,female,290,105,155,change,valid,clock,3,1,2,0.2411326113742689,1,j,change,1.5944532356979835,0.17368511080372878,0.4998409235672625,0.03534030490072837,0.3532831002457897,1.0009118030225181,5.54438456984235
17,22,female,291,75,75,same,valid,anti,3,2,2,0.3024867238527804,1,j,change,1.704788457208906,0.2039433958239717,0.49962155203411385,0.035330683342635893,0.3532831002457897,1.0010651065204001,5.66224898155815
17,22,female,292,15,325,change,valid,anti,2,0,1,0.15814827334725123,0,j,change,0.535530170320726,0.10883564603400273,0.4997052595927016,0.03534768142890243,0.35327861018504336,1.00108402891874,4.425626315347017
17,22,female,293,105,105,same,valid,anti,1,2,2,0.24052901894083334,1,j,change,1.1620209506227184,0.20266474514573066,0.4999172545976762,0.03532747615599874,0.35332479366570624,1.0010234131000288,5.061762387275394
17,22,female,294,75,25,change,catch,anti,3,0,1,0.13660400038770604,0,j,change,0.8465906649075805,0,0.49985150728116423,0.03533709771454596,0.35330394695574796,1.0010692758623918,6.180631931129938
17,22,female,295,15,15,same,catch,clock,2,2,1,0.10284836616301618,0,j,change,0.5088845470718297,0,0.5000721616879673,0.03530662944649521,0.35333377378674413,1.001030468909903,5.87401114433078
17,22,female,296,15,15,same,valid,anti,5,0,1,0.11169955849845792,0,j,change,0.4811096735788851,0.11108545803038758,0.5006558695677086,0.03529347998301091,0.35333794312919053,1.0010558056806076,4.319899820333831
17,22,female,297,165,165,same,catch,anti,4,0,2,0.6231415158058553,1,j,change,1.2325889881908552,0,0.5000291853939416,0.035310157350977533,0.3533225486353331,1.0010519570569159,7.075228720480482
17,22,female,298,45,45,same,valid,clock,3,0,1,0.25164320182375377,0,j,change,1.5178851942819165,0.11323479555844694,0.500662925377128,0.035329079749317316,0.35332030360541467,1.001050674182352,5.509927203288953
17,22,female,299,105,55,change,valid,anti,4,1,1,0.1490559006128933,0,j,change,0.40238832738214114,0.17197646941482753,0.49938935175714505,0.035331645497990394,0.3533097198910582,1.0010169987281188,4.225059797985523
17,22,female,300,15,15,same,valid,clock,5,2,1,0.40275522947740683,0,j,change,0.8034363716719781,0.20139643456840992,0.4994243100859421,0.035348322865957016,0.35330041905126564,1.0010439390916872,4.920187569074642
17,22,female,301,15,65,change,catch,clock,3,0,1,0.22524100400323732,0,j,change,0.7750691308974638,0,0.5124939143643132,0.0352668603377424,0.3533934274491912,1.0010320725027668,6.227996618342786
17,22,female,302,105,105,same,valid,anti,1,1,2,0.2831092258556964,1,j,change,1.1476476251750682,0.17480054672818676,0.5000269403640232,0.035353454364212666,0.3532750822801063,1.0010805010138029,5.097295123344793
17,22,female,303,45,45,same,valid,anti,1,0,3,0.42701566838695726,1,f,same,1.5816870312296487,0.11529592207346734,0.4991128923111319,0.035330041904671816,0.35331773785628684,1.0010657479574547,5.708996285437024
17,22,female,304,45,355,change,catch,anti,1,0,1,0.20294400445436622,0,j,change,0.36579497485263346,0,0.49906382236304125,0.03535730298699491,0.35329881545794706,1.0010397697496956,5.767200620398398
17,22,female,305,105,105,same,valid,anti,4,2,3,0.2596829760636865,1,f,same,1.0919618934972277,0.20574985314516678,0.5004377809091238,0.03533260765425439,0.3532988154574923,1.001023092381729,5.108860557319531
17,22,female,306,105,55,change,valid,anti,5,2,3,0.23131188666548042,1,j,change,0.7689225586418615,0.20461531550929496,0.500518281281984,0.03531913747201543,0.3533158135442136,1.0010500327452974,4.66173807680434
17,22,female,307,105,55,change,valid,anti,1,0,3,0.2582378179845364,1,j,change,0.7436765514285071,0.11310680357515882,0.4995221292633687,0.03528706561110084,0.35327700659217953,1.001100385567952,4.684107558760388
17,22,female,308,165,115,change,valid,anti,2,0,1,0.3971368807806357,0,j,change,0.4843030688284671,0.11085824303142182,0.5003258501128585,0.035338380589109875,0.35329849473964714,1.0010830667629307,4.602752150578908
17,22,female,309,15,65,change,valid,clock,4,2,2,0.3080139884627897,1,f,same,1.4427369741738403,0.2034123848543258,0.49995958945464736,0.03531721316039693,0.353287590306536,1.0010288653170392,5.497579857331402
17,22,female,310,15,325,change,valid,anti,4,1,2,0.38387260030276593,1,j,change,0.7570036927540968,0.17314943208878936,0.4998316227270152,0.035294762857574824,0.3533347359425534,1.0010352796889492,4.802671778493732
17,22,female,311,75,75,same,valid,clock,2,2,4,0.5960847312926489,1,f,same,1.0474208129703584,0.20222388691045237,0.4998932007010808,0.03532042034657934,0.3533235107911423,1.0010509949011066,5.355786309035466
17,22,female,312,165,165,same,valid,clock,4,0,3,0.3076544628956981,1,f,same,1.8391192040530768,0.11291848773400945,0.5004101991085008,0.0353277968747534,0.3532795723408526,1.0010910847281593,5.862809725984789
17,22,female,313,165,115,change,catch,anti,3,2,1,0.17665502030467906,0,j,change,0.9239935368782426,0,0.5002706865111577,0.03538007400902643,0.35329689114632856,1.0010577299917713,6.321883464966959
17,22,female,314,15,325,change,valid,anti,3,0,2,0.5033316249719064,1,j,change,0.73384780875449,0.11071773102427197,0.50070397735999,0.03531272309965061,0.35329047677396375,1.0010314310657122,4.956075982088805
17,22,female,315,135,135,same,catch,clock,5,2,1,0.2488125393279006,0,j,change,1.7257987336747647,0,0.5004794743294951,0.035311760943841364,0.35330330551823863,1.0010721623298195,7.169816657996307
17,22,female,316,45,95,change,catch,clock,3,0,1,0.2843443132419452,0,j,change,0.6645466097156714,0,0.5001985248227356,0.03529957363662106,0.35332928372645256,1.0010657479574547,6.168418004117029
17,22,female,317,45,45,same,catch,anti,2,1,1,0.2765931857557007,0,j,change,0.6919917844720658,0,0.5008986535590338,0.03534254993110153,0.35331998288620525,1.0010586921480353,6.16903442529474
17,22,female,318,15,15,same,valid,anti,3,1,2,0.3693440470456153,1,f,same,1.9484996462474555,0.17149993985652348,0.5003957667709074,0.03535922729906815,0.353278930903798,1.0010737659226834,6.039450955388929
17,22,female,319,45,45,same,valid,anti,2,0,1,0.19197542782239907,0,j,change,1.86880876767691,0.10853175863059178,0.49968762006892575,0.0353480021476571,0.3532808552154165,1.0010349589706493,5.732212785255342
17,22,female,320,105,55,change,valid,anti,3,2,2,0.4074576058101229,1,j,change,0.6387999607441088,0.2010393952770887,0.49993232837232426,0.03533517340292747,0.3533116442026767,1.0010583714292807,4.720073264960774
17,22,female,321,135,135,same,valid,anti,3,2,1,0.14813030669029104,0,j,change,0.5904333485782445,0.19984915733648578,0.5001039128314915,0.035310798788032116,0.35327861018504336,1.0011196286845916,4.425748829858094
17,22,female,322,15,325,change,catch,anti,5,2,1,0.18108991731241986,0,j,change,0.40501372996368445,0,0.5002819116625687,0.03534030490072837,0.3532792516225527,1.0010622200525177,5.77981544568047
17,22,female,323,105,105,same,catch,anti,3,1,1,0.2993237968721587,0,j,change,0.44153652439808866,0,0.5006051960262994,0.035303101541558135,0.35332479366570624,1.001051636338616,5.9577004218735965
17,22,female,324,135,185,change,valid,clock,5,0,2,0.8090034053902855,1,j,change,1.3979120576727837,0.1105828992202376,0.4999387427446891,0.03531881675371551,0.3533235107911423,1.0010397697496956,5.909948948010879
17,22,female,325,45,45,same,valid,clock,2,0,2,0.2470617364087957,1,f,same,1.1464365916849601,0.10844787329137104,0.49907055745416073,0.03537333891790695,0.35330939917230353,1.0010583714292807,5.096121934651819
17,22,female,326,135,135,same,valid,anti,5,0,2,0.2851890860738422,1,j,change,1.0035336776995791,0.10643999615629575,0.4994775493760244,0.03533260765425439,0.3532593670679489,1.0010772938276205,4.979083052650822
17,22,female,327,75,125,change,catch,clock,4,2,1,0.18024738951044128,0,j,change,0.44005223864769505,0,0.4996712634197138,0.035349285021766264,0.35333281163138963,1.0010256581308568,5.826738182641748
17,22,female,328,45,95,change,valid,clock,1,2,2,0.41171001392558537,1,f,same,2.4601330725677144,0.20398423454055412,0.5000978191778813,0.03532202393944317,0.3532808552154165,1.0010766523905659,6.604565814346188
17,22,female,329,105,55,change,valid,anti,2,2,1,0.16447541018305856,0,j,change,0.7280139371482619,0.20286396120930114,0.49969467587834515,0.035312402381350694,0.35330362623744804,1.0010618993342177,4.57829607331405
17,22,female,330,15,65,change,valid,clock,5,1,1,0.12237018753694429,0,j,change,2.705291023278278,0.1698244038878407,0.500144644095144,0.03532619328188957,0.3532705922198147,1.0010946126326417,6.533598802821416
17,22,female,331,45,95,change,valid,clock,4,1,2,0.6920931315544294,1,j,change,0.8077939754930412,0.1726496783315904,0.5004175756366749,0.035292197108447,0.35333249091263497,1.0010548435247983,5.179643476359161
17,22,female,332,45,355,change,valid,anti,4,2,2,1.1131392643615072,1,j,change,2.113560688621419,0.20667988553256542,0.4999005772297096,0.03524665506529345,0.35336520421151363,1.0010785767017296,6.946387072730886
17,22,female,333,45,45,same,valid,clock,4,2,2,0.29466535898973234,1,f,same,1.7080312431248785,0.20565492499219287,0.49962604209486017,0.03533260765379964,0.35331356851384044,1.0010044907021438,5.732741970969528
17,22,female,334,105,105,same,catch,clock,5,0,1,0.16861973612549264,0,j,change,0.46896373891195253,0,0.4999249518441502,0.03534030490118312,0.3532895146181545,1.0010599750225992,5.885692678442865
17,22,female,335,45,355,change,valid,anti,5,0,2,0.41668275605024974,1,j,change,3.3775916469476215,0.10451177827829375,0.5006023095588716,0.035297970043302485,0.3533283215706433,1.001053881368989,7.464990997428686
17,22,female,336,165,215,change,valid,clock,5,2,2,0.41914234710884557,1,j,change,0.6951800482233921,0.20465614402844945,0.49945285404282913,0.03534383280566544,0.35329240108558224,1.001039128312641,4.778216663384683
17,22,female,337,45,45,same,valid,anti,1,2,2,1.0898403398591654,1,f,same,1.7229472244689532,0.2035946865795634,0.5002992304680447,0.03526910536811556,0.35335654480877565,1.0010548435247983,6.545735436648556
17,22,female,338,165,215,change,valid,clock,2,2,3,0.5488159389451539,1,j,change,1.2801499551956113,0.20254467041505161,0.49949999967930125,0.03535441651956717,0.35327219581267855,1.0010558056806076,5.473963100681885
17,22,female,339,45,45,same,valid,clock,4,0,1,0.13100713983794776,0,j,change,0.6365837951148023,0.10255823930154691,0.49908787625918194,0.03528642417359151,0.35333184947512564,1.001057729992226,4.4601927262301615
17,22,female,340,135,135,same,valid,anti,4,0,3,0.5979545208178934,1,f,same,1.3762619475701285,0.10431937619086114,0.4999262347187141,0.03533260765379964,0.35332479366570624,1.0010795388579936,5.709715657289962
17,22,female,341,135,85,change,valid,anti,3,2,1,0.35583730329517493,0,j,change,1.9283755153146558,0.2014979233599633,0.4998223218876774,0.035320099627824675,0.35331934144915067,1.0010638236458362,5.9798271198374096
17,22,female,342,105,105,same,valid,clock,4,0,3,0.4499229954603834,1,f,same,1.3854710618802528,0.10240492377856124,0.500418858510784,0.035241202848737885,0.35338220229778017,1.0010583714292807,5.56872647128057
17,22,female,343,75,25,change,valid,anti,2,2,3,0.3778770865151273,1,f,same,2.78279331802014,0.20510291371533654,0.49947241787867824,0.03531913747201543,0.3533337737871989,1.0010599750225992,6.863407545482914
17,22,female,344,45,355,change,valid,anti,2,2,3,0.24680836870311396,1,f,same,1.1652874697160769,0.2041702656146245,0.4997222576794229,0.03531432669296919,0.3533417917519728,1.0010644650828908,5.120690584150452
17,22,female,345,165,165,same,catch,clock,1,2,2,0.2623612972170122,1,f,same,1.832442163208725,0,0.4995442588478909,0.03540156215649404,0.35328534527616284,1.001058050710526,7.322670829166782
17,22,female,346,15,15,same,valid,clock,1,0,3,0.9001865940904281,1,f,same,1.0723310277940072,0.10047386225233826,0.5001398333160978,0.0353175338791516,0.35333184947512564,1.0010583714297354,5.709958441281742
17,22,female,347,105,105,same,valid,clock,5,0,2,0.26463070213640094,1,f,same,1.1024843505351782,0.0985563226903917,0.4991468884841197,0.035384884788527415,0.35329528755301,1.001053881368989,5.061191187422537
17,22,female,348,15,15,same,valid,anti,3,2,4,0.35098964143026024,1,f,same,1.0338364553153951,0.20317410528722377,0.4995378444759808,0.03534864358471168,0.35328855246234525,1.001064144364591,5.049483033664728
17,22,female,349,75,125,change,valid,clock,3,2,4,0.7763770214091892,1,j,change,0.7947811384096894,0.20218453002679984,0.5000368826404156,0.03533324909130897,0.35329464611550065,1.000974663870693,5.238717600203927
17,22,female,350,45,95,change,valid,clock,3,0,3,0.7752221136770459,1,j,change,1.5707184545981363,0.09675103872094154,0.4996741498875963,0.0353601894548774,0.35328726958778134,1.0010856325116038,5.968691448807931
17,22,female,351,135,135,same,valid,anti,3,0,3,0.22848507279377372,1,f,same,1.1928917209052088,0.09501942366162106,0.503417898279622,0.03534254993110153,0.3532757237176156,1.0010455426850058,5.076995559330044
17,22,female,352,75,75,same,catch,clock,2,1,1,0.1334099637010695,0,j,change,0.6965735706053238,0,0.4993200765366055,0.03532298609525242,0.353315172107159,1.000994548424842,6.038105540799279
17,22,female,353,135,135,same,valid,clock,5,2,4,0.34248867382211756,1,f,same,0.8958533648838056,0.20119439476760936,0.5006183454897837,0.035292517826746916,0.3533337737871989,1.001062861490027,4.920811687499281
17,22,female,354,165,215,change,valid,clock,1,1,3,0.2909892822249276,1,j,change,0.8349392783443363,0.1710525074145004,0.4996205898783046,0.03530759160184971,0.3533052298303119,1.0010400904684502,4.77808356515925
17,22,female,355,105,55,change,valid,anti,1,2,3,0.29033084690854594,1,j,change,0.7014241189376662,0.20019679957402184,0.5001032713944369,0.03530406369736738,0.353299136176247,1.0010862739486583,4.6491553233836385
17,22,female,356,45,95,change,valid,clock,4,0,3,0.8163331086161634,1,j,change,0.8499883579142988,0.09332420713690867,0.500641757948415,0.03531111950678678,0.35329240108558224,1.0010660686757547,5.344824788213373
17,22,female,357,135,135,same,catch,clock,1,1,1,0.1952393811670845,0,j,change,0.6929029460570746,0,0.5000153944938575,0.035317854597451515,0.3533164549817229,1.0010651065204001,6.086551370462985
17,22,female,358,165,165,same,valid,anti,1,1,2,0.4048389383187896,1,f,same,1.1173942382260975,0.16942705767270405,0.4999890955673436,0.035311440225541446,0.35332800085188865,1.0010625407712723,5.237859036471491
17,22,female,359,75,125,change,valid,clock,1,1,2,0.4533643061990915,1,j,change,0.9206455552566695,0.16785309028216494,0.5004753049870487,0.03532555184438024,0.3533029847999387,1.0010269410054207,5.073630579621749
17,22,female,360,75,25,change,valid,anti,1,0,1,0.12262932817748151,0,j,change,0.7138012917262131,0.09157710546307715,0.4998232840430319,0.03527904764541745,0.3533619970248765,1.00102790316123,4.567084712690757
17,22,female,361,105,105,same,catch,clock,4,1,1,0.16220472238910588,0,j,change,0.3488190178441073,0,0.4997004488136554,0.03533645627749138,0.35330458839280254,1.0010644650828908,5.70864060849317
17,22,female,362,135,135,same,valid,anti,1,1,2,0.44606731627163754,1,f,same,1.2377422948957246,0.1663477386181233,0.5008505457672072,0.035313043818405276,0.3533116442026767,1.0010538813685343,5.427969164829392
17,22,female,363,15,65,change,valid,clock,2,1,1,0.17084680618791026,0,j,change,0.590377864257789,0.16488770076554066,0.4991664523199688,0.035356020112885744,0.3533170964187775,1.0010509949011066,4.448155515173312
17,22,female,364,135,135,same,valid,anti,1,2,3,0.40428056721020766,1,f,same,1.153457122166401,0.199203122968127,0.5004993588836442,0.0352800098012267,0.3533578276828848,1.0010461841220604,5.309818992827786
17,22,female,365,75,75,same,valid,anti,1,2,3,0.27127887830556574,1,f,same,1.356875469451552,0.19825183841125005,0.49979249505622647,0.035354416520021914,0.35332832157018856,1.0010673515507733,5.308796221165267
17,22,female,366,165,165,same,valid,anti,2,0,1,0.38347971999974106,0,j,change,0.6576527630872988,0.09317429429353806,0.5002482362078808,0.03533517340292747,0.35327476156180637,1.001058050710526,4.731844600285058
17,22,female,367,135,185,change,valid,clock,4,0,2,0.21020988467626012,1,f,same,1.638677766951787,0.09471332546162704,0.500358884130037,0.035302460104048805,0.3533013812070749,1.0010737659226834,5.556661678423097
17,22,female,368,15,15,same,valid,anti,2,0,1,0.23575897098089627,0,j,change,0.3389998967286374,0.09302952416653239,0.4998566387794199,0.03532426897027108,0.3532811759341712,1.001050674182352,4.2724424454413565
17,22,female,369,15,65,change,valid,clock,3,2,2,0.2862057640832063,1,j,change,3.6930251398493965,0.19733762494446747,0.5001193073248942,0.03533132477923573,0.35329368396014615,1.0010461841220604,7.652789386009772
17,22,female,370,105,105,same,valid,anti,5,1,1,0.28755342370368453,0,j,change,1.8538863719604706,0.1673550750412619,0.4998944835756447,0.03532555184483499,0.35328117593371644,1.0010737659231381,5.827558901577049
17,22,female,371,165,165,same,valid,anti,3,1,2,0.6170244496629493,1,j,change,3.1566354436404254,0.17002980847373997,0.4996440023373907,0.03530662944604046,0.3532619328175315,1.0011122521568723,7.451794388578492
17,22,female,372,135,185,change,valid,clock,5,1,3,0.7797798459137084,1,j,change,0.6382486454449463,0.1685207884956565,0.500322642926676,0.035286424173136766,0.3533732221767423,1.0010266202862113,5.108658825310613
17,22,female,373,105,105,same,valid,anti,4,0,1,0.22409667998499572,0,j,change,1.047704328225791,0.09454378580738938,0.5006414372301151,0.035310798788486863,0.35329368396014615,1.0010644650833456,4.967804020400308
17,22,female,374,15,15,same,valid,anti,2,1,3,0.2477118330416488,1,f,same,1.0634971542635867,0.1670849464464561,0.50048588870186,0.03527936836371737,0.3533501304359561,1.001062861490027,4.991782868366045
17,22,female,375,45,355,change,valid,anti,5,2,3,0.5309381211918662,1,j,change,1.2333202266327135,0.19645380044954822,0.49969275156672666,0.035326834718944156,0.35333377378674413,1.0010275824424752,5.449619274932047
17,22,female,376,105,55,change,valid,anti,3,0,1,0.12387050921779519,0,j,change,0.5616443628250636,0.09602549122153921,0.5003143042426927,0.03529604573168399,0.3533061919861211,1.0010596543038446,4.40250250320878
17,22,female,377,135,135,same,valid,clock,1,1,3,0.7300206735221764,1,f,same,1.321666659182938,0.1657010828998546,0.5001244388226951,0.03533517340292747,0.35331453067010443,1.00095349644198,5.803818668261101
17,22,female,378,105,105,same,valid,clock,5,1,2,0.28100018024360907,1,f,same,1.387193000123716,0.16434968495298896,0.5001664529613663,0.035314647411723854,0.3533222279165784,1.0010080186070809,5.391843420040914
17,22,female,379,15,65,change,catch,clock,5,0,1,0.15887053166807164,0,j,change,0.6481886774781742,0,0.4997107118092572,0.03529893219911173,0.3533081162977396,1.0010946126330964,6.0386071447128415
17,22,female,380,135,85,change,valid,anti,5,2,3,0.726250946921482,1,j,change,0.7859267388880653,0.1955942616690458,0.5001327775066784,0.035284820580272935,0.35337258073923294,1.0010410526238047,5.250490218402774
17,22,female,381,15,15,same,catch,clock,1,0,1,0.14175858996713941,0,j,change,0.30199217574863724,0,0.4999204617834039,0.03531881675371551,0.35333345306798947,1.0010631822087817,5.61481213265688
17,22,female,382,135,85,change,valid,anti,5,1,3,0.2889767729166124,1,j,change,0.7072688949765507,0.16294528021209279,0.5001805645802051,0.035284820580272935,0.353255197726412,1.0011308538360026,4.720438242744422
17,22,female,383,15,65,change,valid,clock,1,1,1,0.1641514843818186,0,j,change,0.2599773957522302,0.1615349406933597,0.5000038486236917,0.03530630872774054,0.3533302458822618,1.0010728037668741,4.084760477716372
17,22,female,384,135,135,same,valid,anti,4,1,4,0.6761399462088775,1,f,same,2.118214957161854,0.16388421845436524,0.49896985180885167,0.03537686682284402,0.3532725165314332,1.0010760109530565,6.4742523888721735
17,22,female,385,75,75,same,valid,anti,5,2,4,1.1728144148905812,1,j,change,0.7038772956238972,0.19475338347435578,0.4998569594977198,0.03529893219956648,0.3533206243237146,1.0010262995679113,5.555784192292776
17,22,female,386,105,155,change,valid,clock,3,2,2,0.8857921012136103,1,f,same,2.176677791326256,0.1938571512306572,0.5001087236105377,0.03528225483159986,0.3533443575011006,1.001026941004966,6.804396923923832
17,22,female,387,105,105,same,valid,anti,3,0,3,0.2782795242328575,1,f,same,2.4182353548653737,0.09762164537483022,0.5004073126410731,0.035317854597451515,0.35328342096454435,1.0010782559834297,6.357628837478387
17,22,female,388,45,355,change,valid,anti,3,0,1,0.1667852256482547,0,j,change,0.5475173492736758,0.0960043829706689,0.5000660680348119,0.0353175338791516,0.3532625742541313,1.0010272617237206,4.449722225607275
17,22,female,389,105,55,change,valid,anti,2,1,4,0.5494317186858098,1,j,change,0.6409766779838719,0.1625221419914029,0.4996186655666861,0.035333569810063636,0.3533174171375322,1.0010731244856288,4.908681788763261
17,22,female,390,135,135,same,valid,anti,5,1,4,0.30990141751226474,1,f,same,1.2704459720625891,0.16114819564277527,0.49969467587834515,0.03532651400018949,0.35327283724973313,1.0010795388579936,5.2497669979261445
17,22,female,391,165,115,change,valid,anti,1,1,3,0.37350344676315217,1,f,same,1.3468347317734697,0.15974285002531077,0.5000721616884221,0.03534543639852927,0.35327187509437863,1.001055484961853,5.426671216594968
17,22,female,392,165,215,change,valid,clock,4,0,1,0.14084390047673878,0,j,change,0.42972092990476085,0.0975710441502585,0.5000455420431535,0.03530630872774054,0.3533411503149182,1.001035600407704,4.284484467276798
17,22,female,393,15,15,same,valid,anti,4,0,1,0.21542188288776742,0,j,change,0.2499943874240671,0.09915760087475614,0.49991949962759463,0.0352973286062479,0.3533164549817229,1.0009900583645504,4.190565548791255
17,22,female,394,105,105,same,valid,clock,4,2,4,0.1736633570644699,1,f,same,1.7505145930176695,0.19296916254845276,0.4996590761124935,0.03529540429462941,0.3533427539082368,1.0010535606502344,5.591781328917023
17,22,female,395,75,75,same,valid,clock,4,2,2,0.2314972620251865,1,f,same,1.7184488251755283,0.19208353886521723,0.49967799851037853,0.03532811759350807,0.3533119649209766,1.0010712001740103,5.602775242318785
17,22,female,396,75,75,same,catch,clock,3,1,1,0.26058676112052126,0,j,change,0.5232235556277374,0,0.5003098141819464,0.035333890528363554,0.35332511438400616,1.0010535606502344,6.01568121595983
17,22,female,397,105,55,change,valid,anti,5,0,1,0.12916525283208102,0,j,change,0.36662114600494533,0.10077737318295076,0.5006529831002808,0.03526910536857031,0.3533559033712663,1.0010404111867501,4.213939200730692
17,22,female,398,75,75,same,valid,anti,4,1,2,0.37325553127357125,1,f,same,1.3111207896863561,0.1583606018910179,0.5002148814719476,0.035310798788486863,0.3532917596480729,1.0010705587369557,5.391425844404239
17,22,female,399,45,355,change,valid,anti,5,1,2,1.1644308302957143,1,j,change,0.9220278524871901,0.1570411512945081,0.5003181528663845,0.035306950164795126,0.35333633953587196,1.0010320725027668,5.791760610494293
17,22,female,400,135,135,same,catch,anti,2,1,3,0.6046366931605007,1,f,same,1.696381460154953,0,0.5006375886068781,0.035311760943841364,0.35331613426296826,1.00105933358509,7.546899965939701
17,22,female,401,75,125,change,valid,clock,2,0,2,0.2595482742453896,1,j,change,1.6294182998194628,0.10232930801837681,0.5102168121979958,0.035297007887947984,0.35330458839280254,1.0010885189790315,5.637450056093712
17,22,female,402,105,155,change,valid,clock,1,2,3,0.7581335844342902,1,f,same,1.5370769962005397,0.1911946140510911,0.49910455362714856,0.035352812926703336,0.3533055505486118,1.001019243758492,5.991019878781117
17,22,female,403,135,135,same,valid,clock,1,2,4,0.30772662458412015,1,f,same,1.3842103170049995,0.1902968567370981,0.4997386143290896,0.03536051017317732,0.35330907845354886,1.0010548435247983,5.320216690325196
17,22,female,404,165,165,same,catch,clock,3,1,2,0.5428765509150253,1,f,same,2.008353757763871,0,0.5003402824504519,0.035287065610646096,0.3533219071982785,1.0010718416110649,7.7357227297770805
17,22,female,405,75,125,change,catch,clock,5,2,1,0.19159024476584818,0,j,change,0.5362415242084353,0,0.499940025619253,0.03532362753276175,0.3533174171375322,1.0010410526238047,5.921824196167108
17,22,female,406,45,45,same,valid,anti,1,1,1,0.14352254234927386,0,j,change,0.9465397347912585,0.15576644147042326,0.4992677994018777,0.035326834718944156,0.3533834851723441,1.0009958312994058,4.790404291471532
17,22,female,407,135,85,change,valid,anti,2,2,3,1.528827471986915,1,j,change,1.92990919173144,0.1893938847390598,0.499151378544866,0.035332286935499724,0.3533344152237987,1.0010522777756705,7.11017005142412
17,22,female,408,75,75,same,valid,anti,5,0,1,0.16975251427356852,0,j,change,0.8229116888464887,0.10067273044637878,0.5001449648143534,0.03532330681446183,0.35328438311989885,1.0010593335855447,4.6728663713061
17,22,female,409,105,155,change,catch,clock,1,2,1,0.13574575737402483,0,j,change,0.2895486142065238,0,0.4998486208137365,0.035288669203509926,0.35333954672205437,1.0010388075938863,5.60313637147965
17,22,female,410,165,165,same,valid,anti,5,2,3,0.4333280521668712,1,f,same,0.7485469843149986,0.18852515079591053,0.5005179605632293,0.03536756598305146,0.3532933632413915,1.0010509949015614,4.897033930105408
17,22,female,411,75,75,same,valid,clock,5,1,2,0.44147238067489525,1,j,change,2.725154089258467,0.15808142246971146,0.5000060936540649,0.03532042034703409,0.3533260765398154,1.0010529192131798,6.875425513422215
17,22,female,412,165,115,change,valid,anti,1,0,2,0.4095509362100529,1,j,change,0.8327615989492188,0.10220373565747781,0.49950673477042074,0.03534062561902829,0.35320292059168423,1.0010788974204843,4.9200894291789155
17,22,female,413,75,25,change,valid,anti,5,0,3,0.32842708686803235,1,f,same,1.6184724942095272,0.100571176532576,0.49993296980937885,0.035314005974214524,0.3533004190508109,1.001054202087289,5.673848090986667
17,22,female,414,165,115,change,valid,anti,2,1,2,0.3422667365402958,1,f,same,2.5785536103617233,0.15681115589898126,0.5002309174028596,0.03535185077089409,0.3532757237176156,1.0010567678364168,6.686729754156204
17,22,female,415,135,135,same,valid,anti,2,1,2,0.23125447803386123,1,f,same,2.0233890464328397,0.15558105098472755,0.5004958309787071,0.03530759160184971,0.35332671797732473,1.001069275861937,5.968712936954944
17,22,female,416,135,185,change,valid,clock,3,0,1,0.22519995202037535,0,j,change,0.8952026268134432,0.09893158992352319,0.4998412442855624,0.03530502585317663,0.3533257558215155,1.001030789628203,4.802117897445896
17,22,female,417,165,165,same,valid,clock,4,2,4,0.5400048364367649,1,f,same,0.9684990176388055,0.18768993833615685,0.49998011544585097,0.03529764932500257,0.35329624970881923,1.0010805010138029,5.2383057975021075
17,22,female,418,135,85,change,valid,anti,4,0,1,0.44136718496974936,0,j,change,0.9987421415921744,0.1004725516912038,0.5000368826404156,0.035332928372554306,0.35328053449666186,1.0010465048403603,5.144680015830545
17,22,female,419,165,165,same,catch,anti,2,1,1,0.3201939193031649,0,j,change,1.356664436603296,0,0.4995243742941966,0.035304063696912635,0.3532911182114731,1.0010840289182852,6.9097286143223755
17,22,female,420,45,45,same,valid,anti,3,2,4,0.2536448066994126,1,f,same,1.167452961804429,0.18688268001976693,0.5003944838963434,0.035264936026123905,0.3533472439689831,1.0010548435243436,5.109503598142055
17,22,female,421,45,355,change,valid,anti,3,2,2,0.4069643405800889,1,j,change,1.0637755380212184,0.18609826990295691,0.4996039125107927,0.03538071544608101,0.3533231900728424,1.0010500327452974,5.131634144730015
17,22,female,422,105,155,change,valid,clock,4,1,2,0.20954728001743206,1,f,same,2.075035006436792,0.15437575849734253,0.49997787041593256,0.035325231126080325,0.35319329903359176,1.0011667743215185,6.004271009795502
17,22,female,423,105,105,same,valid,anti,4,1,1,0.19588691205080977,0,j,change,0.28239851340504174,0.15312069820465057,0.499066708830469,0.03533100406093581,0.3532981740208925,1.0010635029275363,4.13008796028771
17,22,female,424,75,25,change,valid,anti,3,2,3,0.2660559756609473,1,f,same,1.704362542887793,0.18533198796038836,0.5002466326145623,0.03533453196541814,0.35330747486068503,1.0010683137065826,5.615665885609815
17,22,female,425,165,115,change,catch,anti,2,0,1,0.14002542657181039,0,j,change,0.5232976416277779,0,0.499758178164484,0.035330041905126564,0.3533100406093581,1.0010279031607752,5.885558938780832
17,22,female,426,45,355,change,valid,anti,1,1,1,0.2737827285327512,0,j,change,0.7165498502563423,0.1551840811519238,0.5004018604245175,0.03532843831226273,0.353286628150272,1.0010782559834297,4.708755105038563
17,22,female,427,135,185,change,valid,clock,1,0,3,0.7482881643927612,1,j,change,1.2538176740331437,0.10196411137927408,0.49954778675282796,0.03535762370620432,0.35327668587342487,1.0010756902347566,5.67418067619019
17,22,female,428,165,165,same,catch,anti,5,1,1,0.2024132151464073,0,j,change,0.5103620977306491,0,0.49963598437216206,0.03534158777529228,0.35328855246234525,1.0010426562171233,5.932853067898122
17,22,female,429,45,45,same,valid,anti,4,1,2,0.44593069014172215,1,f,same,1.467176374070732,0.15735236558341562,0.5002245030304948,0.03532875903056265,0.3532494247911018,1.0010728037673289,5.603848366804414
17,22,female,430,45,95,change,catch,clock,2,1,1,0.2164000746633974,0,j,change,0.5771613708543555,0,0.49934477186980075,0.035315609567078354,0.35331966216790534,1.001030468909903,6.0261953343137975
17,22,female,431,15,15,same,valid,clock,1,2,3,0.5728262173356597,1,f,same,3.016409247215506,0.18457943407949634,0.5008781275673755,0.03531785459790626,0.3533103613281128,1.0010744073601927,7.335022665184624
17,22,female,432,15,325,change,valid,anti,2,2,1,0.15569221019359247,0,j,change,0.6163672972206768,0.18377446383059418,0.5006738298102391,0.035314005974214524,0.3533366602546266,1.001025337412102,4.449735695789514
17,22,female,433,105,105,same,valid,clock,5,2,4,0.26293891144268855,1,f,same,1.1531229333691044,0.18651684577217986,0.49991084022485666,0.035324589688570995,0.3533052298303119,1.0010452219662511,5.120343566608881
17,22,female,434,15,15,same,catch,anti,3,0,1,0.23711913862643996,0,j,change,0.6520886158359644,0,0.5002264273421133,0.035369169575915294,0.353282779527035,1.0010487498707334,6.086787098644891
17,22,female,435,75,25,change,catch,anti,2,0,1,0.1645328188151325,0,j,change,0.355934160317247,0,0.5000769724674683,0.0353226653769525,0.35331998288620525,1.0010301481911483,5.7569106843557165
17,22,female,436,75,25,change,catch,anti,1,2,1,0.2278779524554011,0,j,change,2.504321362617702,0,0.49988454129879756,0.03529572501338407,0.35330651270442104,1.0010955747889057,7.970938403424043
17,22,female,437,105,155,change,catch,clock,2,0,1,0.22916178907098583,0,j,change,0.6193256057254075,0,0.49944900541959214,0.035351209333839506,0.3533045883932573,1.0010635029270816,6.062507737336546
17,22,female,438,75,75,same,valid,clock,5,0,1,0.21676280741667142,0,j,change,0.41184792293006467,0.10037670679948767,0.4995436174108363,0.035342229212346865,0.35330234336288413,1.0010497120265427,4.307447920107734
17,22,female,439,45,45,same,valid,clock,1,2,4,0.3345717348120161,1,f,same,1.375081382348526,0.1857756393608182,0.49958851801693527,0.03532362753276175,0.3532949668342553,1.0010763316718112,5.414191413849494
17,22,female,440,165,165,same,valid,clock,2,0,1,0.29215092504864515,0,j,change,1.5979484271638285,0.10184966489546464,0.49991725459722147,0.03529764932500257,0.3533225486353331,1.001061578615463,5.603146634474797
17,22,female,441,135,135,same,catch,anti,5,0,1,0.1960722874100611,0,j,change,0.6046591434633228,0,0.5002963440001622,0.03532555184483499,0.35329592899006457,1.001070238018201,6.0037597843233925
17,22,female,442,105,105,same,valid,anti,2,1,2,0.7070780674007437,1,f,same,1.2894074980163168,0.15617410914627605,0.5007944200092425,0.03536692454599688,0.35324653832367403,1.001055164243553,5.7570078620960885
17,22,female,443,15,65,change,valid,clock,3,1,3,0.3669607870178879,1,f,same,0.9443501888067658,0.1550257207729075,0.49977581768825985,0.035307591602304456,0.3533135685142952,1.0010692758623918,4.979105182235344
17,22,female,444,45,45,same,valid,clock,2,1,4,0.24022690200581565,1,f,same,0.9117917971720999,0.15389392611215458,0.5000102629956018,0.03534383280566544,0.35329560827176465,1.0010567678364168,4.778752263471233
17,22,female,445,105,105,same,valid,anti,3,1,2,0.6165206007190136,1,f,same,1.4551593682872408,0.15270896812230614,0.5004079540785824,0.03530406369736738,0.35333954672205437,1.0010638236458362,5.7447538452561275
17,22,female,446,135,85,change,valid,anti,2,0,3,0.8009155233585261,1,j,change,0.8840977447707701,0.10325253315392208,0.500181847454769,0.035294121420065494,0.35332479366570624,1.0010651065204001,5.3683844569495704
17,22,female,447,105,105,same,catch,anti,5,1,1,0.18784104415726688,0,j,change,0.6933888347589345,0,0.49977645912531443,0.03532587256313491,0.3533004190508109,1.0010808217325575,6.097781974202917
17,22,female,448,15,15,same,catch,clock,3,2,1,0.1299571070926504,0,j,change,0.31770738788145536,0,0.5004592690565914,0.03533645627749138,0.353262894972886,1.001081463169612,5.673979585618781
17,22,female,449,15,15,same,valid,anti,5,2,1,0.1417573070925755,0,j,change,0.320386671191045,0.1850495318582593,0.5004416295328156,0.03533196621674506,0.3533305666005617,1.001041694061314,4.155502024055295
17,22,female,450,15,15,same,valid,anti,5,1,4,0.3328337606376408,1,f,same,0.9697360293366728,0.151512958081052,0.4992235402332881,0.0353297211863719,0.3533401881595637,1.001054202087289,5.026091100764006
17,22,female,451,135,135,same,catch,clock,1,0,1,0.22131220096980542,0,j,change,1.0333653196698833,0,0.5103236114964602,0.03532811759350807,0.3532946461159554,1.0010654272391548,6.520083720386992
17,22,female,452,75,125,change,valid,clock,1,2,2,0.30902713856812625,1,f,same,1.5820744593165728,0.18791134529228704,0.5007039773595352,0.03531977890952476,0.35333313234968955,1.0010323932215215,5.615885577861263
17,22,female,453,15,15,same,valid,clock,5,1,1,0.3816064025700143,0,j,change,1.5495927194310752,0.15029185315115143,0.4995073762074753,0.035358906580768235,0.3532718750939239,1.0010756902343019,5.6260764118515
17,22,female,454,105,105,same,valid,clock,2,0,2,0.4864605429511357,1,f,same,1.2818356522357135,0.1017385542730324,0.4999868505365157,0.03531657172334235,0.3532927218043369,1.0010782559838844,5.462190161763829
17,22,female,455,15,15,same,valid,anti,1,2,3,0.3606673256367685,1,f,same,0.9970288627509944,0.18716648135687036,0.49969916593909147,0.03531977890952476,0.3533087577347942,1.0010426562171233,5.049422417846472
17,22,female,456,165,165,same,valid,anti,2,2,4,0.2750434734080045,1,f,same,1.036859869698219,0.18644324565145332,0.500012508025975,0.035306308727285796,0.3533488475618469,1.0010586921475806,4.955477200434416
17,22,female,457,75,125,change,valid,clock,3,1,1,0.45171356748778635,0,j,change,0.9625936257816647,0.15235434336022227,0.4999743425109955,0.035329079749317316,0.35330715414193037,1.001050353464052,5.097328157362881
17,22,female,458,45,95,change,catch,clock,2,0,4,0.29428306240106394,1,j,change,0.7220312521044434,0,0.49978768427718023,0.03534575711728394,0.3532853452757081,1.0010638236458362,6.20385580747643
17,22,female,459,75,25,change,valid,anti,2,1,1,0.2584690561056959,0,j,change,1.0666648920237094,0.15427165310675917,0.49983739566232543,0.03533645627749138,0.35327091293811463,1.0010830667629307,5.002408596798432
17,22,female,460,15,325,change,valid,anti,5,1,2,0.49507023416936136,1,j,change,1.0983730586099227,0.1561126982184924,0.5002860810041057,0.03538841269300974,0.3532096556828037,1.0010734452043835,5.285716988913919
17,22,female,461,135,135,same,valid,clock,3,2,1,0.1442954742110487,0,j,change,1.0388422314576928,0.1857375825389967,0.49951346986108547,0.03533036262342648,0.3532689886269509,1.0010849910745492,4.896114109117661
17,22,female,462,15,325,change,valid,anti,4,2,2,1.4640009390641353,1,j,change,1.161079320769204,0.1885071240490872,0.5003720335935213,0.03532491040687091,0.35330073976956555,1.001074086641438,6.310880571443704
17,22,female,463,105,55,change,valid,anti,4,2,3,0.33367564700211005,1,f,same,1.9676391710322605,0.1877742887638649,0.49968056425950635,0.03529540429462941,0.35335878983869407,1.001058050710526,5.956758150582573
17,22,female,464,135,135,same,valid,clock,2,0,4,0.35230587062596896,1,f,same,1.1844696500766076,0.10019280838620254,0.4996475302423278,0.03534639855433852,0.3532850245574082,1.0010760109530565,5.202611098531634
17,22,female,465,105,105,same,catch,anti,1,1,2,0.42147012281566276,1,f,same,1.3269620442347332,0,0.5001927518874254,0.03533741843330063,0.35326995078276013,1.001078897420939,6.945781876704132
17,22,female,466,165,115,change,catch,anti,3,1,1,0.18738369941229394,0,j,change,0.9072154632558522,0,0.5008996157152978,0.03531432669296919,0.35326385712869524,1.0010712001740103,6.264118835226782
17,22,female,467,75,75,same,valid,anti,4,0,1,0.1819702899101685,0,j,change,0.9494383896330874,0.09866366162950534,0.5000452213248536,0.0353043844156673,0.35331100276516736,1.0010830667629307,4.825937027541386
17,22,female,468,105,105,same,catch,clock,5,2,1,0.2809023610661825,0,j,change,0.629339723758676,0,0.5001205901994581,0.03528674489234618,0.3533244729469516,1.0010837081999853,6.204552087589491
17,22,female,469,45,45,same,catch,clock,1,1,1,0.17305912319397976,0,j,change,0.32063234164979804,0,0.4993280945013794,0.035379753290271765,0.3532869488694814,1.0010744073601927,5.685429560890952
17,22,female,470,15,65,change,valid,clock,5,0,2,0.2281678820831985,1,j,change,1.5145471549371905,0.10010450235189726,0.4998553559044012,0.035330683342181146,0.3532997776137563,1.0010304689094482,5.461617037598899
17,22,female,471,45,95,change,valid,clock,1,1,4,0.8752629090845403,1,j,change,0.7696460998372459,0.1550494996184453,0.4997729312208321,0.035291876389692334,0.35332671797732473,1.001056767835962,5.321043823632863
17,22,female,472,15,325,change,valid,anti,5,2,3,0.5643323055369365,1,f,same,1.5601549455773238,0.18706518325843086,0.49891116030221383,0.03535634083164041,0.3533017019253748,1.0010384868755864,5.8261131020608445
17,22,female,473,15,15,same,valid,anti,3,0,1,0.12857929992242134,0,j,change,0.8488279979655999,0.09860190714391066,0.4997854392463523,0.035359868736122735,0.3532754029993157,1.0010686344253372,4.684406147790924
17,22,female,474,105,55,change,catch,anti,4,2,1,0.12477525643043919,0,j,change,0.5406405007315698,0,0.5004063504852638,0.03534126705653762,0.3531811117259167,1.001167415758573,5.874804602183758
17,22,female,475,105,155,change,catch,clock,5,1,1,0.06291120135438177,0,j,change,0.3141352239481421,0,0.5002475947708263,0.035306950164795126,0.35332607654027015,1.0010458634033057,5.615013543947043
17,22,female,476,15,15,same,valid,clock,3,0,2,0.319457228644751,1,f,same,1.0993079533723176,0.10001846988755085,0.500254329861491,0.035313685255914606,0.3533187000120961,1.0010497120269974,5.144406122133205
17,22,female,477,165,115,change,valid,anti,2,2,2,0.22569546228078252,1,f,same,1.1977069901904542,0.18637584408499133,0.49936561857975903,0.03534639855433852,0.35329560827176465,1.000955741472353,5.085041427223587
17,22,female,478,15,65,change,valid,clock,4,1,1,0.1481277409411632,0,j,change,0.3260624285198901,0.15400128843233052,0.4990885176962365,0.03534928502222101,0.35327091293811463,1.0010766523905659,4.154129669101621
17,22,female,479,105,155,change,valid,clock,4,0,3,1.3132186101465777,1,j,change,0.6673577083756754,0.09854205205379425,0.49956670915116774,0.0353277968747534,0.3533219071982785,1.0010622200525177,5.685422505081533
17,22,female,480,105,55,change,valid,anti,4,0,2,0.7309360044487221,1,j,change,0.7525476283180978,0.09714854170537623,0.49993745987012517,0.035345115680229355,0.3531727730419334,1.0011430411436777,5.1555510940033855
