subject,age,gender,ntrial,memory_ori,test_ori,type,trial_type,which_change,trial,quest,pas,pas_rt,vis,test_key,test,test_rt,contrast,fix_dur,target_dur,mask_dur,retention_dur,trial_dur
18,24,male,1,135,85,change,catch,anti,5,0,1,2.682769529479856,0,j,change,2.3679171729982045,0,0.5068407260125696,0.03528203983501044,0.3533758796056645,1.0010253311638735,10.391774643948338
18,24,male,2,15,325,change,catch,anti,3,0,1,2.377812244128336,0,j,change,2.2633138305532157,0,0.4997968259956451,0.03533784453406952,0.35326876024078047,1.0010695900632527,9.9724946977517
18,24,male,3,75,25,change,valid,anti,5,0,1,1.191293376527483,0,j,change,3.389280751195429,0.2,0.5004273549502614,0.035362860433451715,0.3532758160074536,1.0010481020469797,8.313080717648518
18,24,male,4,165,115,change,valid,anti,4,0,2,1.2421693018350197,1,j,change,1.9664767703318375,0.3150270229513009,0.4994103624194395,0.035329185184082235,0.35331077412342893,1.001054195663528,6.957576241566358
18,24,male,5,165,165,same,valid,anti,1,0,1,1.3470635342912374,0,j,change,2.9429563725918797,0.23704404819608071,0.4995344797669077,0.03537633053315403,0.35331590558985226,1.0010525920802138,8.040598880634661
18,24,male,6,45,45,same,valid,anti,1,2,1,2.415565726550085,0,f,same,4.166682862858124,0.2,0.5003830960511095,0.035359973983531745,0.3532703638240946,1.0009720921984808,10.349866277188312
18,24,male,7,75,75,same,valid,anti,1,2,2,2.9738673650592773,1,j,change,1.449925064552417,0.3670372117912738,0.5001063175729996,0.03532694016757887,0.3533431665059652,1.0010349526637583,8.241679888211138
18,24,male,8,15,15,same,valid,clock,5,1,2,1.0829241790536344,1,f,same,3.0026693247662024,0.2,0.4999809173586982,0.03531924296748912,0.35331269842345137,1.001042970580329,7.993737365768084
18,24,male,9,165,165,same,catch,anti,5,2,1,1.6696332957774302,0,j,change,2.600851759307261,0,0.5005107412819143,0.035294868501523524,0.3533248856563205,1.0010420084304315,9.525779365539165
18,24,male,10,75,75,same,valid,clock,2,1,2,1.7351871397750074,1,j,change,5.119536230880158,0.09338226537841544,0.5001932317879891,0.03535516323358934,0.3532710052575112,1.0011010202958914,10.62103413804357
18,24,male,11,135,85,change,valid,anti,2,2,2,2.0629477004133605,1,f,same,3.299677326967867,0.3227502669243441,0.49954730843342077,0.035342976000492854,0.35332873425636535,1.0010362355305915,9.265662759375573
18,24,male,12,135,135,same,valid,anti,4,2,2,1.3090733629740043,1,j,change,1.2141402692800511,0.29077319917223154,0.4998285769447648,0.03532020511761402,0.3532742124241395,1.0010872294794808,6.239371690404596
18,24,male,13,135,135,same,catch,clock,5,0,1,0.877819460253022,0,j,change,2.178642707849349,0,0.4994575077685113,0.03532597801745396,0.35330339764027485,1.001035594097175,8.33536186621177
18,24,male,14,15,65,change,valid,clock,4,2,1,1.4734300678926502,0,j,change,2.6953185309766923,0.2661670952893518,0.5001746302216361,0.03533976883386458,0.3533139812900572,1.0010477813302714,7.994050064512294
18,24,male,15,105,105,same,valid,clock,4,2,2,0.4909678170454299,1,j,change,2.2274756680287737,0.32791426086480197,0.5004494843997236,0.035300641401363464,0.35334124220617014,1.0010278968973125,6.498799717897555
18,24,male,16,105,155,change,valid,clock,4,2,2,1.5408305984219623,1,f,same,3.812922443976504,0.3126833262282618,0.5001040725562689,0.03533046805068807,0.35330852910692556,1.0010096160476678,9.277668787565744
18,24,male,17,135,85,change,valid,anti,4,2,1,0.5833136894377731,0,j,change,1.9068420730227444,0.29922636746565767,0.500419657750399,0.03528909560145621,0.3533511844225359,1.0010461777469573,6.2047493647405645
18,24,male,18,15,325,change,valid,anti,5,0,1,1.639065470136984,0,j,change,3.860328215016125,0.2914418032347298,0.49986545936076254,0.03530673501768433,0.35331975418989714,1.0010471398970822,9.242862691255368
18,24,male,19,105,105,same,valid,anti,1,0,3,2.7964927708860614,1,j,change,1.0724559872508053,0.33731702807792585,0.49976250931285904,0.035340410267281186,0.3532851167906301,1.0010407255638256,7.604848209615284
18,24,male,20,165,115,change,valid,anti,2,1,2,1.4193370337620763,1,j,change,1.2256049277473267,0.020575447070561637,0.5005258149651581,0.03531571508437992,0.3533046805068807,1.0010253311638735,6.404720051237518
18,24,male,21,135,185,change,valid,clock,4,0,2,1.3468627656616263,1,f,same,3.2097948792454645,0.2962009779365705,0.5000213276580325,0.03532052583409495,0.3532969833070183,1.0010692693465444,8.323669498915478
18,24,male,22,45,45,same,valid,anti,5,0,1,0.5238541034252648,0,j,change,1.8956298185673859,0.2658502725737619,0.5003786060178754,0.0353237330009506,0.3533261685231537,1.0010192375473252,6.1687588618024165
18,24,male,23,15,325,change,catch,anti,4,2,1,1.1903280193791943,0,j,change,1.815182213567141,0,0.5004231856335082,0.03531154576762674,0.3533300171229712,1.0010147475140911,8.265732675607524
18,24,male,24,135,135,same,valid,clock,4,0,1,2.205623959074046,0,j,change,1.8539411427198047,0.29061485031897527,0.4994539798851747,0.03529230276808448,0.35334124220617014,1.0010381598303866,7.828374251968626
18,24,male,25,135,135,same,valid,clock,2,1,2,0.9854340114245588,1,f,same,1.6764177360162194,0,0.4999151704432734,0.03531699795098575,0.353312698423224,1.0010631757299961,8.041262764122166
18,24,male,26,165,165,same,catch,clock,5,0,1,1.1905778576574448,0,j,change,1.2557041863465201,0,0.5001252398558336,0.03536093613342928,0.35330339764027485,1.0010201996974502,7.758835182745997
18,24,male,27,135,135,same,valid,anti,3,0,2,0.7975969983488085,1,j,change,1.0681936628313906,0.31346367801100716,0.49960824459913056,0.035352276783441994,0.3532793438907902,1.0010760043962819,5.579316276979853
18,24,male,28,165,215,change,catch,clock,4,1,1,0.5753400318214972,0,j,change,1.7477980395872237,0,0.49971151536374236,0.035334958083922174,0.3532578558745172,1.001074721529676,7.629227165855582
18,24,male,29,15,325,change,valid,anti,2,1,2,0.853091885002641,1,j,change,1.2098750584104891,0,0.49932729680449484,0.03530288641786683,0.3533053219400699,1.0010538749468196,7.298433587757927
18,24,male,30,75,125,change,catch,clock,1,0,2,1.1656992248599636,1,j,change,1.1514943632441828,0,0.5002554508200774,0.03536670903349659,0.3531982025756406,1.0011164146956162,7.6407344796389225
18,24,male,31,45,95,change,valid,clock,1,0,1,0.5898534228645076,0,j,change,1.0416001580490502,0.29081155906403405,0.5002573751200998,0.0352842848515138,0.3533428457894843,1.0010580442633454,5.391456172304515
18,24,male,32,45,355,change,valid,anti,2,1,1,0.4618377641943425,0,j,change,0.8817277134794494,0,0.4996967623974342,0.035307376451100936,0.35331462272324643,1.0010545163802362,6.628111713310091
18,24,male,33,15,325,change,valid,anti,1,1,1,0.6734026786896266,0,j,change,1.8600636237711115,0,0.4992227431730498,0.03531924296748912,0.3533053219400699,1.0010468191801465,7.816271046629936
18,24,male,34,165,165,same,valid,anti,1,1,1,0.9796691294500306,0,j,change,1.57737080971674,0.024376229862598464,0.5004988747655261,0.0353237330009506,0.3533037183567558,1.0010352733804666,6.34570946855024
18,24,male,35,45,45,same,valid,anti,5,2,2,0.8101642806950622,1,f,same,1.2264128130154859,0.3372510981242039,0.4996560313813916,0.03531667723427745,0.353305001223589,1.0010208411306394,5.862137056982192
18,24,male,36,135,135,same,valid,anti,2,2,2,0.8966897871307538,1,f,same,4.067482313277878,0.32735222499846484,0.4995790593829952,0.03532854375066563,0.35328223034071016,1.0010461777469573,8.736213753805714
18,24,male,37,165,215,change,valid,clock,3,0,2,0.557690673271054,1,f,same,1.140640028582311,0.3088889525274626,0.4995229339674552,0.035338806683739676,0.35327260884082534,1.0010724765131727,5.484634304431211
18,24,male,38,165,165,same,valid,anti,2,1,1,0.6702663904654855,0,j,change,1.7369337627089863,0.05383826758110674,0.5006204263797827,0.03530032068442779,0.3533178298898747,1.0010663828966244,6.1697553284666355
18,24,male,39,15,15,same,valid,clock,3,1,2,0.7876098815370369,1,f,same,1.2964826683114552,0.08097942610333973,0.49974166273000264,0.03532597801745396,0.35327325027401457,1.0010618928633903,5.90976797111739
18,24,male,40,165,115,change,valid,anti,3,1,1,1.5556230129598134,0,f,same,1.7809928553949703,0.06563255457596057,0.49973685198006024,0.035315394367671615,0.3532665152242771,1.0010891537795032,7.145792983168576
18,24,male,41,135,185,change,catch,clock,1,1,1,0.5369973928943637,0,j,change,0.6230174498725773,0,0.4998481406612427,0.03535099391683616,0.3532963418738291,1.0010237275805594,6.45137213812518
18,24,male,42,165,215,change,valid,clock,1,2,2,0.923612026489991,1,f,same,1.0514038249309579,0.3185110189390006,0.5002246620208552,0.035346824600310356,0.35330788767350896,1.0010580442633454,5.639024739120941
18,24,male,43,15,325,change,valid,anti,1,0,2,1.7862638337121552,1,j,change,3.231485588436499,0.29086513643335676,0.4998487820946593,0.03541545796565515,0.35328158890729355,1.0010169925308219,8.818647877801823
18,24,male,44,105,155,change,catch,clock,1,2,1,0.7800390440463616,0,j,change,0.7967733979642162,0,0.49936674495370426,0.03533944811715628,0.3532825510571911,1.0010667036131053,6.827174450941129
18,24,male,45,45,355,change,valid,anti,4,2,2,1.319008202969826,1,j,change,2.457004243402025,0.3104365614491666,0.500497271182212,0.035297754951443494,0.3533303378396795,1.001048743480169,7.511708563487673
18,24,male,46,75,125,change,valid,clock,1,0,2,0.9499896889592492,1,j,change,3.2910689710799943,0.2753678917427885,0.4996836130142128,0.03534201385059532,0.3532661945075688,1.0010760043962819,7.946274827879506
18,24,male,47,135,185,change,valid,clock,2,2,2,0.7365543548994538,1,j,change,2.0677533188561483,0.30292088259167405,0.49995237357597944,0.03529775495121612,0.3533325828564102,1.0010481020469797,6.545109279391454
18,24,male,48,15,15,same,valid,clock,5,2,2,2.3732388245477978,1,j,change,1.3019531323916453,0.2958076917467791,0.500494384732292,0.03528139840159383,0.3533223199233362,1.0010686279131278,7.417740185509047
18,24,male,49,135,135,same,catch,anti,4,0,1,0.49288281622580143,0,j,change,0.5794676552436613,0,0.49987476014416643,0.035358370399990235,0.3533005111901275,1.0010567613967396,6.274686443338851
18,24,male,50,45,95,change,valid,clock,4,2,2,0.8887876493297426,1,f,same,3.785303287313809,0.2895190328984698,0.4996265254487753,0.0353060935844951,0.3533133398566406,1.0010311040639408,8.547393744164992
18,24,male,51,75,125,change,valid,clock,5,1,1,0.9788968437310359,0,j,change,0.41351185705525495,0.08907512936924639,0.502320224681398,0.03533463736721387,0.35328928610715593,1.0010602892800762,5.146074572396401
18,24,male,52,165,165,same,valid,anti,4,2,2,0.7741987936565238,1,j,change,0.9899942816218754,0.2834360533498701,0.4999879731249166,0.03530737645087356,0.35329281399026513,1.0010641378803484,5.485249438986102
18,24,male,53,135,135,same,catch,anti,3,2,1,0.5719465288357242,0,j,change,0.23963018803306113,0,0.49982280404492485,0.035320525834322325,0.35327228812411704,1.0010622135800986,6.086080993143696
18,24,male,54,45,355,change,valid,anti,2,2,1,0.5902414900238,0,j,change,0.03708190173438197,0.27747497171292845,0.5001957975214282,0.03534137241740609,0.35324374434139827,1.0010622135796439,4.366751367936558
18,24,male,55,135,185,change,catch,clock,5,0,1,0.6120502229459817,0,j,change,0.7785845939902174,0,0.5003003511528732,0.035359653266368696,0.35327325027401457,1.0010763251129902,6.639746993040717
18,24,male,56,135,185,change,valid,clock,2,0,2,1.0005487462062774,1,f,same,1.83574432082969,0.26203509015029247,0.5001608394054529,0.035306735017911706,0.3533149434401821,1.0010570821136753,6.593386116881447
18,24,male,57,75,75,same,catch,anti,5,2,1,0.6464708178309593,0,j,change,0.17597049663299913,0,0.49943537831904905,0.03529101990170602,0.3533357900228111,1.001048422763688,6.09760209774322
18,24,male,58,45,355,change,catch,anti,2,1,1,0.9908595751721805,0,j,change,0.5841969431212419,0,0.49974903921292935,0.0353272608840598,0.35329121040740574,1.0010811358629326,6.957548980650245
18,24,male,59,165,115,change,valid,anti,5,2,2,1.5161678079371086,1,f,same,2.18242459871135,0.2967608571644352,0.49975769856291663,0.035337844533842144,0.35326811880759124,1.0010275761806042,7.546440574249573
18,24,male,60,45,45,same,valid,anti,3,2,1,1.1864162382694303,0,j,change,2.4571136077834126,0.2919686672098146,0.4994889380013774,0.03531796010065591,0.35331782989032945,1.0010099367641487,7.405209464861855
18,24,male,61,135,135,same,valid,anti,5,1,2,0.7332150530287436,1,f,same,1.7107007434533443,0.11093193304756535,0.49969387594728687,0.035338806684194424,0.3533104534067206,1.0010461777469573,6.309705495511935
18,24,male,62,75,75,same,valid,clock,2,0,2,0.9304118611285048,1,j,change,1.262860978628396,0.24989779513477955,0.5001031104065987,0.035307055734392634,0.35326811880759124,1.0010676657630029,5.9097073556686155
18,24,male,63,105,155,change,valid,clock,4,0,2,0.9412937774231978,1,j,change,1.362920728141944,0.2390294928035453,0.4999318477093766,0.03535644610019517,0.35324919652430253,1.001076645829471,6.03958413312057
18,24,male,64,165,115,change,catch,anti,1,2,2,1.3869241251732092,1,f,same,3.0465157823064146,0,0.4996666150314013,0.03538306558311888,0.3532896068240916,1.0010705522131502,9.818914072629923
18,24,male,65,75,75,same,valid,clock,5,0,2,0.36002273239682836,1,j,change,1.427714152937824,0.22913392078720946,0.5001739887884469,0.03526536256867985,0.35335952305604224,1.0010532335136304,5.509287152699926
18,24,male,66,15,325,change,valid,anti,3,2,2,0.6902249089725956,1,j,change,2.27816653982336,0.30811686603766203,0.49961016889938037,0.03534041026705381,0.35327357099095025,1.0010561199637777,6.604243017276531
18,24,male,67,105,155,change,valid,clock,5,0,2,0.34502537991284044,1,j,change,1.1275977648610933,0.22001571747021703,0.4998680250942016,0.035308980034642445,0.353326489239862,1.0010551578134255,5.155621345233158
18,24,male,68,105,55,change,valid,anti,1,1,1,2.4597194306506935,0,f,same,2.0945280285513945,0.09873094301287635,0.5002169648209929,0.03532918518430961,0.35327709887405945,1.001056440679804,8.347747302211701
18,24,male,69,135,135,same,valid,anti,5,0,2,0.6316559531269377,1,j,change,1.8174009314252544,0.2115406219391062,0.5001348613559458,0.0353243744343672,0.35333290357311853,1.0010529127966947,6.168855397516836
18,24,male,70,45,95,change,valid,clock,4,0,2,0.48211924437873677,1,f,same,1.8852318637132157,0.20356625264972678,0.4997349276800378,0.0353750476665482,0.3532504793915905,1.0010644585968294,6.109407678021398
18,24,male,71,45,45,same,valid,anti,2,0,1,2.1477746914147247,0,j,change,1.8986772682769697,0.19600305772056476,0.500114014772862,0.03528588843482794,0.3533534294392666,1.001029821197335,7.817621263771343
18,24,male,72,165,165,same,valid,anti,5,1,1,0.38807838443472065,0,j,change,0.652941917892349,0.11743459214498861,0.499682330147607,0.03535740825054745,0.3532713259742195,1.0010506677804187,4.73128369729875
18,24,male,73,75,125,change,valid,clock,5,2,2,0.46512607211570867,1,f,same,1.8914265060129765,0.30383255281935095,0.5001579529553055,0.035298717101341026,0.35332071634002205,1.0010554785303611,6.121448022894128
18,24,male,74,15,325,change,valid,anti,4,1,2,0.29731236231236835,1,j,change,1.1601335079317323,0.13578145669521718,0.49985776216090017,0.035305772868014174,0.353345090806215,1.0010285383305018,5.203192606069479
18,24,male,75,165,115,change,catch,anti,3,0,1,0.5193903689428225,0,j,change,1.0522646284480288,0,0.4998997760435486,0.03529935853430288,0.3533062840901948,1.0010423291469124,6.898809403540781
18,24,male,76,45,45,same,catch,clock,4,1,1,0.6273942701404849,0,j,change,0.9461869515143917,0,0.5003330642521178,0.035302244984450226,0.3533053219402973,1.0010413669970148,6.8640257573965755
18,24,male,77,165,215,change,valid,clock,1,0,1,0.6226438149628848,0,j,change,1.2149613039314318,0.20296065099600982,0.4996332604982854,0.03535804968350931,0.35328896539022026,1.001071193646112,5.591432631701537
18,24,male,78,135,85,change,catch,anti,5,1,1,0.5859958428704886,0,j,change,1.6036862531536826,0,0.4999353755924858,0.03536574688314431,0.353275816007681,1.0010525920802138,7.4637845143242885
18,24,male,79,15,65,change,valid,clock,3,0,2,0.5874041097276859,1,f,same,1.4630638639882818,0.20937609631137447,0.5002968232693092,0.03528556771834701,0.35332135777343865,1.0010663828966244,5.851493753882551
18,24,male,80,45,45,same,catch,clock,1,1,1,0.8669157352251204,0,f,same,2.021551838877258,0,0.4995495534503789,0.035305772868014174,0.35334541152269594,1.001048743480169,8.240730566895763
18,24,male,81,15,65,change,valid,clock,1,1,2,0.4035901664424273,1,f,same,1.6559326007527488,0.1258137614523383,0.5001534629222988,0.035323091567079246,0.353334186439497,1.0010432912972647,5.874477913366263
18,24,male,82,165,165,same,valid,clock,5,0,2,0.4812449707619635,1,f,same,1.2437324748389074,0.20263281933933508,0.49954313911712234,0.03533463736766862,0.35329345542368173,1.0010096160476678,5.497176250161374
18,24,male,83,15,15,same,valid,anti,1,0,2,0.3335078031964258,1,f,same,1.0490600275752513,0.19613924507825556,0.4992217810231523,0.03530320713434776,0.35332071634002205,1.0010583649800537,5.084050215249135
18,24,male,84,135,85,change,valid,anti,5,1,3,0.625680039589497,1,f,same,1.5089173663905058,0.1168484279925094,0.5005768089140474,0.03529775495098875,0.3532629873411679,1.0011183389956386,5.93381498561439
18,24,male,85,15,15,same,valid,anti,4,0,2,0.3209010727009627,1,f,same,1.2327450427624171,0.19010515422756213,0.4999591086257169,0.03535901183386159,0.3532822303404828,1.0010602892798488,5.379650271310311
18,24,male,86,135,135,same,valid,clock,4,2,2,1.2775279929519456,1,j,change,0.9424534888680682,0.2995313032956355,0.5000678315736877,0.03532469515084813,0.3533082083899899,1.0010157096644434,5.932756299917401
18,24,male,87,15,15,same,valid,anti,5,0,1,0.5492792374129749,0,j,change,0.6748369235961036,0.18429355753825077,0.500427996383678,0.03534522101699622,0.3532886446741941,1.001050347063483,4.908537381290898
18,24,male,88,45,45,same,valid,clock,3,1,2,0.3051756933973593,1,f,same,0.8606835690761727,0.10865151234905826,0.5006297271629592,0.035312507917751645,0.35328255105741846,1.0010772872628877,4.944737632925353
18,24,male,89,15,65,change,valid,clock,2,2,2,0.2598193018193342,1,j,change,1.9429695219746463,0.29557187033141075,0.4998465370777012,0.035336240950982756,0.35329024825705346,1.001031424780649,5.88573891675378
18,24,male,90,15,15,same,valid,anti,1,2,2,0.2572805087334018,1,f,same,1.2646990058105985,0.2919058069284538,0.5003462136351118,0.03534490030051529,0.3533197541901245,1.0010189168310717,5.238778364582231
18,24,male,91,135,85,change,valid,anti,3,0,2,0.34052348014756717,1,j,change,1.7790573303482233,0.18940155857936192,0.499628449748343,0.035335278800630476,0.35330307692356655,1.0010025602814494,5.8383562373137465
18,24,male,92,165,115,change,valid,anti,1,1,2,0.266787833420949,1,j,change,3.9087073611208325,0.10108311561087514,0.5001345406390101,0.0353314302005856,0.3533184713232913,1.00102597259729,7.876626073558782
18,24,male,93,45,45,same,valid,anti,4,2,2,0.2597436126870889,1,f,same,1.749774295649786,0.28815578847812645,0.5000703973068994,0.035325978017681336,0.35329698330679093,1.0010583649800537,5.7797657934511335
18,24,male,94,45,45,same,valid,anti,2,2,2,1.060586905074615,1,j,change,3.9550262233974536,0.2846896086072842,0.5004135641338507,0.03533367521731634,0.35322995352498765,1.0011260361952736,8.712740501414828
18,24,male,95,165,165,same,catch,anti,2,1,1,0.5466538508289887,0,j,change,0.8201324752239998,0,0.5001518593385299,0.03534490030051529,0.35326234590729655,1.0010368769635534,6.592555460730637
18,24,male,96,105,155,change,valid,clock,3,0,2,0.5641197594495679,1,f,same,3.642712660001507,0.18395507962634491,0.5006585916626136,0.035330788767623744,0.35329473829051494,1.0010782494127852,8.018054423692774
18,24,male,97,15,15,same,valid,clock,5,0,2,0.28460204033535774,1,f,same,2.5855878912784647,0.17860634306350615,0.5005274185482449,0.0353060935844951,0.35331269842345137,1.0010330283639632,6.581810490449698
18,24,male,98,135,135,same,valid,anti,1,0,1,0.9773423300771356,0,j,change,0.9043770447692623,0.1736072243962935,0.4990594983923984,0.035376330533381406,0.353270363824322,1.0010631757299961,5.673069454079268
18,24,male,99,75,75,same,catch,clock,2,2,1,0.21062457324615025,0,j,change,0.01789021676268021,0,0.5002843153197318,0.035313790784130106,0.353288965390675,1.0010638171634128,5.4738024199355095
18,24,male,100,135,185,change,valid,clock,3,2,2,0.7033197702257894,1,f,same,1.3582636015130447,0.2811636910438259,0.5007089441783137,0.03528685058472547,0.3533434872229009,1.0010538749465923,5.874989456439835
18,24,male,101,165,165,same,valid,clock,2,2,1,1.2476359173156197,0,j,change,0.4051302478465004,0.27780128559236406,0.5030783988672738,0.03531731866769405,0.35331558487314396,1.0010500263470021,5.441417413695945
18,24,male,102,165,215,change,valid,clock,1,1,2,0.46095579337770687,1,f,same,3.4480754915703073,0.09399224697817145,0.49968457516433773,0.03532822303395733,0.35330307692356655,1.0010256518808092,7.876155582217507
18,24,male,103,135,185,change,valid,clock,1,2,2,0.23006064431319828,1,j,change,1.3215290359225946,0.2893249645729349,0.5000322320242958,0.0353279023174764,0.35329473829051494,1.0010692693467718,5.249712557692874
18,24,male,104,165,215,change,catch,clock,3,2,1,0.9298820372050614,0,j,change,0.6727086478363162,0,0.49988277806050974,0.03532116726773893,0.35330724624009235,1.0010529127966947,6.910117231560889
18,24,male,105,165,115,change,valid,anti,1,2,2,0.4542492872874391,1,j,change,1.2145944040712493,0.28632979039948775,0.5007163206614678,0.03530962146805905,0.3533476565394267,1.0010493849135855,5.380915819253005
18,24,male,106,135,85,change,catch,anti,3,1,1,0.610911037367714,0,j,change,3.3266056599436524,0,0.4991909922237028,0.03532565730074566,0.35330083190729056,1.001042970580329,9.13544377724702
18,24,male,107,45,45,same,catch,anti,4,2,1,0.5719385109191535,0,j,change,0.5722213830135843,0,0.4999924631583781,0.035302244984904974,0.353334186439497,1.0010529127966947,6.439349753384704
18,24,male,108,15,65,change,valid,clock,5,2,2,0.33605525563189076,1,f,same,1.6995821382629401,0.2835201373680362,0.5002474329039615,0.03533559951756615,0.35329409685709834,1.0010368769635534,5.8036444317012865
18,24,male,109,15,15,same,valid,clock,3,2,1,0.3284950017914525,0,j,change,0.6466581163604133,0.28060660950631683,0.4998179932954372,0.035334316650732944,0.35328928610715593,1.0010445741636431,4.720171506441602
18,24,male,110,135,185,change,valid,clock,2,1,1,0.3401703711042501,0,j,change,1.2582375272486388,0.08727172821301404,0.49926603992207674,0.035295189218231826,0.35336048520593977,1.0010278968970852,5.344091132280482
18,24,male,111,165,115,change,catch,anti,1,2,1,0.3579611657028181,0,j,change,3.4027136478089233,0,0.4995306311670902,0.03531539436789899,0.35329088969047007,1.0010862673298107,9.029726906556334
18,24,male,112,75,125,change,valid,clock,3,0,2,1.9750620346198957,1,f,same,4.134927744139986,0.17807306014251728,0.5005312671482898,0.03531186648433504,0.35333258285618285,1.0010311040637134,9.890918170106033
18,24,male,113,105,55,change,valid,anti,2,2,2,0.3265508173944909,1,j,change,1.3572555890491458,0.2903866352792285,0.4999645608086212,0.03533944811715628,0.3532636287745845,1.0010221239972452,5.344664573669888
18,24,male,114,135,85,change,valid,anti,2,1,1,0.25041781362961046,0,j,change,0.39325892065380685,0.09812629990624398,0.49915539267431086,0.03534297600026548,0.35333995933933693,1.0010333490804442,4.354174784807128
18,24,male,115,105,105,same,valid,anti,5,0,2,0.30122093625550406,1,j,change,1.5771697203704207,0.1733444033945923,0.5000841881237648,0.03536670903304184,0.35328672037394426,1.0010378391139056,5.556685867973101
18,24,male,116,45,95,change,valid,clock,5,1,1,0.3146887909852012,0,j,change,0.7678444344596755,0.10867266489872368,0.4991531476575801,0.03531892225055344,0.35329634187337433,1.0010724765129453,4.836998322972704
18,24,male,117,165,115,change,catch,anti,4,1,1,0.2862691255372738,0,j,change,0.982858656640019,0,0.5000646244070595,0.03532918518385486,0.3532584973077064,1.0010814565798682,6.498686184199869
18,24,male,118,75,125,change,valid,clock,2,1,2,0.3323012671194192,1,f,same,1.823803077404591,0.1189810675874607,0.5002811081531036,0.035335278800630476,0.3532998697569383,1.0010551578134255,5.92205911641895
18,24,male,119,105,105,same,valid,clock,2,2,2,0.27928744455175547,1,f,same,1.4416329352916364,0.28772868522986195,0.4990729684927828,0.035360615416720975,0.35329185184082235,1.0010586856965347,5.473093636115209
18,24,male,120,105,105,same,valid,clock,1,1,2,0.34914979616860364,1,j,change,2.126693664595223,0.11323567363496444,0.5000498714407513,0.035321808700700785,0.3533033976405022,1.0010529127966947,6.1808463520242185
18,24,male,121,75,75,same,valid,anti,2,2,3,0.7378882154907842,1,f,same,2.3154678117534786,0.2852404342313569,0.4995094638675255,0.035376330533381406,0.3533011526237715,1.0010657414632078,6.804448789086109
18,24,male,122,165,115,change,valid,anti,1,0,2,0.41330210835940306,1,j,change,1.4004112229022212,0.16863630034499852,0.4998519892610602,0.0353538803669835,0.35328736180736087,1.0010262933142258,5.485746229093365
18,24,male,123,15,65,change,valid,clock,1,0,2,0.2605065976226797,1,j,change,1.1612306796273515,0.16421289431804803,0.49979810886225096,0.03535355965004783,0.3532915311234319,1.0010641378798937,5.084659256187479
18,24,male,124,45,45,same,valid,clock,4,0,2,0.10944199470350213,1,j,change,0.9138064353082882,0.1598065161254274,0.5005598109314633,0.03529005775135374,0.35332488565654785,1.0010564406802587,4.696752455166461
18,24,male,125,75,25,change,valid,anti,1,2,2,0.30939151390111874,1,f,same,1.0389876001318044,0.2828712087702275,0.5005001576319046,0.03531507365096331,0.35328896539022026,1.0010577235466371,5.038723008886791
18,24,male,126,45,95,change,catch,clock,2,2,1,1.1801115901548656,0,j,change,3.819612593516922,0,0.49985808287783584,0.035325336583809985,0.3533050012233616,1.0012116675438847,10.254710285415513
18,24,male,127,105,105,same,catch,anti,1,0,2,0.7591427500233294,1,j,change,3.5572124847299165,0,0.5007900854934633,0.03531731866769405,0.353278061023957,1.0010962095461764,9.596982633513562
18,24,male,128,15,325,change,valid,anti,1,2,2,0.5121845070120798,1,f,same,1.4856413547458942,0.28038365659449305,0.4993879122530416,0.03532180870115553,0.35332713067282384,1.0010529127966947,5.791333401966767
18,24,male,129,105,105,same,valid,clock,4,1,1,1.448836552206103,0,j,change,1.3079915856774278,0.10767060503495773,0.4994587906353445,0.035309300751123374,0.3532623459077513,1.0010814565794135,6.545202287223219
18,24,male,130,75,125,change,valid,clock,3,2,2,0.3910395613625042,1,j,change,1.1489209327596654,0.2779810674049664,0.499682330147607,0.035347145316791284,0.3533210370569577,1.001018596114136,5.237483310706921
18,24,male,131,165,215,change,valid,clock,3,1,2,0.27899879955748474,1,f,same,0.683816990093419,0.11674596990231215,0.5006836075622232,0.035306735017911706,0.35333803503954186,1.0010525920802138,4.685725574940534
18,24,male,132,15,15,same,catch,anti,1,0,1,0.3905713150379597,0,j,change,0.3021558253212788,0,0.4998423677611754,0.03535644610019517,0.35326908095748877,1.001079852996554,5.944776439640918
18,24,male,133,45,45,same,valid,clock,4,1,1,1.6007850502419387,0,f,same,0.8531255602515557,0.11177319395119617,0.50034942080174,0.035351314633771835,0.3532713259742195,1.0010448948805788,6.333994009654361
18,24,male,134,45,355,change,catch,anti,5,0,2,1.3844286288367584,1,f,same,1.5245048375295482,0,0.4994664878349795,0.03535195606718844,0.3532597801740849,1.0010599685633679,8.19414550979036
18,24,male,135,45,45,same,valid,anti,3,1,1,0.44083050220706355,0,j,change,0.40074989969571106,0.11996214074443597,0.5001024689727274,0.035326298734162265,0.3533114155570729,1.0010497056300665,4.626011339899833
18,24,male,136,15,15,same,valid,anti,5,1,2,0.41606251665734817,1,f,same,1.1946179254314302,0.12817883191935875,0.49956783429979623,0.035342334567303624,0.35324727222450747,1.001063496446477,5.450172337097683
18,24,male,137,135,85,change,valid,anti,5,0,2,0.34837269969966655,1,j,change,1.3268045042727863,0.15560482641696521,0.49914577117442605,0.035300962118071766,0.35333258285618285,1.0010291797639184,5.40210845547017
18,24,male,138,75,75,same,valid,anti,1,1,1,0.23144710243695954,0,j,change,1.034779156111199,0.12356217173269468,0.5002105504877363,0.03530416928470004,0.35329281399026513,1.0010830601631824,5.026507232000313
18,24,male,139,75,75,same,catch,clock,2,0,1,0.41421134009215166,0,j,change,0.5746973156333297,0,0.500229793487506,0.035329826617271465,0.3532514415410333,1.0010737593797785,6.203846226624137
18,24,male,140,105,155,change,valid,clock,2,1,1,0.47955800112731595,0,j,change,0.4932721662516997,0.13107215281108775,0.5008147806761372,0.035338806684194424,0.353270363824322,1.001073117946362,4.755988822383188
18,24,male,141,135,135,same,valid,clock,5,1,2,0.5581794454615192,1,f,same,0.7845415852448241,0.13863088925884628,0.5000752080568418,0.03530641430097603,0.35331590559007964,1.0010311040637134,5.156420250434621
18,24,male,142,75,75,same,valid,anti,5,0,2,0.3334712414975911,1,f,same,1.2143352650095949,0.15159610419062142,0.49903191675957714,0.03530481071811664,0.35333290357311853,1.0010490641966499,5.284079592895068
18,24,male,143,165,165,same,valid,anti,5,2,2,0.2351558699006091,1,j,change,1.5719997678011168,0.2757212806241692,0.5005149105986675,0.03533367521731634,0.35329537972393155,1.0010500263465474,5.485797543759418
18,24,male,144,105,105,same,valid,clock,1,2,2,0.2140225662656121,1,j,change,1.420627276887899,0.2735647407278422,0.5004966297492501,0.03531443221754671,0.35334124220617014,1.001032066213611,5.33277592777722
18,24,male,145,105,105,same,valid,anti,3,0,2,0.2211684541807699,1,f,same,1.0527896416215299,0.14754817469922787,0.5002631480201671,0.0354003842826387,0.353245989358129,1.0010067295979752,5.003528845416895
18,24,male,146,15,15,same,valid,clock,1,2,2,0.05984637030496742,1,j,change,1.27427368099643,0.2713001160055008,0.4995697585995913,0.03534554173347715,0.35329762474020754,1.001037197680489,4.990721025574658
18,24,male,147,45,95,change,valid,clock,2,1,2,0.15689394894252473,1,f,same,1.0915950746903036,0.13432018464147485,0.500046984990604,0.03530641430143078,0.35329088969047007,1.0010760043965092,4.979790039631098
18,24,male,148,15,15,same,valid,clock,2,0,2,0.1350149790719115,1,f,same,1.184220291294423,0.1437267891134888,0.4996454477318366,0.03531924296748912,0.35332424422313125,1.0010333490804442,5.07274334937847
18,24,male,149,165,215,change,catch,clock,2,2,1,0.4575667804247132,0,j,change,0.37553675942126574,0,0.5004549365830826,0.035305772867559426,0.3533668995391963,1.0010362355301368,6.039791636800146
18,24,male,150,45,45,same,valid,clock,1,0,2,0.33788430274762504,1,f,same,1.7437165993642338,0.1398639255083935,0.5000068954082053,0.03532180870115553,0.35331686773997717,1.0010481020467523,5.83880491992204
18,24,male,151,15,65,change,catch,clock,5,1,1,0.6239061557394052,0,j,change,0.2376449519038033,0,0.5047557470020365,0.03533239235093788,0.3532963418738291,1.001041046280534,6.1972638378815645
18,24,male,152,45,45,same,valid,clock,5,1,1,0.6869208859347964,0,j,change,0.33145457513546717,0.13005117432677202,0.499534800483616,0.03536189828355418,0.35330596337325915,1.0010529127966947,4.755417946726993
18,24,male,153,45,355,change,catch,anti,1,1,1,0.7883411155230533,0,f,same,0.40809014190745074,0,0.4994908623016272,0.03532245013411739,0.3532992283235217,1.001085946612875,6.556529037526161
18,24,male,154,135,135,same,catch,clock,2,1,1,0.8674336926319484,0,f,same,0.5342860542455128,0,0.5003285742186563,0.03529390635139862,0.3533351485893945,1.0010275761806042,6.710583361155386
18,24,male,155,45,355,change,catch,anti,3,2,1,0.5173724197143201,0,j,change,0.3788022964595257,0,0.49997867234196747,0.03533592023404708,0.35326330805764883,1.0010657414632078,6.215484072087747
18,24,male,156,15,15,same,catch,clock,5,1,1,0.5505560104388678,0,j,change,0.7862243855629458,0,0.500100544673387,0.03529935853430288,0.3533226406398171,1.0010519506467972,6.580389394926442
18,24,male,157,165,115,change,catch,anti,5,1,1,0.6951803020956504,0,f,same,0.5325689372443776,0,0.5004549365830826,0.03535420108391918,0.35329345542368173,1.0010445741636431,6.61647482999615
18,24,male,158,75,75,same,catch,anti,4,0,1,0.768395104965748,0,f,same,0.4237356627627378,0,0.5000550029076294,0.035330788767623744,0.3533261685229263,1.0010147475140911,6.521515437536436
18,24,male,159,105,105,same,valid,clock,3,0,2,1.2404002287348703,1,f,same,0.9888695282929802,0.13613115758502517,0.500416771300479,0.03529390635094387,0.353328734256138,1.0010702314966693,6.027412615133471
18,24,male,160,165,115,change,valid,anti,5,1,2,0.3118523728380751,1,j,change,1.4028130699734902,0.13693799627555847,0.5005626973811559,0.03531956368442479,0.3533287342565927,1.0010282176140208,5.427817744418917
18,24,male,161,45,45,same,valid,anti,4,0,2,0.6127134650005246,1,f,same,0.9992071884148572,0.1325625546711101,0.4990594983923984,0.035308017884290166,0.35329890760704075,1.0010753629630926,5.35520332313763
18,24,male,162,45,95,change,valid,clock,3,0,1,0.450118777415355,0,j,change,0.355146877005609,0.1289035022282638,0.5000020846582629,0.035354842516881035,0.35329121040740574,1.001020841130412,4.519638603637759
18,24,male,163,165,115,change,valid,anti,3,2,2,0.369770594579677,1,f,same,0.6801184855630709,0.2690755839540551,0.5004834803658014,0.03526407970230139,0.3533784453388762,1.0010500263470021,4.7917795188418495
18,24,male,164,165,165,same,valid,clock,4,1,2,0.2796790395946118,1,j,change,0.6596984557813812,0.13308817210499024,0.49935680273711114,0.03531860153407251,0.353298907606586,1.0010481020467523,4.625465800859729
18,24,male,165,15,15,same,catch,anti,4,1,1,0.4867789367408477,0,j,change,1.0403560981226292,0,0.4999668058253519,0.03536157756661851,0.3533277721066952,1.0010388012638032,6.792859051121468
18,24,male,166,165,165,same,valid,clock,4,2,2,0.26194244611269824,1,j,change,1.3955366503773803,0.26696091854318493,0.5000829052564768,0.03530192426751455,0.3533155848735987,1.0010676657630029,5.367641356669992
18,24,male,167,15,15,same,valid,anti,5,2,2,1.3119347970200579,1,j,change,1.9965163756323818,0.26495034692146374,0.5004754624492307,0.03531218720127072,0.3533050012233616,1.0010570821136753,7.040844870313322
18,24,male,168,75,75,same,valid,clock,5,2,2,0.2725097393631586,1,f,same,1.9421058320081102,0.26285184959691765,0.4993058087884492,0.03533303378389974,0.3533107741236563,1.0010413669970148,5.921088307087302
18,24,male,169,75,25,change,valid,anti,4,0,1,0.7344632822719177,0,f,same,0.4079746839092877,0.13231572061565217,0.49975930214623077,0.03533399593379727,0.35329762474020754,1.001080494429516,4.978768236350334
18,24,male,170,135,135,same,valid,clock,5,2,2,0.23380308702598995,1,f,same,1.5399778128216894,0.2607965538131868,0.500242622154019,0.035351635350252764,0.3532694016739697,1.00103751839697,5.509617490860364
18,24,male,171,75,75,same,catch,clock,3,1,1,0.4258151895901392,0,j,change,0.4085712168985083,0,0.49948508940178726,0.03533367521731634,0.35329313470674606,1.0010436120132908,6.050300238901855
18,24,male,172,45,95,change,catch,clock,3,0,2,0.44107585045230735,1,j,change,0.22066557045718582,0,0.5005546794645852,0.03534778675020789,0.35327709887405945,1.0010436120137456,5.8510585413741865
18,24,male,173,105,105,same,valid,clock,2,1,2,0.4406156220443336,1,j,change,1.9643856977049836,0.12922286273534356,0.5005424922314887,0.03533463736721387,0.3532803060406877,1.0010580442635728,6.192933200813513
18,24,male,174,135,135,same,valid,clock,2,0,2,0.2555560152495673,1,f,same,0.9873246361389647,0.13549065787677989,0.4992862450717439,0.03532886446737393,0.3532883239572584,1.0010458570300216,5.002034947211541
18,24,male,175,15,15,same,valid,clock,3,0,2,0.19280812131546554,1,j,change,1.2189741107890768,0.13218668579353887,0.4995190853674103,0.035342334567303624,0.3532424614750198,1.0010987752789333,5.132112814009361
18,24,male,176,105,105,same,valid,anti,2,0,2,0.09594752049133604,1,j,change,1.2234067357553613,0.12878821572557012,0.49990875611001684,0.03533271306741881,0.3532998697569383,1.001067024330041,5.025723400481638
18,24,male,177,75,75,same,catch,clock,3,1,1,0.40446828865924545,0,j,change,0.2924381105044631,0,0.5006630816956203,0.035359653266368696,0.353278061023957,1.0010439327302265,6.015819028568785
18,24,male,178,165,165,same,valid,clock,1,1,2,0.33330992101673473,1,f,same,2.103586670630648,0.12563578370731965,0.5005598109314633,0.035326298734162265,0.3532918518403676,1.0010413669970148,6.216736149931421
18,24,male,179,105,155,change,catch,clock,2,0,1,0.5092361587512642,0,j,change,0.47669271848099015,0,0.49966501144808717,0.035372161216400855,0.3532928139907199,1.001075042246157,6.285711399264073
18,24,male,180,75,75,same,valid,anti,4,2,2,0.36548806501059516,1,j,change,0.8327020025867569,0.2587683959084942,0.5002714866532187,0.03531892225055344,0.3533050012233616,1.0010817772963492,5.0034060109360325
18,24,male,181,165,165,same,valid,anti,4,1,2,1.002567657585132,1,j,change,1.9015194593230262,0.12225526364737549,0.49932312748796903,0.03533720310088029,0.3532787024573736,1.0010994167128047,6.698335833319561
18,24,male,182,15,65,change,catch,clock,2,2,1,0.32911622996289225,0,j,change,0.22046159466117388,0,0.49926251203896754,0.03531443221754671,0.35333290357311853,1.0010086538977703,5.803205691309358
18,24,male,183,45,95,change,valid,clock,1,1,2,0.5096450724931856,1,j,change,4.049402552968786,0.11882600565800973,0.4997041388805883,0.03532950590079054,0.3533293756895546,1.0010631757295414,8.34773351139529
18,24,male,184,15,15,same,valid,clock,4,2,2,0.2292678327280555,1,j,change,1.9093750932083822,0.2568392802670321,0.4990723270593662,0.03535195606718844,0.3533014733402524,1.001023727581014,5.8502217916066
18,24,male,185,45,45,same,valid,anti,4,1,2,0.0599935792524775,1,j,change,1.3605047695377834,0.11563371796826735,0.4989520583117155,0.035358370399990235,0.35327421242436685,1.001070872930086,5.119999987171468
18,24,male,186,45,45,same,valid,clock,2,2,2,0.06008754923414017,1,j,change,1.3017228578291906,0.2549959257072587,0.49955564706669975,0.03537248193333653,0.35329537972393155,1.0010660621801435,5.025663747182989
18,24,male,187,105,155,change,valid,clock,2,2,1,0.46141473891884743,0,j,change,0.35069853692266406,0.2530643260414085,0.5004302414004087,0.0353272608840598,0.3532870410904252,1.0010349526637583,4.543744630000219
18,24,male,188,45,95,change,valid,clock,4,1,2,0.3360914966146993,1,f,same,1.2295478183732484,0.11260714441918623,0.5003160662690789,0.03533463736721387,0.3532783817404379,1.0010609307132654,5.297800493069644
18,24,male,189,45,45,same,valid,clock,2,1,2,0.07147587713643588,1,j,change,1.1273819225489206,0.10950928528305563,0.49985359284437436,0.03536157756661851,0.3533033976405022,1.0010500263470021,4.896770928446131
18,24,male,190,105,105,same,valid,anti,5,1,2,0.24388673955263585,1,f,same,2.7585891930671096,0.10659333213449734,0.4997480770630318,0.03526151396863497,0.3533300171229712,1.0010246897304569,6.733426726024845
18,24,male,191,105,105,same,valid,clock,5,2,2,0.21283559390485607,1,f,same,0.9893223802178,0.25956782356164987,0.5003478172184259,0.03538659346622808,0.3532575351578089,1.001069269346317,4.99168413770667
18,24,male,192,45,45,same,catch,clock,3,2,1,1.1961810984353178,0,j,change,1.589704931050619,0,0.49975545354664064,0.03535644610019517,0.35330179405673334,1.001061572146682,8.075787912638134
18,24,male,193,45,95,change,valid,clock,5,0,1,0.2767752709492015,0,j,change,1.9985359284441984,0.12554010214740557,0.5009145235576398,0.0353272608840598,0.3532815889075209,1.0010612514297463,6.027968096389486
18,24,male,194,75,75,same,valid,clock,1,1,1,0.5196296235717455,0,f,same,1.3708257523931024,0.10383990204132017,0.5004295999669921,0.03530833860122584,0.3533088498234065,1.0010609307132654,5.75669055043636
18,24,male,195,75,25,change,catch,anti,1,0,1,0.4762353765231637,0,f,same,0.6329032202197595,0,0.4998256904950722,0.03533848596725875,0.35329153112388667,1.0010493849135855,6.427213514230516
18,24,male,196,45,95,change,catch,clock,5,1,1,0.6403252451800654,0,f,same,1.1917503977688284,0,0.5007297907613975,0.035299999968174234,0.3532754952907453,1.0010811358629326,7.111941339639998
18,24,male,197,165,165,same,catch,anti,5,0,1,0.5745103378208114,0,j,change,2.175860811534676,0,0.49954634628329586,0.035369916199670115,0.35332360278971464,1.0010529127971495,8.040616520051117
18,24,male,198,135,85,change,valid,anti,5,2,2,1.0909090617528818,1,j,change,1.2535188230212952,0.25778038556674926,0.5000238933912442,0.03533848596725875,0.3533082083899899,1.001007371030937,6.109421468837354
18,24,male,199,15,15,same,valid,anti,2,2,2,1.2158583484310839,1,f,same,1.3251864887201918,0.2560786708976917,0.5000614172408859,0.035318280817591585,0.3533033976405022,1.001042649863848,6.227221981150251
18,24,male,200,105,105,same,valid,clock,4,0,1,0.36338544658337923,0,j,change,0.7074425828982385,0.12868097287756436,0.5000982996562016,0.035288774884520535,0.3533027562066309,1.0010189168310717,4.779267720477492
18,24,male,201,45,95,change,valid,clock,2,0,1,0.72211023865475,0,j,change,0.5236170938133,0.13175264974701412,0.5050835194292631,0.035391724932651414,0.3532998697569383,1.0010532335136304,4.984133184649181
18,24,male,202,105,55,change,valid,anti,3,1,1,0.40262384714424115,0,j,change,1.6768263290418872,0.10842935383668288,0.4997397384299802,0.035294227068334294,0.3533348278729136,1.0010452155970597,5.792081313219114
18,24,male,203,135,85,change,valid,anti,3,1,2,0.28967898507289647,1,f,same,1.4432644209446153,0.1132676377616861,0.4989411539449975,0.035314752934482385,0.3533223199233362,1.0010323869305466,5.461066761341954
18,24,male,204,75,25,change,catch,anti,2,0,1,0.7529243746907923,0,f,same,0.40418830301450726,0,0.49951748178409616,0.035326298734162265,0.35331686773997717,1.0010166718138862,6.392187406290304
18,24,male,205,75,25,change,valid,anti,2,1,2,0.36214363167346164,1,j,change,1.094452018703123,0.11050413496280077,0.4998981724602345,0.035335278800630476,0.3533005111903549,1.0010214825642834,5.190784078470642
18,24,male,206,45,355,change,valid,anti,1,0,1,0.4955511788421063,0,j,change,0.24499866421501793,0.13462628318281156,0.5005235699486548,0.035304490001180966,0.3533300171229712,1.001030141913816,4.520722625950839
18,24,male,207,135,85,change,valid,anti,2,0,1,0.5468446772420066,0,j,change,0.7262750652098475,0.13737924051203654,0.499199972290171,0.03536927476670826,0.3533139812902846,1.001046498463893,5.002135652243396
18,24,male,208,165,115,change,valid,anti,5,0,2,0.22611967798729893,1,f,same,1.314515603988184,0.14032507389241122,0.49994435565940876,0.03533624095052801,0.3533136605733489,1.000999673831302,5.226683177160339
18,24,male,209,165,215,change,valid,clock,5,1,1,0.47891047418943344,0,f,same,0.30278154352618003,0.10783661651716435,0.4999180568934207,0.03533912740067535,0.3533239235066503,1.0010327076470276,4.555740074541063
18,24,male,210,105,105,same,valid,anti,1,2,2,0.29755129622481036,1,j,change,1.0146564306737673,0.2544398667361145,0.49964224056520834,0.03532116726728418,0.35331173627355383,1.0010442534471622,5.013794985723052
18,24,male,211,75,75,same,valid,clock,3,0,2,0.4775884801142638,1,j,change,0.6597638819803251,0.13731487696495587,0.5005691117144124,0.035300962118071766,0.3533136605733489,1.0010413669970148,4.849789786264864
18,24,male,212,165,215,change,valid,clock,4,2,2,0.4147867057813528,1,f,same,2.545785991545472,0.2527105573435247,0.5006573087962352,0.035318280817591585,0.3532777403070213,1.0010416877134958,6.79381222103666
18,24,male,213,45,355,change,valid,anti,5,0,2,0.54118787678226,1,j,change,0.7416332239367875,0.13446371559448522,0.49987572229429134,0.03540423288268357,0.35323059495840425,1.001042649863848,4.9677503361913296
18,24,male,214,15,15,same,valid,anti,3,1,2,0.29055903158996443,1,j,change,0.8649375548625358,0.11239892709898046,0.499293621554898,0.035312507917751645,0.3532847960741492,1.001074400813195,4.896309737887805
18,24,male,215,105,155,change,valid,clock,2,0,1,0.42820581157820925,0,j,change,0.5794243584941796,0.13158502944139489,0.49988021232729807,0.03530865931770677,0.3533114155570729,1.0010721557964644,4.719733407482636
18,24,male,216,135,185,change,catch,clock,2,1,1,0.26283820774551714,0,j,change,0.3050175800835859,0,0.5002849567531484,0.03531667723427745,0.3533143020067655,1.0010240482970403,5.768637566761299
18,24,male,217,15,65,change,catch,clock,2,2,1,0.2707935845123757,0,j,change,0.9185110280027402,0,0.5003016340192517,0.035308017884290166,0.3533033976405022,1.001018275397655,6.4399729058563935
18,24,male,218,165,165,same,valid,anti,4,0,1,0.3678309002161768,0,j,change,0.9906985754087145,0.13419893268170202,0.4996063202993355,0.03532501586732906,0.35328992754057253,1.0010423291469124,5.1203229488482975
18,24,male,219,165,215,change,valid,clock,2,2,1,0.4991919543736003,0,j,change,0.4621597637215018,0.251003866517271,0.4992955458551478,0.03532661945064319,0.35331333985686797,1.0010311040637134,4.719082352662099
18,24,male,220,75,125,change,valid,clock,2,0,2,0.44515183849216555,1,f,same,1.0900569175860255,0.1367030309378321,0.5003247256190662,0.03530513143459757,0.35333450715643266,1.0010333490804442,5.297607100923415
18,24,male,221,15,15,same,catch,anti,3,2,1,0.37498512676484097,0,j,change,1.0501418048716005,0,0.5000550029071746,0.03529134061818695,0.35331205699003476,1.0010522713637329,6.674769573097365
18,24,male,222,105,105,same,catch,clock,2,2,1,0.6672513331391201,0,f,same,0.21867488214456898,0,0.5008301750763167,0.035303527851283434,0.35328607894052766,1.00108209801283,6.275025761565757
18,24,male,223,165,165,same,valid,clock,2,1,1,0.49774103220124744,0,j,change,1.751824316544571,0.10979440274056129,0.5008689817918821,0.03534073098398949,0.35330660480667575,1.0010339905138608,5.993024091914776
18,24,male,224,165,165,same,valid,anti,3,1,2,0.25199702246663946,1,f,same,0.7797026122693751,0.11410937236430861,0.4993609720540917,0.03536221900003511,0.3532443857748149,1.0011096796456513,4.719064071812227
18,24,male,225,135,135,same,valid,anti,3,2,2,0.2320612748426356,1,f,same,1.7502563327911957,0.2568505122397477,0.49987540157735566,0.03531667723427745,0.3533014733402524,1.0010102574806297,5.709035261834742
18,24,male,226,105,55,change,valid,anti,3,2,1,0.45683041497204613,0,j,change,1.7286608764479752,0.25533042128032635,0.5002916918028859,0.03533624095052801,0.35330788767350896,1.0010314247801944,5.933687661099611
18,24,male,227,135,85,change,valid,anti,1,1,2,0.2632403864377011,1,f,same,1.3898003121853435,0.11162521638391094,0.4995178025005771,0.035347145316791284,0.3532847960741492,1.0010583649800537,5.344374966525265
18,24,male,228,135,185,change,valid,clock,4,2,2,0.15841414591386638,1,j,change,0.9640515109445005,0.26119467991449363,0.4996149796493228,0.03531571508392517,0.35331205699003476,1.0010211618473477,4.790734944677752
18,24,male,229,135,185,change,catch,clock,2,0,2,0.27203828587198586,1,f,same,1.575210141574189,0,0.49969708311391514,0.0353574082500927,0.35330500122381636,1.001044894880124,7.086710239232161
18,24,male,230,15,65,change,catch,clock,3,2,1,0.37401078955008416,0,j,change,1.9822611615013557,0,0.5006550637795044,0.035265683285160776,0.35335150513947156,1.0010388012638032,7.5829830305606265
18,24,male,231,105,105,same,valid,clock,1,0,1,0.41354745660464687,0,j,change,0.6621221115856315,0.13403000257752473,0.499366103520515,0.03536927476670826,0.35330788767350896,1.0010288590474374,4.778393446860264
18,24,male,232,165,215,change,catch,clock,5,1,1,0.3502812845472363,0,j,change,0.3186573389430123,0,0.4994828443846018,0.03536606760007999,0.3532738917074312,1.001054195663528,5.885097162715738
18,24,male,233,45,45,same,valid,clock,4,2,2,0.2580406072193,1,f,same,1.6350289302463352,0.2596406003329125,0.5001367856557408,0.035331750917521276,0.3533005111903549,1.0010529127966947,5.615259313852221
18,24,male,234,165,165,same,valid,clock,2,0,2,0.3044829454106548,1,j,change,0.8220279106881208,0.13646256483543073,0.500210871204672,0.03531796010065591,0.35330307692356655,1.0010464984634382,4.849784654797986
18,24,male,235,135,85,change,valid,anti,4,1,2,0.35323348140809685,1,f,same,0.4602110892915334,0.10917085927636952,0.49967142578088897,0.03533046805068807,0.3533136605733489,1.0009884487476484,4.602147454616443
18,24,male,236,105,155,change,valid,clock,1,2,2,0.21483782801669804,1,f,same,2.169313701625015,0.2581356752059503,0.4998179932954372,0.03535452179994536,0.3533046805068807,1.0010567613967396,6.074597091677333
18,24,male,237,165,165,same,catch,anti,1,1,1,0.35084959446976427,0,j,change,0.04692020601532931,0,0.49978431804584034,0.03529679280154596,0.3533566366058949,1.0010307833472325,5.626645717454721
18,24,male,238,105,55,change,valid,anti,5,1,2,0.3325177508654633,1,j,change,2.543877406697902,0.10685701817802265,0.5000299870075651,0.03533592023359233,0.3533001904734192,1.0010330283639632,6.59260324751267
18,24,male,239,165,115,change,valid,anti,4,2,2,0.2734103117459199,1,j,change,2.138582310487891,0.2567000408176938,0.499773734396058,0.0353602946997853,0.3532225770418336,1.0010885123460866,6.1092729770234655
18,24,male,240,15,325,change,catch,anti,3,1,1,0.274715949271922,0,j,change,0.32811270753200006,0,0.49982087974467504,0.03530641430143078,0.3533476565394267,1.0010445741636431,5.839117939382504
18,24,male,241,135,135,same,valid,anti,4,0,2,0.28602024940846604,1,f,same,1.4161568073554918,0.13386971421781668,0.4999934253082756,0.035335278800630476,0.3533213577729839,1.0010574028301562,5.485953091339525
18,24,male,242,105,105,same,catch,clock,4,1,1,0.6540368445712375,0,j,change,0.7786779225384635,0,0.4998042024785718,0.035343296717201156,0.35330724624009235,1.0010439327302265,6.721799143494081
18,24,male,243,135,185,change,valid,clock,1,0,1,0.46094007826104644,0,j,change,0.14748893286969178,0.13122907653032367,0.5000681522901687,0.035317318667239306,0.3533033976405022,1.0010269347471876,4.402385233948735
18,24,male,244,15,15,same,valid,anti,1,1,1,0.35165138612137525,0,j,change,0.3636801851944256,0.10465958010213817,0.4999193397597992,0.03532886446737393,0.3533226406398171,1.0010083331808346,4.472688891689813
18,24,male,245,45,45,same,catch,clock,2,1,1,0.5619382447239332,0,f,same,0.797541193649522,0,0.4995376869337633,0.03536189828355418,0.35326972239090537,1.0010625342970343,6.67419292454133
18,24,male,246,165,165,same,valid,anti,3,0,2,1.2782961093539598,1,f,same,1.6729831812976954,0.1336400848595422,0.5007968205432007,0.03528813345110393,0.353334186439497,1.001056119963323,6.652894131109861
18,24,male,247,45,45,same,valid,clock,3,0,1,0.22702762685366906,0,j,change,0.38126604184617463,0.131067892569241,0.4989892614439668,0.03532661945064319,0.35330852910692556,1.0010288590469827,4.319139696800903
18,24,male,248,45,45,same,valid,clock,1,1,2,0.3610913603101835,1,f,same,1.5808088923181458,0.10832105358845136,0.4989841299775435,0.03529262348502016,0.35333579002326587,1.0010266140307067,5.732032570700994
18,24,male,249,45,45,same,valid,anti,1,0,1,0.14257779864601616,0,j,change,0.15474867519969848,0.13342175132604617,0.49996327794269746,0.03536542616666338,0.3533053219402973,1.001063496446477,4.036693834574635
18,24,male,250,105,105,same,valid,anti,4,1,2,0.3984663970722977,1,f,same,0.9302986481470725,0.10615857277501041,0.5004459565166144,0.03529454778481522,0.353334186439497,1.0010407255635982,5.073661240461206
18,24,male,251,15,15,same,valid,clock,2,2,2,0.2507991457391654,1,f,same,1.1330810576082513,0.2553173644301095,0.505255744275928,0.03529967925123856,0.3533197541901245,1.0010586856965347,5.173433948564252
18,24,male,252,165,165,same,valid,anti,3,2,2,0.05375307447002342,1,j,change,0.8591935194713187,0.2539730708721683,0.49894468182856144,0.03531090433443751,0.3533094912568231,1.0010586856969894,4.6130575939773735
18,24,male,253,15,325,change,valid,anti,4,0,2,0.01108043990780061,1,j,change,0.5963405587585839,0.13566814604312577,0.4995662307164821,0.03534201385036795,0.3532495172412382,1.0010705522131502,4.296157782333921
18,24,male,254,105,105,same,valid,anti,1,1,2,0.18860512947821917,1,f,same,1.2354127639455328,0.10408806964263537,0.49949022086775585,0.035320846551258,0.3532963418738291,1.001073117946362,5.1435752274605875
18,24,male,255,105,155,change,valid,clock,3,1,2,0.1180859501409941,1,j,change,0.9907656051909726,0.10196399076370212,0.5000296662915389,0.035354842516881035,0.35324759294144314,1.0010930023795481,4.779604793688122
18,24,male,256,165,215,change,valid,clock,3,2,3,0.4793405552313743,1,j,change,1.698079259991573,0.2525431422263807,0.4995668721498987,0.03533848596725875,0.3532957004404125,1.0010442534471622,5.8977375684612525
18,24,male,257,45,45,same,valid,clock,1,2,3,0.7400892939326695,1,f,same,0.8266831130167702,0.25112422366535786,0.49949150373458906,0.03532469515084813,0.35330243549014995,1.001086267329356,5.285447449452931
18,24,male,258,75,25,change,valid,anti,1,0,1,0.326772753323894,0,j,change,2.416096191906945,0.13328750670663464,0.49945622490167807,0.035335599517111405,0.35330019047387395,1.00104329129681,6.486630444926959
18,24,male,259,165,165,same,valid,anti,2,0,2,0.2990086327304198,1,j,change,1.3159424724112796,0.135477491081025,0.49913935684162425,0.035344579583579616,0.3532726088410527,1.0010628550135152,5.284230009009207
18,24,male,260,15,15,same,valid,clock,1,0,2,0.26980449433085596,1,f,same,0.893778642001962,0.1331594611555549,0.5000187619243661,0.035296472084610286,0.35331141555661816,1.0010654207467269,4.932259509810137
18,24,male,261,15,65,change,catch,clock,2,0,1,0.2942674783366783,0,j,change,0.3201060160995439,0,0.4994982387847813,0.03531218720081597,0.35330981197375877,1.0010702314962145,5.88525880391262
18,24,male,262,75,125,change,catch,clock,2,2,2,0.24845438623333393,1,j,change,1.257593848911256,0,0.5004745002993332,0.03528909560145621,0.35333739360612526,1.0010503470639378,6.734819919198344
18,24,male,263,105,55,change,valid,anti,4,0,1,0.34140288523121853,0,j,change,0.30526613549591275,0.13077416093094923,0.5000915646064641,0.035368633333291655,0.35331141555661816,1.001061892863163,4.355059000640267
18,24,male,264,165,165,same,valid,clock,4,0,2,0.37062017301377637,1,j,change,1.4917792301966983,0.1329670020159074,0.49956591000000117,0.03535580466677857,0.3532992283239764,1.0010234068640784,5.591109990740733
18,24,male,265,15,15,same,valid,clock,1,1,1,1.8383280142475087,0,j,change,0.6345331022889695,0.09984463011608814,0.4996653321645681,0.03532694016757887,0.35332905497307365,1.0010339905138608,6.227211397500469
18,24,male,266,165,165,same,valid,anti,2,2,1,0.23412123795333173,0,j,change,1.7395825616090406,0.249701022762059,0.5001531422058179,0.03535067320035523,0.35328543750711106,1.0010638171634128,5.685706331941219
18,24,male,267,135,185,change,valid,clock,4,1,2,0.21760625423121382,1,j,change,1.1317334062005102,0.10337874398803786,0.5004257513669472,0.03527754980177633,0.3533438079393818,1.0010602892803036,5.014691068073262
18,24,male,268,165,215,change,valid,clock,2,1,2,0.2102961593859618,1,f,same,1.7525180266816278,0.10135191518568593,0.5004308828333706,0.03532950590079054,0.35326811880759124,1.0010695900632527,5.686783619204107
18,24,male,269,15,65,change,valid,clock,5,0,2,0.11292305333790864,1,j,change,0.9240879700146252,0.13063572253265365,0.4994494898519406,0.035331750917521276,0.3532937761406174,1.0010657414632078,4.696571570969809
18,24,male,270,45,45,same,catch,clock,1,2,1,0.23035377934138523,0,j,change,0.2571204711198334,0,0.4995569299330782,0.03532405371788627,0.3533040390734641,1.001029821197335,5.720728591280931
18,24,male,271,135,135,same,valid,clock,1,1,2,0.24154999796337506,1,f,same,1.0801002688567678,0.09932873763952337,0.5003802096011896,0.03531411150106578,0.3532453479247124,1.0011019824460163,5.096947194322183
18,24,male,272,105,55,change,valid,anti,5,2,2,0.18115680575192528,1,j,change,0.9316007577895107,0.2546374823931291,0.4998818159106122,0.035333995934252016,0.3533011526237715,1.001050667779964,4.873117112575073
18,24,male,273,75,125,change,catch,clock,2,0,2,0.3281806994637009,1,j,change,1.4354453487585488,0,0.5000210069410969,0.03532886446737393,0.3532469515075718,1.001065100030246,7.028630055577196
18,24,male,274,45,355,change,catch,anti,3,0,1,0.2569665271230406,0,j,change,1.2563683905509606,0,0.5001650087219787,0.035311225051373185,0.3533312999898044,1.0010381598303866,6.746013892804513
18,24,male,275,75,25,change,catch,anti,4,0,2,0.3687686757320989,1,j,change,0.7137408166795467,0,0.49976283002933997,0.0353237330009506,0.3533053219402973,1.0009996738308473,6.309434169217184
18,24,male,276,135,135,same,catch,anti,3,2,1,0.2358765202370705,0,j,change,1.2556586445807625,0,0.5001156183561761,0.03531218720081597,0.35329345542368173,1.0010570821136753,6.757382977706584
18,24,male,277,75,25,change,valid,anti,5,1,1,0.46733067844115794,0,j,change,0.809715918803704,0.09740871663814224,0.5001056761398104,0.03531699795075838,0.3533008319068358,1.0010445741636431,5.061416278359047
18,24,male,278,135,185,change,valid,clock,1,1,2,0.8360178921411716,1,j,change,1.2908560152172868,0.10078898586765202,0.4999385827595688,0.035303527851283434,0.3533184713232913,1.0010500263470021,5.839209343630955
18,24,male,279,135,85,change,valid,anti,3,2,2,0.12249195562435489,1,j,change,0.9159561990841212,0.2533028473193452,0.49935359557048287,0.035330788767169,0.35329826617362414,1.0010849844625227,4.743299667705287
18,24,male,280,15,325,change,valid,anti,2,2,2,0.021417458596260985,1,j,change,1.0784226000050694,0.2519837468624102,0.49974070057987774,0.03532694016757887,0.35329666259031,1.0010509884968997,4.814590170611609
18,24,male,281,165,165,same,catch,clock,5,0,1,0.16689293227091184,0,j,change,0.7742911600544176,0,0.4992490419394926,0.03532597801722659,0.35331686773997717,1.0010381598303866,6.179400561318289
18,24,male,282,45,45,same,valid,anti,1,1,2,0.06465840308101178,1,j,change,0.8037942063820083,0.09886213062187538,0.5006473665794147,0.03529358563446294,0.35329024825705346,1.0010676657630029,4.579865664619319
18,24,male,283,75,125,change,catch,clock,1,1,1,0.21123457633484577,0,j,change,0.06042943319425831,0,0.4990992672583161,0.03530769716780924,0.3533085291064708,1.0010388012633484,5.485143281771798
18,24,male,284,135,135,same,catch,anti,4,2,1,0.2572497199339523,0,j,change,0.7294440665332331,0,0.4998025988952577,0.0353060935844951,0.3532841546407326,1.0010631757299961,6.226859250607049
18,24,male,285,15,15,same,catch,anti,2,2,1,0.22609017205513737,0,j,change,0.3450946547118292,0,0.5004437114998836,0.03531475293402764,0.35330371835698315,1.0010769665464068,5.815533398310436
18,24,male,286,135,85,change,valid,anti,4,0,1,0.43031324075491284,0,j,change,0.6034546957248494,0.12831080233622155,0.4999603914925501,0.03529967925123856,0.35334541152269594,1.0010339905138608,4.791225320452213
18,24,male,287,75,75,same,catch,anti,1,2,1,0.29833961777649165,0,j,change,0.8000283513529212,0,0.49895237902819645,0.03534041026705381,0.35325721444132796,1.0010926816626124,6.3211146699968594
18,24,male,288,75,25,change,valid,anti,3,2,2,0.4284505183904912,1,f,same,2.8872940718410973,0.25066750205994437,0.4998956067270228,0.03532822303395733,0.353317509172939,1.001063496446477,7.110883616092906
18,24,male,289,45,355,change,valid,anti,3,0,1,0.07602973299981386,0,j,change,0.2744776567928966,0.1305028285314602,0.4996143382154514,0.035330788767169,0.35332841353965705,1.0009730543483784,4.107285495877477
18,24,male,290,165,165,same,catch,anti,3,2,2,0.26041391050785023,1,f,same,1.423969144491366,0,0.5000771323570916,0.035334316650732944,0.3532610630409181,1.0010827394462467,6.933710431982945
18,24,male,291,15,65,change,valid,clock,4,1,1,0.22893075951787978,0,j,change,0.2735158275277172,0.09704409614828366,0.5006156156300676,0.035306735017911706,0.3532761367241619,1.0011074346289206,4.284616793301666
18,24,male,292,45,355,change,valid,anti,2,0,2,0.3812224243806668,1,f,same,2.378251946669934,0.13260698673982274,0.5000376842076548,0.035299037817821954,0.35332841353965705,1.0010391219807389,6.67528849265409
18,24,male,293,135,135,same,valid,anti,1,2,2,0.17013762272654276,1,f,same,0.9424566960346965,0.24934631796728335,0.4993417290538673,0.03533848596725875,0.3533066048071305,1.0010445741636431,4.896090367692068
18,24,male,294,105,155,change,valid,clock,5,2,2,0.14036068437098947,1,f,same,1.0238109670344784,0.24807310614526443,0.49969291379738934,0.035335599517111405,0.35327709887405945,1.0010336697973798,4.932246360427143
18,24,male,295,105,105,same,catch,anti,3,1,1,0.07592710366861866,0,j,change,0.22635444258321513,0,0.49905148047628245,0.035299999967719486,0.3533011526237715,1.0010638171634128,5.532055790587492
18,24,male,296,45,45,same,catch,anti,1,0,1,0.25999152666554437,0,j,change,0.29684700243797124,0,0.500100865389868,0.03533239235093788,0.35331686773997717,1.0010439327306813,5.827051937176293
18,24,male,297,165,165,same,valid,clock,5,1,1,0.26433563383397995,0,j,change,0.7285569642504015,0.10026804852114347,0.5000328734577124,0.035350352483419556,0.35326459092448204,1.0010032017144113,4.7914062046484105
18,24,male,298,75,25,change,valid,anti,4,2,2,0.20272468046186987,1,f,same,0.9031339469925115,0.24685268073025984,0.4989889407274859,0.035346824600310356,0.35329505900699587,1.001030141913816,4.907179787666337
18,24,male,299,75,75,same,catch,anti,3,0,1,0.33281633807655453,0,f,same,0.33087920944626603,0,0.4998946445771253,0.03532854375043826,0.3532761367241619,1.0010740800967142,5.980153411607716
18,24,male,300,135,135,same,catch,anti,4,0,1,0.2551291413742547,0,f,same,0.35963530667095256,0,0.5001752716552801,0.03531924296748912,0.35327709887405945,1.0010753629630926,5.92173198542514
18,24,male,301,135,135,same,valid,clock,1,0,2,0.5064763918862809,1,f,same,0.4829973665955549,0.1303751143581295,0.5097964507572215,0.035312828634232574,0.35329890760704075,1.0010214825642834,4.788455611370864
18,24,male,302,45,355,change,valid,anti,4,0,2,0.08954890239556335,1,j,change,1.158816966039467,0.12816213349574057,0.499888230243414,0.0352983963848601,0.35332969640649026,1.0010471398968548,4.908113393865733
18,24,male,303,105,105,same,valid,anti,5,2,2,0.12857146064334302,1,f,same,0.7050420186933479,0.2456734083531686,0.4998285769447648,0.035297434234962566,0.35332360278971464,1.0010535542301113,4.567005247245561
18,24,male,304,45,45,same,catch,clock,2,1,1,0.2537487768668143,0,j,change,0.3599380631985696,0,0.5000078575581028,0.03531860153452726,0.35331205699003476,1.0010695900632527,5.850883430077374
18,24,male,305,135,135,same,valid,anti,4,1,2,0.15359473665466794,1,f,same,0.689917983127998,0.10338357220291307,0.5002278691872561,0.03534297600072023,0.3532924932737842,1.0010580442635728,4.578939434903532
18,24,male,306,105,105,same,valid,clock,5,0,2,0.09471981711476474,1,j,change,1.1208024202564957,0.12607000154353942,0.4996797644139406,0.035364143299830175,0.3532790231738545,1.0010442534471622,4.896266761855259
18,24,male,307,15,65,change,valid,clock,2,0,1,0.294728027461133,0,j,change,1.9049222630919758,0.12404712172118706,0.5002961818363474,0.03534073098398949,0.3533053219402973,1.0010468191803739,5.909748407401366
18,24,male,308,105,105,same,valid,anti,2,1,1,0.3028402346749317,0,j,change,2.2310529416613463,0.10158942099183448,0.5003369128521626,0.03534297600072023,0.35328543750711106,1.0010474606137905,6.227727109890566
18,24,male,309,75,75,same,valid,clock,4,1,2,0.3352813663300367,1,f,same,1.0520577662018695,0.1045448335952484,0.5003776438679779,0.03534073098398949,0.35328607894052766,1.0010333490804442,5.250823840921839
18,24,male,310,105,55,change,valid,anti,4,1,2,0.3407242487774056,1,f,same,0.9853640951923808,0.10280868165805021,0.49981735186156584,0.035344579584034364,0.35331943347318884,1.001050347063483,5.049799279478066
18,24,male,311,135,185,change,catch,clock,5,0,1,0.2434162482118154,0,j,change,1.454806372126768,0,0.5001361442223242,0.035345541733931896,0.35329826617362414,1.0010256518808092,6.933861168813564
18,24,male,312,135,85,change,valid,anti,1,2,1,0.1896269327585287,0,j,change,1.4309088115942359,0.24452476399833234,0.5005473029814311,0.03533110948410467,0.3532963418738291,1.0010327076470276,5.368626598251012
18,24,male,313,75,75,same,valid,anti,1,0,1,0.25320612427685774,0,j,change,1.2958864560391703,0.12589815262484821,0.4992795100215517,0.0353497110504577,0.3532998697569383,1.0010516299303163,5.273097933718873
18,24,male,314,165,115,change,valid,anti,2,2,2,0.34436759004211126,1,f,same,4.610039970917114,0.24871471266023681,0.4999677679757042,0.0353237330009506,0.3533300171229712,1.0010163510974053,8.700874626405039
18,24,male,315,15,15,same,catch,anti,4,2,2,0.23653591369111382,1,f,same,0.714957294972919,0,0.4995008045175382,0.035335278800630476,0.35328736180736087,1.0010667036131053,6.180217747369625
18,24,male,316,165,165,same,valid,clock,3,0,2,0.46908564000796105,1,j,change,1.3020750047226102,0.12787397530411243,0.49995622217556956,0.03530513143414282,0.3532976247406623,1.0010599685633679,5.697790294279912
18,24,male,317,135,185,change,valid,clock,5,0,2,0.3549919708584639,1,j,change,2.0788546053468053,0.1258817274176654,0.49944339623561973,0.03531379078458485,0.3533107741236563,1.0010644585968294,6.121300813946618
18,24,male,318,75,75,same,valid,anti,3,2,2,0.2915202194212725,1,j,change,2.3614993119022074,0.24754738812763327,0.4992772650052757,0.03533367521731634,0.3533178298898747,1.0010381598303866,6.356141740086969
18,24,male,319,15,15,same,valid,clock,4,1,1,0.3029585791223326,0,j,change,0.4919710187596138,0.10108000386683554,0.5003426857520026,0.03533912740067535,0.35328287177435413,1.0010413669970148,4.531680872811194
18,24,male,320,15,15,same,catch,clock,4,2,1,0.20916370885743163,0,j,change,1.194104458057609,0,0.5004793110492756,0.03529935853475763,0.35330179405673334,1.0010439327302265,6.6517450033147725
18,24,male,321,105,105,same,valid,clock,3,2,2,0.1873216214025888,1,f,same,0.9928226818519761,0.24642332972422373,0.5001063175727722,0.03526728686847491,0.3533354693063302,1.0010727972294262,4.920401332000438
18,24,male,322,15,325,change,valid,anti,3,0,2,0.19987960296566598,1,f,same,1.0627280095009155,0.12395002212485812,0.5001913074884214,0.03532084655080325,0.3532761367241619,1.001080173713035,5.026785614061737
18,24,male,323,135,135,same,valid,anti,1,1,1,0.2556525509644416,0,j,change,0.5018497333403502,0.10394403366528175,0.49925160767270427,0.035327581600540725,0.3533447700897341,1.0010368769635534,4.5071332196071126
18,24,male,324,75,125,change,valid,clock,1,1,2,0.2520881059981548,1,j,change,1.0656234395132742,0.10667375547329934,0.5004581437497109,0.03529583065164843,0.35331718845691285,1.001056119963323,5.061754955152537
18,24,male,325,45,45,same,valid,anti,2,1,2,0.02468075061779018,1,j,change,0.9102022214760837,0.10508713485211295,0.5002256241705254,0.035334316650732944,0.35332841353965705,1.0010304626307516,4.6375141636494845
18,24,male,326,15,325,change,valid,anti,4,2,2,0.10669922582246727,1,j,change,1.275755712685168,0.24533278831278588,0.5003449307687333,0.03530737645132831,0.3533293756895546,1.0010339905138608,5.073529746630811
18,24,male,327,75,75,same,valid,anti,3,0,2,0.3480446065564138,1,f,same,2.097399404814041,0.12197313971196434,0.5004180541673122,0.035340089550572884,0.35330724624009235,1.0010602892798488,6.168813383634642
18,24,male,328,75,125,change,valid,clock,2,2,2,0.20016824796039145,1,f,same,0.902850754181145,0.24426686612913612,0.5005065719656159,0.035296472085065034,0.3533309792728687,1.001056119963323,4.82676617863217
18,24,male,329,135,85,change,catch,anti,3,1,1,0.23874308574977476,0,j,change,0.7556886315883276,0,0.49968297158056885,0.03534522101699622,0.353304359789945,1.0010654207467269,6.262483495118886
18,24,male,330,75,75,same,valid,anti,5,2,2,0.11741533160329709,1,j,change,1.984126128882508,0.24312934250087584,0.5001387099559906,0.03533912740067535,0.3532815889070662,1.0010535542301113,5.803607549285061
18,24,male,331,165,165,same,catch,anti,1,0,1,0.7626007170583762,0,j,change,1.0765611605065715,0,0.5001290884556511,0.035324053717431525,0.35329954904045735,1.0010593271299513,7.087647694031148
18,24,male,332,105,105,same,valid,clock,2,0,1,0.6792365147466626,0,j,change,0.7734598624701903,0.11996356424834759,0.499545704850334,0.03532886446782868,0.3533062840901948,1.0010153889475077,5.214306721226876
18,24,male,333,75,75,same,valid,clock,3,1,1,0.3958137495724259,0,j,change,0.5266773721887148,0.10354106685801794,0.5001207498230542,0.03531796010111066,0.3532671566576937,1.0010400841301816,4.6727439266687725
18,24,male,334,105,105,same,catch,clock,4,1,1,0.41832613484803005,0,j,change,0.639933650137209,0,0.49998316237542895,0.03532116726773893,0.3533271306732786,1.0010250104473926,6.286239619604203
18,24,male,335,75,25,change,valid,anti,5,2,2,1.9595541012126887,1,j,change,1.2929624822445476,0.24199928478984484,0.5007076613119352,0.03530769716780924,0.3532851167906301,1.0010862673298107,7.029079700335387
18,24,male,336,75,75,same,valid,anti,4,0,1,0.4283523790923027,0,j,change,1.4868469286725485,0.1218348081465648,0.4997336448132046,0.03532533658426473,0.35329088969047007,1.001055799246842,5.697332310888669
18,24,male,337,165,165,same,valid,clock,1,0,2,0.30259103782964303,1,f,same,0.7546658661576657,0.12360308859319387,0.4996066410158164,0.03533848596725875,0.3532684395245269,1.0010926816626124,4.873154636424715
18,24,male,338,105,105,same,valid,anti,3,2,2,1.836013722824191,1,j,change,1.2198612130719084,0.24086748709129283,0.49983242554480967,0.035329826617271465,0.3533274513897595,1.0010394426972198,6.816814982086271
18,24,male,339,45,95,change,catch,clock,4,0,1,0.2859644447098617,0,j,change,0.09822589164878082,0,0.49932890038780897,0.03528877488497528,0.3533046805068807,1.0010769665464068,5.567443346203618
18,24,male,340,45,45,same,catch,anti,5,0,1,0.0641385213743888,0,j,change,0.2526676410038817,0,0.5003660980678433,0.03534201385036795,0.35330756695702803,1.0010218032807643,5.568051424992063
18,24,male,341,75,25,change,valid,anti,1,1,1,0.20463102029270885,0,j,change,1.0598165436558702,0.10617003816937921,0.5007233764281409,0.03533271306741881,0.3532623459077513,1.0010708729296312,5.026934105875625
18,24,male,342,45,45,same,valid,clock,5,2,2,1.7151824380689504,1,j,change,0.5635094356443915,0.2397235573776728,0.4995758522163669,0.03532950590079054,0.35329826617362414,1.0010304626302968,5.992102031515515
18,24,male,343,75,75,same,valid,clock,1,0,2,0.2725514325288714,1,f,same,1.309290167436302,0.12170136951949548,0.4991746356740805,0.03528492628493041,0.3533361107397468,1.0010413669970148,5.36719940911189
18,24,male,344,15,325,change,valid,anti,2,0,1,0.4601228922097107,0,f,same,0.36496882473693404,0.11976243087960683,0.4995447426999817,0.03535003176693863,0.3533130191399323,1.001022444714181,4.602362014062237
18,24,male,345,75,75,same,valid,clock,5,1,1,0.3234100391373431,0,f,same,2.9204093499170085,0.10898746597560476,0.49958707729956586,0.03531571508437992,0.3533027562066309,1.0010522713637329,7.0396992704017975
18,24,male,346,75,75,same,valid,clock,3,2,2,0.2502738118491834,1,j,change,1.1568599529769017,0.23860219125942012,0.5000966960728874,0.035326298734162265,0.35327325027401457,1.0010753629630926,5.085570091503541
18,24,male,347,15,15,same,valid,anti,2,1,1,0.2847158947497519,0,j,change,0.3382912921897514,0.11182869583075232,0.49943537831904905,0.03531571508392517,0.3533017940571881,1.0009903730478982,4.331305441888162
18,24,male,348,15,15,same,catch,clock,3,0,1,0.21456938817209448,0,j,change,1.8634048499416167,0,0.49929265940500045,0.035362860433451715,0.35330243549014995,1.0010359148136558,7.286351870435283
18,24,male,349,165,165,same,catch,clock,2,2,1,0.1926766274846159,0,j,change,0.25008779618565313,0,0.5009058642081072,0.03531507365096331,0.3533277721066952,1.0010464984634382,5.675018449226172
18,24,male,350,15,325,change,valid,anti,5,2,2,0.32615729805183946,1,f,same,0.7630397781667853,0.23752721761014076,0.49980708892871917,0.03531218720127072,0.3533149434401821,1.001018596114136,4.837435459780863
18,24,male,351,15,65,change,valid,clock,3,2,1,0.5548715738236751,0,j,change,0.14050628973473067,0.23648959785802026,0.5013907877987549,0.035316356517341774,0.35329794545668847,1.0010612514297463,4.4855069744644425
18,24,male,352,105,105,same,valid,anti,2,2,2,0.17648877475630798,1,j,change,3.1315313547042933,0.24051172899797166,0.49995333572587697,0.03531154576785411,0.35333514858984927,1.001016671814341,7.01716603854311
18,24,male,353,135,135,same,valid,clock,2,2,2,0.26083757721653456,1,f,same,0.5245301741460935,0.2394316847128286,0.49964833418198396,0.03531282863468732,0.3532953797234768,1.001055799246842,4.5317520719099775
18,24,male,354,165,115,change,catch,anti,4,1,1,0.21304951191723376,0,j,change,0.2729157666553874,0,0.499760585013064,0.03529807566792442,0.3533300171229712,1.0010452155970597,5.802811530533745
18,24,male,355,105,55,change,catch,anti,2,2,1,0.21932080549913735,0,j,change,0.034789419044045644,0,0.5005360778982322,0.035375689099510055,0.3532886446737393,1.0010362355305915,5.485621791029189
18,24,male,356,15,15,same,valid,anti,2,0,1,0.41689317280815885,0,j,change,1.303858510072132,0.12157253908461266,0.5004251099339854,0.03531860153452726,0.35331141555661816,1.0010416877139505,5.462458030216112
18,24,male,357,75,125,change,valid,clock,1,2,1,0.15717201028746786,0,j,change,1.059381010431025,0.2383865444163577,0.4995495534503789,0.03532726088360505,0.3532761367232524,1.001050667779964,4.990086648020224
18,24,male,358,75,75,same,valid,anti,2,0,1,0.24307917500118492,0,j,change,0.9530368179512152,0.12328158588953025,0.5000723216071492,0.03532469515084813,0.35333579002326587,1.0010278968966304,4.908258357796512
18,24,male,359,105,105,same,catch,anti,2,2,2,0.24217347115154553,1,j,change,1.2291927850292268,0,0.5005264563978926,0.035299999967719486,0.35332873425704747,1.0010301419142706,6.69878676094504
18,24,male,360,45,95,change,valid,clock,1,2,2,0.26704408603291085,1,f,same,0.7694265297459424,0.24221095096145046,0.5007455058776031,0.03529583065119368,0.353334186439497,1.0010311040641682,4.779890552232246
18,24,male,361,165,215,change,valid,clock,2,0,1,0.3650874899012706,0,j,change,0.4518128028166757,0.12492394723195692,0.4999924631583781,0.03533335450083541,0.3533130191399323,1.0010198789805145,4.543753930784078
18,24,male,362,45,355,change,valid,anti,1,1,1,0.36490532283823995,0,j,change,1.2880212006539296,0.11448578683101884,0.499843009194592,0.03531924296748912,0.353319754189215,1.0010490641971046,5.3557405235442275
18,24,male,363,45,95,change,valid,clock,3,2,2,0.28918027066538343,1,j,change,0.8441467766206188,0.24120529585323858,0.5003587215851439,0.03532694016757887,0.3532710052577386,1.001082418729311,4.814731606658825
18,24,male,364,15,15,same,valid,anti,4,2,2,0.8889800793267568,1,f,same,1.1753005195287187,0.2401906625851312,0.5000020846582629,0.03532469515084813,0.35330949125636835,1.0010551578134255,5.850682020014574
18,24,male,365,105,55,change,valid,anti,2,0,2,0.238338982757341,1,j,change,0.7535680530281752,0.12653134933914756,0.5002115126371791,0.03535901183386159,0.35322899137463537,1.0011141696795676,4.731821539137854
18,24,male,366,135,135,same,valid,anti,5,2,2,0.18722091637118865,1,f,same,0.8954672152203784,0.23917188787686972,0.5003596837350415,0.03529871710088628,0.3533322621397019,1.0010497056300665,4.814594019211654
18,24,male,367,45,355,change,valid,anti,1,2,3,0.8626803510051104,1,j,change,1.4835438677855564,0.2381936163424104,0.5002686002035261,0.035318280817591585,0.3533046805068807,1.0010737593793237,6.050824931358875
18,24,male,368,45,355,change,valid,anti,5,1,1,0.3824870101734632,0,j,change,2.4950274485354385,0.1170471114634302,0.5004180541673122,0.03532148798421986,0.353299869757393,1.0010577235461824,6.628656931632577
18,24,male,369,135,135,same,catch,clock,1,0,2,0.36492071723841946,1,f,same,1.8114574102710321,0,0.4997169675471014,0.0353602946997853,0.3532947382900602,1.0010404048471173,7.463636663944271
18,24,male,370,165,115,change,valid,anti,2,0,1,0.2769574380126869,0,j,change,0.7715304310395368,0.12479604201380386,0.500787840477642,0.03528845416803961,0.3533521465724334,1.0010455363135407,4.76810742212092
18,24,male,371,75,25,change,catch,anti,5,2,1,0.14111789640628558,0,j,change,0.33908955595779844,0,0.4995957366490984,0.03533335450083541,0.353334186439497,1.0010150682310268,5.76827194976795
18,24,male,372,75,25,change,valid,anti,4,1,2,0.250484843410959,1,f,same,0.8365220587311342,0.1198361286262854,0.4994308882860423,0.03532116726728418,0.3533258478064454,1.0010099367646035,4.860456501680346
18,24,male,373,75,25,change,valid,anti,3,1,1,0.5851228521205485,0,f,same,0.38175930407032865,0.11825412166266736,0.5000161961906997,0.03530801788383542,0.3533069255236114,1.0010256518808092,4.81415303380345
18,24,male,374,135,185,change,valid,clock,3,1,1,0.5792540579477645,0,f,same,1.0328696091137317,0.12101523947094514,0.49979875029566756,0.035322770851053065,0.35325881802418735,1.0010413669970148,5.415205241023614
18,24,male,375,165,165,same,valid,anti,5,0,2,0.4536392841982888,1,j,change,0.37223466068371636,0.12637268160345172,0.49971985399770347,0.03533046805023332,0.35330371835698315,1.001063175730451,4.519782926135122
18,24,male,376,15,15,same,valid,clock,2,1,1,0.39243275453554816,0,f,same,0.5148907141938253,0.12363284499214638,0.49972402331422927,0.03529326491843676,0.35331622630656057,1.0010679864799386,4.661443154414883
18,24,male,377,135,135,same,valid,clock,3,1,2,0.73800463563839,1,j,change,0.9773477822609493,0.1261243962653551,0.49964127841576556,0.03530320713525725,0.35329409685709834,1.001063175730451,5.449699600739223
18,24,male,378,105,105,same,valid,clock,5,1,2,0.3255014324813601,1,j,change,1.0106532453155523,0.12468419438179676,0.5003635323346316,0.03529262348456541,0.3538377115964977,1.0005506705065272,5.061777405318935
18,24,male,379,165,165,same,valid,clock,5,2,2,0.18746658533291338,1,j,change,1.0109075736272644,0.23725186415642677,0.500223058436859,0.03533976883318246,0.3533213577729839,1.0010173132477576,4.943591070862567
18,24,male,380,45,45,same,valid,clock,3,2,1,0.3417733129745102,0,j,change,0.2890231195024171,0.23633972789164492,0.5004963090323145,0.03531731866769405,0.3533085291064708,1.0010557992472968,4.39055592063778
18,24,male,381,45,95,change,catch,clock,4,1,2,0.19367982919902715,1,j,change,1.5865984694764848,0,0.5004539744331851,0.03529101990170602,0.35335727803885675,1.0010420084308862,7.063824860480963
18,24,male,382,165,215,change,valid,clock,5,0,1,0.23685085745182732,0,j,change,0.5838592284781043,0.12467280687596195,0.5002730902360781,0.03529775495189824,0.3533181506072651,1.0010355940976297,4.579408322661038
18,24,male,383,105,55,change,valid,anti,5,0,1,0.4137183985849333,0,f,same,0.5061126991931815,0.12621997195040247,0.4997179296969989,0.03535965326682344,0.3532973040237266,1.0010564406793492,4.719702939400122
18,24,male,384,45,95,change,catch,clock,5,1,1,0.38423138809048396,0,f,same,0.2453957114412333,0,0.4997374934127947,0.035329505901245284,0.35327966460772586,1.0010705522126955,5.956221213675235
18,24,male,385,75,75,same,valid,anti,5,1,2,0.6684828851157363,1,j,change,1.3653251409468794,0.12320316679713664,0.5000918853238545,0.035356125383259496,0.35327421242436685,1.0010955681127598,5.756474387407252
18,24,male,386,105,55,change,valid,anti,2,1,2,0.11414338023132586,1,j,change,1.2477494510130782,0.1217297032692034,0.49982152117900114,0.035329185183400114,0.3532793438907902,1.0010769665468615,5.061265541527973
18,24,male,387,105,155,change,valid,clock,4,1,1,0.16820690842905606,0,j,change,1.2669902056341016,0.12024233098229013,0.49982697336236015,0.03528203983478306,0.35331815060635563,1.001075042246157,5.179227374321272
18,24,male,388,15,15,same,valid,anti,3,2,2,0.15005498687150975,1,j,change,2.0639897088440193,0.239897780509193,0.5001845724373197,0.03535933254988777,0.3532540072737902,1.0010679864799386,5.897808767559582
18,24,male,389,135,185,change,valid,clock,5,1,2,0.05760616443149047,1,j,change,0.9775591345396606,0.12273316505583894,0.5003654566353362,0.03532469515084813,0.35331237770697044,1.0010577235470919,4.7677199963945895
18,24,male,390,165,215,change,catch,clock,5,2,1,0.3030044416054807,0,j,change,1.417857247090069,0,0.5000630208242001,0.035332071634002205,0.353288965390675,1.0010651000293365,6.9578610379612655
18,24,male,391,45,355,change,catch,anti,4,1,1,0.23803301906264096,0,j,change,1.2699327809950773,0,0.4997599435791926,0.03534105170092516,0.3532549694245972,1.0010654207462721,6.792407802779962
18,24,male,392,15,65,change,valid,clock,4,0,1,0.12843291104582022,0,j,change,0.025666312915745948,0.12788543456853213,0.5002759766866802,0.03531122505046369,0.353339638622856,1.0010327076470276,3.978615895936855
18,24,male,393,75,25,change,valid,anti,2,2,1,0.35791786895333644,0,f,same,0.38706235405425105,0.23893922886591204,0.4993693106871433,0.03536189828355418,0.3533005111903549,1.0010339905138608,4.566148613044788
18,24,male,394,75,75,same,valid,clock,4,2,2,0.2690543380613235,1,f,same,1.0938958960132368,0.24237436699263337,0.4997487184964484,0.035315715084834665,0.353319754189215,1.0010365562475272,5.085098317295888
18,24,male,395,15,15,same,valid,clock,4,0,1,0.2566018722800436,0,j,change,2.442160193481868,0.1295725934031126,0.5000489092908538,0.03533143020013085,0.3533155848735987,1.0010266140307067,6.3688366676642545
18,24,male,396,75,75,same,valid,clock,2,2,2,0.1957253600603508,1,f,same,1.3419567629034646,0.2414697494655269,0.5000357599083145,0.03533559951665666,0.35338678397238255,1.000941944832448,5.285509027051376
18,24,male,397,135,135,same,valid,anti,2,1,2,0.18093102122202254,1,f,same,1.345395807656132,0.12130251358010546,0.5001399928223691,0.035325978017681336,0.3532973040237266,1.0010134646481674,5.238787986082571
18,24,male,398,165,215,change,valid,clock,4,1,1,0.27709181829322915,0,j,change,1.1750442669172116,0.11985319190114761,0.4998125411120782,0.035358370399990235,0.353288003239868,1.0010580442640276,5.1557541219308405
18,24,male,399,75,25,change,catch,anti,2,0,1,0.3716269026117516,0,f,same,0.17587684736827214,0,0.5000421742406616,0.035322129417181714,0.353329696406945,1.0010285383305018,5.826742766315874
18,24,male,400,75,75,same,valid,anti,4,1,1,0.3919016477457262,0,f,same,0.383303875508318,0.12229136134800246,0.5005331914480848,0.0353096214676043,0.3532902482575082,1.0010885123465414,4.473629874371909
18,24,male,401,75,125,change,catch,clock,5,1,1,0.2559623632587318,0,j,change,0.37208264098626387,0,0.5060075041283199,0.03528909560100146,0.35331333985686797,1.001068948629836,5.915315407196431
18,24,male,402,135,135,same,valid,clock,3,2,2,0.29026397226152767,1,f,same,0.8962988335215414,0.2405573050388033,0.49994948712628684,0.03540006356615777,0.35324727222450747,1.0010795322796184,4.932279394242869
18,24,male,403,45,95,change,valid,clock,2,2,2,0.051530187294702046,1,j,change,1.3044390072282113,0.2396316393563907,0.4993609720531822,0.03533110948410467,0.35328800324077747,1.0010429705798742,5.049089212790932
18,24,male,404,75,25,change,valid,anti,2,0,1,0.739172044283805,0,j,change,1.6270831749798162,0.13126392352264232,0.5002499986376279,0.035338806684194424,0.3532312363922756,1.001033349080899,6.1567958096438815
18,24,male,405,45,45,same,valid,clock,5,0,2,0.06263820883668814,1,j,change,1.077463336472647,0.1328651667438387,0.5005562830474446,0.035330788767169,0.353350542989574,1.0010538749465923,4.850781121463115
18,24,male,406,135,135,same,valid,anti,3,1,2,0.17202504027409304,1,f,same,0.9001188896663734,0.12457020401051275,0.49892159022874694,0.0353096214676043,0.35328415464027785,1.0010365562475272,4.790044441707323
18,24,male,407,45,355,change,valid,anti,4,1,2,0.08236164203026419,1,j,change,1.4625895240469617,0.1232200838439611,0.4995059359844163,0.03534265528378455,0.3533130191399323,1.000994542364424,5.237470482040408
18,24,male,408,75,125,change,valid,clock,3,1,2,0.10041510357405059,1,f,same,0.7957432560497182,0.12187449196220716,0.5003096519358223,0.035292302767629735,0.3533646545229203,1.0010583649800537,4.614563358699343
18,24,male,409,165,165,same,valid,clock,3,1,2,0.05054687001302227,1,j,change,0.9836694283576435,0.12051548056337077,0.5000838674068291,0.03535420108346443,0.35328255105650896,1.0010102574815392,4.719813907365278
18,24,male,410,75,25,change,valid,anti,3,0,2,0.03369032304817665,1,j,change,1.0100519015777536,0.13115048839607507,0.5006043905468687,0.03528685058518022,0.3533242442226765,1.0010599685629131,4.814747642491966
18,24,male,411,135,135,same,valid,clock,3,0,2,0.1338783592264008,1,f,same,1.0506684216288704,0.1294016576715598,0.4999530150089413,0.03534971105091245,0.35329409685709834,1.0010638171625033,4.955421346323419
18,24,male,412,135,135,same,valid,anti,2,0,1,0.3424311028447846,0,j,change,0.6737840107989541,0.12772797209893075,0.5002894467861552,0.03532469515084813,0.3533604852063945,1.0010259725977448,4.720712876163816
18,24,male,413,105,105,same,catch,clock,5,2,1,0.2421388337525059,0,j,change,0.3234074734036767,0,0.49987508085996524,0.03532245013411739,0.35330949125727784,1.0010612514297463,5.767734107928845
18,24,male,414,15,325,change,valid,anti,5,1,1,0.29117544901146175,0,j,change,1.2964987041441418,0.11915566014023002,0.5007804639935785,0.035339127400220605,0.3533017940571881,1.0010711936465668,5.297993564499848
18,24,male,415,135,85,change,valid,anti,1,0,1,0.44642572506745637,0,j,change,1.0051677075525731,0.1293205852265321,0.4996839337309211,0.03532726088360505,0.3532514415410333,1.0010673450469767,5.155287799905636
18,24,male,416,45,355,change,valid,anti,5,2,3,0.6994913754479057,1,j,change,1.2964598974285764,0.2387297199262578,0.500138068522574,0.03536189828355418,0.3532847960732397,1.0010561199642325,5.72149285908381
18,24,male,417,105,55,change,catch,anti,3,1,2,0.28550710275158053,1,f,same,1.1785509828841896,0,0.4998632143442592,0.0353025657013859,0.35333450715643266,1.0010516299298615,6.710659691721048
18,24,male,418,105,105,same,valid,anti,4,2,1,0.2608879297322346,0,j,change,0.5706960545758193,0.2378632035900513,0.500005933257853,0.03532180870115553,0.35333867647295847,1.0010593271299513,4.57896605438691
18,24,male,419,135,185,change,valid,clock,5,2,2,0.40519759834569413,1,j,change,1.0793934093362623,0.24114864542502656,0.49946007350263244,0.035337523817361216,0.35328383392425167,1.001058044263118,5.214191904662584
18,24,male,420,165,115,change,catch,anti,2,1,1,0.19756018007592502,0,j,change,0.26468008352730976,0,0.4997641128957184,0.0353025657013859,0.3532790231738545,1.0010792115626828,5.709384522278015
18,24,male,421,15,65,change,valid,clock,3,1,2,0.09553347528253653,1,j,change,0.9820292833555868,0.12147975254486738,0.5001111283227146,0.03536670903304184,0.35332231992379093,1.0010439327297718,4.77897458544976
18,24,male,422,45,95,change,valid,clock,5,2,2,0.2230895469774623,1,f,same,1.1182912088033845,0.24027438262571188,0.5001890624707812,0.03531411150106578,0.35329794545668847,1.0010679864799386,5.085563035737323
18,24,male,423,45,95,change,valid,clock,3,1,2,0.1948363334777241,1,f,same,2.5934589195630906,0.12015071308227178,0.4999276783928508,0.035355163233361964,0.353293455423227,1.0010551578134255,6.521788367414047
18,24,male,424,75,75,same,valid,anti,2,1,2,0.2774186285705582,1,f,same,1.5188445091862377,0.11884196503273618,0.49992831982672215,0.03531186648433504,0.3533072462396376,1.0010125024973604,5.556318968113374
18,24,male,425,75,75,same,valid,anti,3,1,2,0.26918583189217316,1,j,change,0.6871854771798098,0.1176033800452742,0.4998978517442083,0.03528332270161627,0.35330083190638106,1.0010503470639378,4.684594086562356
18,24,male,426,135,135,same,valid,clock,4,1,2,0.21126953445127583,1,j,change,0.9731922564888009,0.11641800648054199,0.49981029609534744,0.03532469515084813,0.3532985868905598,1.0010570821132205,4.943345081184816
18,24,male,427,45,45,same,catch,anti,3,2,1,0.25774169929081836,0,j,change,0.3942839311011994,0,0.5005421715150078,0.035298717101795773,0.35332777210624045,1.0010339905138608,5.850807099512167
18,24,male,428,165,165,same,valid,anti,1,2,2,0.12676422226013528,1,f,same,0.7365165103337858,0.23939145409450047,0.5008609638753114,0.03531443221709196,0.35334060077275353,1.0010567613962849,4.580002610633528
18,24,male,429,45,355,change,valid,anti,3,1,2,0.18409745681310596,1,f,same,1.2157800935656269,0.11527079327435302,0.49940202378638787,0.03532180870115553,0.3532992283235217,1.001084343029106,5.120371377064657
18,24,male,430,135,135,same,valid,clock,5,0,1,0.3298202030327957,0,j,change,0.9553764459906233,0.13093390057162876,0.4991313389245988,0.03532822303350258,0.35330500122381636,1.0010590064130156,4.990143414869635
18,24,male,431,135,135,same,valid,clock,1,2,2,0.23284735137713142,1,f,same,0.9673657969151463,0.23854010900361666,0.5001483314554207,0.035327260884514544,0.3532761367241619,1.0010901159294008,4.932776184350587
18,24,male,432,75,75,same,valid,clock,1,2,2,0.26724806182937755,1,f,same,1.2687419600342764,0.23772074498225781,0.49970317673069076,0.035353559650502575,0.35329794545668847,1.0010304626302968,5.284822051964511
18,24,male,433,105,105,same,valid,anti,3,1,2,0.20149569421846536,1,j,change,0.7791355852132256,0.11414803042906162,0.5004988747650714,0.03528556771834701,0.3533271306732786,1.0010622135796439,4.661770606125174
18,24,male,434,105,105,same,valid,anti,4,0,1,0.24721064702316653,0,j,change,0.3971456858635065,0.13246777398398357,0.5001059968562913,0.0353279023174764,0.3532921725563938,1.001021803281219,4.354721285997584
18,24,male,435,165,115,change,valid,anti,4,1,1,0.24581424668303953,0,j,change,0.7006395410926416,0.11298130199161903,0.5004645580829674,0.03532245013411739,0.3533072462405471,1.0010737593802332,4.614687796763064
18,24,male,436,45,45,same,valid,anti,3,0,2,0.10293978512709145,1,j,change,1.1506399740610505,0.1339344356087459,0.4999039453596197,0.0353785755496574,0.35330243549014995,1.0010404048471173,4.943616728196503
18,24,male,437,15,325,change,catch,anti,3,1,1,0.16621397510061797,0,j,change,0.18473151365105878,0,0.5002211341379734,0.03528203983478306,0.35333771432306094,1.0010599685629131,5.556583880074868
18,24,male,438,105,55,change,valid,anti,1,0,1,0.20393570657233795,0,j,change,0.042963845289705205,0.1323435777774865,0.500390472534491,0.03532629873461701,0.35329249327423895,1.001073117946362,3.9900706121870826
18,24,male,439,45,355,change,catch,anti,1,0,1,0.31483439634848764,0,j,change,1.0562707002554816,0,0.5000941303396758,0.03532629873370752,0.35337523817179317,1.0009749786486282,6.6044453894892285
18,24,male,440,105,105,same,valid,clock,3,1,1,0.21013131102245097,0,j,change,0.29140732715677586,0.11489413861565917,0.4999119632766451,0.035332071634002205,0.35326138375785376,1.0010721557964644,4.213425391843884
18,24,male,441,165,215,change,catch,clock,1,2,1,0.3127224771378678,0,j,change,0.6589409230291494,0,0.49977052722988446,0.03532180870115553,0.3533550330230355,1.0010022395645137,6.2391901647743
18,24,male,442,165,215,change,valid,clock,4,0,1,0.48668817392535857,0,f,same,0.5970955257780588,0.13378904461740507,0.5000893195901881,0.03535869111692591,0.3533072462396376,1.001020841130412,4.884757844489286
18,24,male,443,105,155,change,valid,clock,1,1,1,1.303696548157859,0,f,same,0.8908841741404103,0.1167646643776928,0.5000181204914043,0.03531796010065591,0.3533117362730991,1.0010538749465923,5.956265472575069
18,24,male,444,135,185,change,valid,clock,3,0,1,0.38674292025916657,0,j,change,0.4273103706618713,0.1351916649323131,0.5001268434389203,0.0353378445333874,0.3532960211568934,1.0010320662131562,4.520275226209378
18,24,male,445,75,125,change,catch,clock,5,0,1,0.30839633010327816,0,j,change,0.6802785231766393,0,0.499958787909236,0.035303527851283434,0.3533312999898044,1.0010625342965795,6.180840258407443
18,24,male,446,105,155,change,valid,clock,5,1,2,1.3247532005116227,1,f,same,1.0751156905180324,0.11880800835423212,0.4999911802915449,0.03535708753315703,0.353259138741123,1.0010644585963746,6.2750219129657125
18,24,male,447,105,55,change,catch,anti,1,2,2,0.7112356988436659,1,j,change,1.050435902049685,0,0.49927983073848736,0.03533784453429689,0.35331943347318884,1.0010529127966947,6.957261618522352
18,24,male,448,15,65,change,valid,clock,5,1,1,0.2099610104751264,0,j,change,0.5090430873215155,0.11765817978741029,0.4996980452642674,0.03534874890010542,0.3533030769231118,1.0010291797643731,4.42546143911386
18,24,male,449,75,125,change,valid,clock,4,2,2,0.07847872542060941,1,j,change,0.9788365489985154,0.23692807127889787,0.5000966960733422,0.035319884400450974,0.3532661945082509,1.001084343029106,4.731779525255661
18,24,male,450,15,15,same,catch,anti,2,2,1,0.14035362860522582,0,j,change,1.363015980989985,0,0.500153462921844,0.035320525834322325,0.35330788767350896,1.0010420084299767,6.781546091634482
18,24,male,451,45,45,same,valid,anti,5,1,1,0.07736744219164393,0,j,change,1.4017675336599495,0.11970337971901546,0.5032387571973231,0.03532629873370752,0.3533139812898298,1.0010333490799894,5.265641271359527
18,24,male,452,165,115,change,valid,anti,3,0,2,0.32520669386940426,1,f,same,1.040918955862253,0.1366883167417036,0.511380791060219,0.0353195636835153,0.3533072462396376,1.0010291797643731,5.166714934523952
18,24,male,453,105,55,change,valid,anti,3,0,1,0.5036694796726806,0,f,same,0.25973302903730655,0.13518778120451297,0.5005607730809061,0.035336882383489865,0.35331205699003476,1.0010032017144113,4.520648540402362
18,24,male,454,15,65,change,valid,clock,2,1,1,0.548222796733171,0,j,change,0.0655243380651882,0.12175530930674398,0.4999671265422876,0.035335278800630476,0.35328992753966304,1.0010628550135152,4.3316842082640505
18,24,male,455,105,155,change,catch,clock,4,2,1,1.0881618028379307,0,j,change,1.3271970614650854,0,0.49942030463625997,0.035341372416951344,0.3533175091724843,1.0010529127966947,7.640360524012067
18,24,male,456,165,165,same,catch,clock,1,0,1,0.25416442565892794,0,j,change,0.25578019619479164,0,0.5002143990877812,0.0353025657013859,0.3533454115231507,1.0010169925308219,5.744918003974817
18,24,male,457,45,45,same,catch,clock,4,0,1,4.436182676361568,0,j,change,1.0414279332026126,0,0.5003019547357326,0.03529615136812936,0.35329698330679093,1.0010625342965795,10.7149502392067
18,24,male,458,165,215,change,catch,clock,1,1,1,0.38010248180216877,0,j,change,0.2297848279849859,0,0.49994788354251796,0.035311225051373185,0.3532142384092367,1.0011632393279797,5.862563930857505
18,24,male,459,105,155,change,valid,clock,1,0,2,0.2918499161487489,1,f,same,0.48574911554351274,0.13665831138446818,0.49971023249690916,0.03529005775180849,0.3533085291064708,1.0010314247801944,4.543396973140261
18,24,male,460,15,15,same,catch,clock,2,1,2,0.2570576106545559,1,f,same,0.7055689561666441,0,0.49933178683750157,0.035353880366528756,0.3533098119742135,1.001064458597284,6.262210565240821
18,24,male,461,75,125,change,valid,clock,5,0,1,0.6556106012249074,0,j,change,0.03534490030051529,0.13518394974606085,0.4998529514114125,0.03530320713434776,0.35328415464027785,1.0010788908466566,4.378386968383893
18,24,male,462,165,165,same,valid,clock,1,2,1,0.2626021602836772,0,j,change,0.18578955791508633,0.236157218984972,0.5002105504872816,0.0353279023174764,0.3532844753572135,1.0010599685638226,4.166744761173504
18,24,male,463,45,45,same,valid,clock,2,0,2,0.1727921945257549,1,f,same,0.3899051865337242,0.13662922912862507,0.49965154134770273,0.035336882383489865,0.35327998532375204,1.0010474606142452,4.284187995125649
18,24,male,464,45,355,change,valid,anti,3,2,2,0.13917499487615714,1,j,change,0.7353378766056267,0.2391736354803618,0.4997586607132689,0.03533014733420714,0.3533101326893302,1.001026293313771,4.531538795330562
18,24,male,465,45,95,change,catch,clock,1,1,2,0.6724418115745721,1,j,change,4.990809543372961,0,0.499740700579423,0.03532469515084813,0.3533069255236114,1.0010381598303866,10.879549405920443
18,24,male,466,15,65,change,valid,clock,1,2,2,0.28105747980225715,1,f,same,0.6448107883952616,0.23836771969231607,0.49970029028008867,0.035275304784590844,0.35332745139021426,1.0011170561292602,4.613555346234534
18,24,male,467,15,325,change,valid,anti,3,1,2,0.19576063889326178,1,j,change,1.0198927715919126,0.12366807329971194,0.49997193729177525,0.03531250791820639,0.35332039562308637,1.001061572146682,4.897290168719337
18,24,male,468,105,155,change,valid,clock,3,2,2,0.3316752281980371,1,j,change,2.403451296127969,0.23759083368696854,0.49902005024341634,0.03530032068465516,0.3533139812898298,1.0010634964473866,6.4621774031375026
18,24,male,469,15,15,same,valid,anti,4,1,2,0.303140746185818,1,f,same,0.5218230048130863,0.12254709745825987,0.49990009676002956,0.03533271306696406,0.35322225632535265,1.00109941671235,4.5555097999786085
18,24,male,470,45,45,same,catch,clock,2,0,2,0.14386098600425612,1,j,change,1.3262076505679943,0,0.4997246647471911,0.03538531059984962,0.35330820839044463,1.001033349080899,6.6988303784100935
18,24,male,471,135,135,same,catch,clock,3,0,1,0.16065499322121468,0,j,change,0.35689382065629616,0,0.4999568636085314,0.03532918518430961,0.35332488565654785,1.0010593271299513,5.7919049190559235
18,24,male,472,75,125,change,valid,clock,4,0,2,0.3344519930451497,1,f,same,0.8753887486827807,0.1351801725614959,0.5001874588888313,0.035309300750668626,0.3532710052577386,1.0010881916296057,4.967907166637815
18,24,male,473,105,55,change,valid,anti,4,2,1,0.22167871438887232,0,j,change,0.3334917673637392,0.23683822775018878,0.49929971517121885,0.03534329671674641,0.35331237770697044,1.0010468191803739,4.248210962287885
18,24,male,474,75,75,same,valid,clock,4,0,1,0.4163104306362584,0,f,same,0.2764135025563519,0.1337588698283879,0.49961337606509915,0.035318922251462936,0.35331943347318884,1.0010330283639632,4.472037516152341
18,24,male,475,135,135,same,catch,anti,5,2,2,0.3188176972735164,1,f,same,0.8753175495830874,0,0.5004671238166338,0.03530320713434776,0.35331815060635563,1.0010445741636431,6.404718126937951
18,24,male,476,165,165,same,valid,clock,3,2,2,0.16279705979832215,1,f,same,0.6506969012680202,0.23977124116193022,0.500090923173957,0.03535259750060504,0.35326170447387994,1.001069590062798,4.555703192125293
18,24,male,477,165,215,change,valid,clock,5,2,1,0.549335042112034,0,j,change,0.7803357069569756,0.2389752224519517,0.49916757990649785,0.03537344408232457,0.35331077412320155,1.0010493849131308,5.072175039455942
18,24,male,478,15,15,same,valid,anti,3,0,2,0.19247072738926363,1,f,same,0.7719595499320349,0.1350691438476972,0.5005970140637146,0.035320525834322325,0.3533027562070856,1.001033349080899,4.6856944654246035
18,24,male,479,105,55,change,valid,anti,1,2,1,0.22617452053600573,0,j,change,0.3570702148199416,0.24185860230822642,0.49982857694521954,0.03532148798421986,0.3532735709904955,1.0010965302626573,4.284727119833406
18,24,male,480,75,125,change,valid,clock,4,1,2,0.174054856019211,1,f,same,1.0331066187254692,0.12141849712407758,0.499538007650699,0.035299037817821954,0.353299869757393,1.00108402231308,4.896686900680834
