subject,age,gender,ntrial,memory_ori,test_ori,type,trial_type,which_change,trial,quest,pas,pas_rt,vis,test_key,test,test_rt,contrast,fix_dur,target_dur,mask_dur,retention_dur,trial_dur
19,22,female,1,135,135,same,valid,anti,3,1,2,1.1097618705515515,1,f,same,1.1099953559498772,0.2,0.5109346856670527,0.03535026658391871,0.3533002904455316,1.00106800326364,5.89703069434961
19,22,female,2,45,45,same,valid,clock,1,2,1,0.4440459299133863,0,j,change,0.6285635388176161,0.2,0.4995452166282348,0.03531819441377593,0.35329740395025055,1.001093660999686,4.6961415255062775
19,22,female,3,105,105,same,valid,anti,5,0,2,0.8235026786676372,1,f,same,2.310252382320755,0.2,0.4999050663766411,0.03530889348439814,0.3532958003418116,1.001084360070422,6.8046455255473575
19,22,female,4,75,75,same,valid,anti,1,1,1,0.5706995710027059,0,j,change,0.5437342525644908,0.09338226537841544,0.5002017339497797,0.03533262689040839,0.353268538997213,1.0010343274850584,4.814814007071163
19,22,female,5,105,105,same,valid,anti,5,2,2,0.6461900827717955,1,f,same,0.8882676153186821,0.3670372117912738,0.4997812678000173,0.035353794522620774,0.35333781488452587,1.0010606266645254,5.214740818379255
19,22,female,6,45,355,change,valid,anti,1,1,2,0.4705003386822,1,f,same,1.938821373407336,0.19541626699530124,0.5000891606327968,0.03531562864020543,0.35333781488463956,1.0010583816125518,6.097869509885868
19,22,female,7,135,85,change,valid,anti,5,1,2,0.5628941669702954,1,j,change,0.9638896229852207,0.15097428254442063,0.500005772990562,0.03530472410227503,0.35333749416292903,1.0010506842918403,5.1563069281019125
19,22,female,8,15,15,same,valid,clock,2,0,1,0.25556804944756095,0,j,change,0.5053063405397324,0.0723357464867447,0.49959428704846687,0.03536213328686699,0.3533102328182167,1.0010522879002792,4.495653579510758
19,22,female,9,45,45,same,valid,anti,5,1,1,1.2972217803389867,0,f,same,1.6034038835549609,0.11732462428755351,0.5005570935943524,0.03533423049884732,0.35329323456812745,1.0010590230560865,6.592907624452778
19,22,female,10,135,135,same,valid,clock,2,1,2,1.4885030891913402,1,f,same,1.0587122767135497,0.16255925515413544,0.5004153346025078,0.03528387719177317,0.35334038065821005,1.0010503635701298,6.239689118041042
19,22,female,11,15,325,change,catch,anti,4,0,2,0.8588802065960408,1,f,same,1.0296638708285855,0,0.5001180255858344,0.03532877822988212,0.3532970832286537,1.0010728140891842,7.087688199493982
19,22,female,12,135,85,change,valid,anti,3,1,2,0.5174216027874081,1,j,change,0.9895143247140368,0.13960881741287956,0.49984637430532075,0.035334871942268364,0.3532925931248201,1.0010721726457632,5.249662921492472
19,22,female,13,75,125,change,valid,clock,4,1,1,1.4455167596332785,0,j,change,3.446398744310386,0.1208326958351777,0.5003624155219768,0.035307610597669736,0.3533278725118407,1.0010577401692444,8.665835569832666
19,22,female,14,105,55,change,valid,anti,5,1,1,2.1884329794276027,0,j,change,4.614664101748303,0.14814201876856137,0.5002277124075363,0.035368547720850074,0.3533006111672421,1.0010519671786824,10.491014981552098
19,22,female,15,105,155,change,catch,clock,4,1,2,0.5439430423916747,1,j,change,0.8825969349268235,0,0.500242144884055,0.03530055472026561,0.35330253549750523,1.0010955853299492,6.592652329979046
19,22,female,16,75,75,same,valid,anti,2,0,2,0.8838682757487959,1,f,same,1.8627955771194138,0.15406686854268764,0.5002944225212786,0.0353072898760729,0.3533127985919009,1.0010750591410442,6.475635093111919
19,22,female,17,15,15,same,catch,clock,1,0,2,2.0635186121216975,1,j,change,1.7865414269806479,0,0.499286394215801,0.03538779102279932,0.35326372817166884,1.0010933402780893,9.041522876437398
19,22,female,18,45,355,change,valid,anti,4,2,2,0.3449368306537508,1,j,change,1.6579108573276926,0.3227502669243441,0.5005801855567142,0.03530376193725715,0.35332851395526177,1.0010721726457632,5.687008654354372
19,22,female,19,15,15,same,valid,clock,4,2,2,0.44992123075030577,1,f,same,1.0946731974158865,0.29077319917223154,0.4996157754023898,0.03533904132450516,0.35330285621921576,1.0010984718251166,5.178801065309244
19,22,female,20,165,165,same,valid,clock,1,2,1,0.2537489159606139,0,j,change,0.5181073057838148,0.2661670952893518,0.5002774242711894,0.03529927183330983,0.3533185715825766,1.0010753798628684,4.484577455573799
19,22,female,21,135,135,same,catch,anti,5,2,1,3.8317558101944087,0,f,same,0.11828216325511676,0,0.5004644050227398,0.03528291502675529,0.35335866179502773,1.0010708897591485,9.195980202490773
19,22,female,22,105,155,change,catch,clock,1,0,2,0.7345691168095527,1,f,same,1.2813922400744104,0,0.500375244389943,0.03530921420633604,0.35330381838411995,1.0010901330610977,7.241072390736463
19,22,female,23,165,215,change,catch,clock,4,1,2,1.0162891344618856,1,j,change,1.422412609750836,0,0.5000926885716126,0.03533679627230413,0.3533115157051725,1.0010401004756204,7.6410492346296905
19,22,female,24,15,325,change,valid,anti,2,0,2,0.85832407516682,1,j,change,2.2695271407533255,0.09412333650666384,0.5001433626002836,0.03534930441878714,0.35329580034158425,1.0010567780043402,6.816896453074605
19,22,female,25,75,25,change,catch,anti,5,0,2,0.6411457718618294,1,j,change,2.0877407978528026,0,0.49942109733001416,0.03535636029619127,0.3532993282806274,1.0010324031547952,7.970418554648404
19,22,female,26,15,325,change,valid,anti,5,0,2,4.268745862690139,1,j,change,2.0019230473178595,0.05063924580022716,0.49967895757754377,0.03530247905041506,0.3533259481816913,1.001073455532378,10.019789811826058
19,22,female,27,45,45,same,catch,anti,5,0,1,0.31213982952999686,0,f,same,6.302731458437165,0,0.49947177135868515,0.035356039574480747,0.35330670487974203,1.001058060890955,11.856565558081456
19,22,female,28,165,165,same,valid,anti,1,1,1,0.30901183078208305,0,j,change,0.8926416178742329,0.17384516197821193,0.5000266199010639,0.035305365545809764,0.3533262689034018,1.0010394590321994,4.979484074243146
19,22,female,29,45,95,change,valid,clock,2,1,1,0.5305314230292879,0,j,change,1.8026673140968796,0.19726848547650674,0.49930659968276814,0.035337116994242024,0.3532980453937853,1.0010487599615772,6.00320176473906
19,22,female,30,135,135,same,valid,anti,2,2,1,0.18989611182655608,0,j,change,5.779831929000011,0.32791426086480197,0.49947722362776403,0.03533423049884732,0.3532573137374584,1.0010862844005715,9.619310397027675
19,22,female,31,165,215,change,valid,clock,1,1,2,0.4638719832917104,1,j,change,0.8442001329069626,0.22092156366085247,0.49980692553594963,0.03534545575826087,0.35332434457313866,1.0010256679991016,5.037798656047698
19,22,female,32,105,155,change,catch,clock,2,0,1,0.6221135046926065,0,f,same,1.7310867205821978,0,0.5003829417107681,0.03531081781466128,0.3533076670446462,1.0010875672874135,7.570930811348944
19,22,female,33,135,135,same,valid,anti,2,0,1,0.4230585432562748,0,j,change,0.6724299287229769,0.016405480674319878,0.5000250162927387,0.03532108090894326,0.35331889230428715,1.0010609473863497,4.8149355605958135
19,22,female,34,165,165,same,valid,anti,3,0,1,0.3675631052017252,0,j,change,0.8054964002196812,0.04504194949034096,0.4995506688972,0.03533647555082098,0.35327591559621396,1.0010862844005715,4.8847303756804195
19,22,female,35,135,135,same,catch,clock,4,0,1,0.46628413120356527,0,f,same,3.4549097360845735,0,0.4994688848635178,0.03529766822475722,0.35334711581390366,1.0010506842918403,9.147441538848398
19,22,female,36,165,165,same,valid,clock,1,1,2,0.806189159093492,1,f,same,2.1942088565374434,0.2078213777129205,0.5007767879594667,0.035319156578907496,0.3533076670446462,1.0010619095512538,6.710994468192212
19,22,female,37,15,325,change,valid,anti,3,2,2,0.248435519543591,1,j,change,1.5342123459893173,0.37801209956979653,0.4997998696587729,0.03532941967341685,0.3533371734411048,1.0010497221267087,5.474181261642116
19,22,female,38,135,135,same,catch,clock,3,2,1,0.2454133589567391,0,f,same,0.462455996982726,0,0.49916965151646764,0.03529542317301093,0.35333781488452587,1.001064475324938,5.944280698198099
19,22,female,39,45,95,change,catch,clock,4,2,1,0.18161154957329018,0,j,change,1.1691835836672908,0,0.5003043648939638,0.03535347380102394,0.3533034976624094,1.0010753798628684,6.581162475047904
19,22,female,40,45,95,change,valid,clock,4,2,2,1.4430016600554154,1,j,change,2.612145153510255,0.364519709121296,0.5001901879686557,0.03535026658391871,0.35330638415780413,1.0010696068723064,7.770881548495709
19,22,female,41,135,185,change,catch,clock,2,2,2,0.7225016420950396,1,f,same,3.881422131336876,0,0.4994336054764972,0.035299592555020354,0.3533381356062364,1.0010333653201542,9.830403006060351
19,22,female,42,165,115,change,catch,anti,4,1,1,1.0641424158297923,0,j,change,1.476967691778782,0,0.5004762717258018,0.035320118744039064,0.3533018940540842,1.0010766627494831,7.7826683917217
19,22,female,43,165,165,same,catch,anti,2,1,1,1.7890388868647733,0,f,same,1.7514952045692098,0,0.5005121925562435,0.03537079277271005,0.35328682013414436,1.0009881435601073,8.85427400152912
19,22,female,44,165,115,change,valid,anti,4,0,1,0.6373827441461799,0,j,change,1.7241504723590424,0.07028217516544732,0.5001430418785731,0.035302158328704536,0.3533147229222777,1.001103924093968,6.110581955940461
19,22,female,45,45,45,same,valid,anti,4,0,1,1.3343834830889136,0,j,change,1.0197356098585715,0.0928681103890839,0.4990134600482179,0.0353515494707608,0.3532909895161538,1.0010635131600338,6.097245385456063
19,22,female,46,135,85,change,catch,anti,2,1,2,0.6386431804303356,1,j,change,2.375007055877404,0,0.49944515145762125,0.0353448143150672,0.35331760941744506,1.0010102733574513,8.264359031266395
19,22,female,47,45,355,change,catch,anti,5,1,1,0.21071095020852226,0,j,change,2.22518896922611,0,0.500426559862035,0.03532236379601272,0.3533006111672421,1.00108532223544,7.605916417358912
19,22,female,48,105,105,same,catch,anti,3,2,1,0.6485865153201757,0,j,change,1.3120432922980854,0,0.5005590179243882,0.035350908027339756,0.35325410652058054,1.0010952646082387,7.194213667362874
19,22,female,49,45,45,same,valid,anti,4,2,2,0.5886516474831751,1,j,change,2.691121910167112,0.3524787378696025,0.49956702570375455,0.03533711699401465,0.35330959137490936,1.0010128391311355,7.039502009000898
19,22,female,50,75,125,change,catch,clock,5,2,1,0.44689522150315497,0,f,same,0.5956016867394283,0,0.4998675419376468,0.03532204307407483,0.35330253549750523,1.0010712104806316,6.286241552190404
19,22,female,51,75,125,change,catch,clock,5,0,1,0.7065560005746647,0,j,change,1.4726187055159699,0,0.5081354266624203,0.03526719966339442,0.35337149066322127,1.0010561365606918,7.436699478634864
19,22,female,52,165,165,same,valid,anti,2,0,2,0.9169051767048586,1,f,same,1.2698036028593833,0.11390929679079492,0.5002273916859394,0.03529863039011616,0.35333107972883226,1.0010680032635264,5.956571395216315
19,22,female,53,75,125,change,valid,clock,1,0,2,0.3104589270960787,1,j,change,1.1113504051356813,0.09265463653307568,0.5000349586655375,0.03534096565454092,0.3533047805492515,1.001076342028,5.050230470614224
19,22,female,54,15,65,change,valid,clock,2,1,2,0.2223829750657842,1,j,change,1.0304711273495286,0.19655140326094883,0.49934123762636773,0.0353072898760729,0.3533140814786293,1.001076342028,4.89621638195149
19,22,female,55,75,75,same,valid,anti,4,0,2,0.4077508171988029,1,j,change,3.640693233541924,0.07482278759748018,0.4996715809784291,0.0353072898760729,0.3532874615775654,1.0010833979054041,7.72351319833956
19,22,female,56,75,75,same,valid,clock,1,1,2,0.2772398562140097,1,j,change,1.3219202377958936,0.18657933471549426,0.49942526671225096,0.035375603598140515,0.3533140814788567,1.001068323985237,5.202557883852478
19,22,female,57,135,135,same,valid,anti,1,2,2,0.6615407855372268,1,f,same,1.0196195086030002,0.342082436831486,0.49966516654444604,0.03532717462144319,0.35331215714836617,1.001059343777797,5.367419742601669
19,22,female,58,75,125,change,valid,clock,5,1,2,1.3070730681008627,1,j,change,1.822248977539175,0.1775728523500679,0.5002912153045145,0.035316911526933836,0.35329355528983797,1.0010875672874135,6.7938288654663666
19,22,female,59,75,25,change,catch,anti,5,2,2,0.5219315913439004,1,j,change,0.7289933700408255,0,0.4995586869397357,0.035311779979792846,0.3532964417850053,1.0010683239854643,6.462810073740457
19,22,female,60,105,155,change,valid,clock,2,0,2,0.397127231581635,1,j,change,3.493610902998398,0.05927195819585798,0.5002864044788566,0.035316590805223314,0.35334390859679843,1.0010327238767331,7.535125119949726
19,22,female,61,135,85,change,catch,anti,3,1,1,0.32430127570273726,0,f,same,2.212964340878443,0,0.4998364319326356,0.03529863039011616,0.3533297968419902,1.0010708897589211,7.734472258855931
19,22,female,62,45,45,same,valid,clock,3,1,2,0.25180951183597244,1,f,same,1.4267452392070936,0.16931196277274818,0.5009352244794627,0.03532685389973267,0.3533022147757947,1.0010622302729644,5.392059507987369
19,22,female,63,15,65,change,catch,clock,4,1,2,0.20479940781933692,1,f,same,1.0735155075356033,0,0.49998171886295495,0.035304403380678195,0.35330413910605785,1.0010558158389813,6.510330125260907
19,22,female,64,135,135,same,valid,clock,5,1,1,0.3224112627199247,0,j,change,1.1039975394232897,0.16166042005330347,0.4997572136726376,0.03534032421111988,0.35329868683697896,1.0010288752162069,5.132462552534207
19,22,female,65,45,45,same,valid,anti,3,1,2,1.8546065899329278,1,f,same,0.9221053583614776,0.17383597798765285,0.4997289901627937,0.035301516885510864,0.35335224736104465,1.0010628717163854,6.462787302499464
19,22,female,66,15,15,same,valid,clock,4,0,1,0.18185818456140623,0,j,change,0.5222773293373848,0.04579265255390125,0.5003409271680539,0.03532845750828528,0.35328810302098645,1.0011013583205113,4.402787007435563
19,22,female,67,135,135,same,valid,anti,3,0,1,0.21468437135968088,0,j,change,0.4929928722808654,0.05784624447121828,0.499936817824846,0.03529991327695825,0.3532925931247064,1.0010795492448779,4.425816108439676
19,22,female,68,165,115,change,valid,anti,2,2,2,0.5952383090525473,1,j,change,0.6903399906605046,0.3328133710621902,0.49955932838315675,0.035314025031766505,0.35333236261567436,1.0010522879001655,4.967363359726505
19,22,female,69,75,125,change,valid,clock,2,2,2,0.1874021798812464,1,j,change,0.9199420904897124,0.3243433384958103,0.49930948617816284,0.03535443596592813,0.3533166472523135,1.0010625509949023,4.743316159755295
19,22,female,70,15,325,change,valid,anti,1,0,2,0.18996955709621943,1,j,change,1.2881751833244834,0.06940633314249672,0.4999085943152295,0.035342248541383015,0.3533137607569188,1.0010391383107162,5.131823354184462
19,22,female,71,75,75,same,valid,clock,5,1,1,0.7603545001102248,0,f,same,0.8300688140479906,0.1667553765929213,0.5004759510040913,0.03533679627230413,0.35333524911106906,1.0010349689284794,5.297707673715649
19,22,female,72,15,15,same,valid,clock,1,2,2,1.386905510255474,1,f,same,3.7479929235962572,0.3164578801622234,0.499891275343316,0.0353409656547683,0.35327270837910874,1.0010923781130714,8.853614918434005
19,22,female,73,15,15,same,valid,clock,5,1,2,0.37725531500018405,1,f,same,6.059108368014222,0.17820237529840555,0.5004159760458151,0.03532781606486424,0.3533089499314883,1.001058702334376,10.126048118518383
19,22,female,74,105,105,same,catch,clock,4,2,2,0.11688349591781844,1,j,change,0.8088440933324819,0,0.500398015630708,0.0352963853381425,0.35333460766742064,1.0010452320229888,6.109770209315684
19,22,female,75,75,75,same,valid,clock,3,0,2,0.27782581476139967,1,j,change,2.1641479322429404,0.057891715193774645,0.5007514509447901,0.03533904132450516,0.3533137607569188,1.00108083213172,6.051925805524661
19,22,female,76,75,125,change,catch,clock,2,0,1,1.4332853961298042,0,j,change,0.9488012705712663,0,0.4996876170635005,0.03534321070628721,0.3533086292097778,1.0010570987258234,7.605596978545009
19,22,female,77,75,75,same,valid,clock,4,2,2,0.16392791715611565,1,f,same,0.9063919193526999,0.30956162537511484,0.4994913353825723,0.035334871942268364,0.3533099120966199,1.0010792285231673,4.74344059977534
19,22,female,78,105,155,change,valid,clock,4,0,3,0.5068140532550842,1,j,change,1.8296573281058954,0.04750434492050373,0.4993640088673601,0.035368868442674284,0.3533127985917872,1.0010237436690659,5.9912863121107875
19,22,female,79,15,325,change,valid,anti,5,2,2,0.3403104201197493,1,j,change,1.5373932638181032,0.30294765364373005,0.49984765719204916,0.03532717462144319,0.3533073463229357,1.0010676825420433,5.521297524541751
19,22,female,80,75,75,same,valid,anti,3,2,2,0.28732174287870293,1,f,same,2.5726373715187947,0.2965144898017916,0.49970942613913394,0.03532557101289058,0.3533262689034018,1.0010442698578572,6.592837386400333
19,22,female,81,135,135,same,valid,anti,5,1,2,0.20413968328102783,1,j,change,1.4857384681306485,0.17196110927664554,0.49951250301478467,0.0353595675132965,0.3533224202428755,1.0010699275937895,5.32055909489759
19,22,female,82,15,15,same,valid,anti,5,2,3,0.5249434888364704,1,f,same,1.2120977508427586,0.2907265188842296,0.49993617638142496,0.03535379452273446,0.35330253549750523,1.001046194187893,5.4028238904311365
19,22,female,83,105,105,same,valid,clock,3,2,2,1.5538757934655223,1,f,same,5.435049044762536,0.2849790422594941,0.5003662641822757,0.035305365545809764,0.35338431953118743,1.001065116768359,10.726927601566103
19,22,female,84,75,75,same,valid,anti,5,2,2,0.15246179563109763,1,f,same,1.8825138680062992,0.27928654058575764,0.5000211676322124,0.035304403380678195,0.3533047805494789,1.0010875672874135,5.709588744977509
19,22,female,85,45,355,change,catch,anti,4,1,1,0.20497099392946438,0,j,change,0.4448551107645926,0,0.4997450262478651,0.03531947730061802,0.3533237031297176,1.0010744176977369,5.815582456266384
19,22,female,86,105,55,change,catch,anti,5,1,2,0.23823304151937919,1,f,same,0.7867322563927246,0,0.4997908894511056,0.03540158205601074,0.35330670487951465,1.0010798699665884,6.203882785198402
19,22,female,87,75,25,change,valid,anti,5,0,2,0.242767725647127,1,f,same,0.9051786291586268,0.03800450767571484,0.5004560662584936,0.0353072898760729,0.35332434457313866,1.001068965428658,4.874048097992045
19,22,female,88,105,105,same,valid,anti,4,0,1,0.2552065960908294,0,j,change,0.6674988325730737,0.029222868183482686,0.49926266080979076,0.03533904132427779,0.35332017519112924,1.001065116768359,4.5892212492240105
19,22,female,89,15,325,change,catch,anti,1,0,1,0.23276473652072127,0,j,change,0.5885733913880813,0,0.5003932048050501,0.03536373689530592,0.35332145807797133,1.0010612681078328,6.06345029839963
19,22,female,90,105,105,same,valid,clock,3,1,2,0.16872976246077087,1,f,same,0.9529228651479116,0.16596707715419745,0.4997491956301019,0.03535956751306912,0.35328425436068756,1.001093660999686,4.861655090751356
19,22,female,91,105,105,same,valid,clock,3,0,1,0.20894056642009673,0,j,change,0.5972399331872111,0.03713323427511178,0.4996645251007976,0.03532332596114429,0.35334583292706156,1.0010548536738497,4.484704461367301
19,22,female,92,135,85,change,catch,anti,4,2,2,0.2901206811616248,1,f,same,1.9486925459145823,0,0.49925047338501827,0.03529478172981726,0.35322075146359566,1.0012088000903532,7.4514379236734385
19,22,female,93,45,45,same,valid,clock,2,1,2,0.22969061901858367,1,f,same,0.7250988464281818,0.16049267086813557,0.5007527338318596,0.035326533178022146,0.3533314004505428,1.0010657582117801,4.686070543379401
19,22,female,94,135,135,same,valid,clock,4,0,1,0.21699901987449266,0,j,change,0.40642816090462475,0.045039466398996725,0.4997180856250907,0.03528066997478163,0.3533410221016311,1.001017008513145,4.2257903224151505
19,22,female,95,45,45,same,catch,anti,2,0,2,0.16150005388112731,1,f,same,0.9709740446342039,0,0.49901827087387574,0.03529798894646774,0.3533355698327796,1.0010641546032275,6.356267607621476
19,22,female,96,135,185,change,catch,clock,5,0,1,0.3780699481199008,0,j,change,0.4725815017986861,0,0.5004012228478132,0.035316911526933836,0.3533115157051725,1.00099423727238,6.075159206252238
19,22,female,97,45,45,same,catch,anti,3,2,2,0.9292301909449634,1,f,same,2.2429072395868843,0,0.4999945477311485,0.035334871942268364,0.3533009318889526,1.0010590230560865,8.417992423270562
19,22,female,98,75,75,same,valid,anti,2,1,1,0.46692621604825035,0,j,change,0.5696697336213674,0.15519977432439794,0.5000593335146277,0.035302158328704536,0.35337149066322127,1.001046835631314,4.720424006917483
19,22,female,99,75,25,change,valid,anti,1,1,1,0.2577037352532443,0,f,same,0.42933153900230536,0.1641967690929342,0.49936978185792213,0.03532043946574959,0.3533115157049451,1.0010795492448779,4.378206575564491
19,22,female,100,75,25,change,catch,anti,4,2,2,0.35825800649649864,1,j,change,1.0656979160787614,0,0.4999813981412444,0.03536854772096376,0.3532938760115485,1.0010773041929042,6.639917087026106
19,22,female,101,105,155,change,valid,clock,4,2,2,0.15347784197911096,1,j,change,2.0223555854324786,0.2740190803525683,0.5093490375784313,0.03531338358834546,0.3532996490021105,1.0010981511036334,5.918550158308108
19,22,female,102,75,75,same,catch,anti,2,1,1,0.38015367701018477,0,j,change,1.4300496348905654,0,0.5001010273356314,0.035285801522149995,0.353332362615447,1.0010641546032275,7.016344940037925
19,22,female,103,165,165,same,valid,clock,4,1,2,2.1907569288714512,1,j,change,0.9022174056949552,0.17243034641035826,0.5001735104401632,0.03531434575347703,0.35334005993649953,1.0010734555326053,6.769421944035457
19,22,female,104,75,75,same,catch,clock,3,2,1,0.1808995473975301,0,f,same,0.5398422947253039,0,0.5001722275533211,0.03528644296557104,0.3533554545781499,1.001068965428658,5.944672299395052
19,22,female,105,105,55,change,valid,anti,4,1,2,0.138841386441527,1,f,same,1.1773902105471734,0.1675218419309122,0.500329701908413,0.03533070256003157,0.3533012526108905,1.0010731348106674,5.003500677364173
19,22,female,106,75,25,change,valid,anti,1,2,2,0.22632753126413263,1,j,change,1.4163099172280909,0.26870873504607895,0.4992187219368134,0.035348662975366096,0.3532925931249338,1.0010901330608704,5.320241580413949
19,22,female,107,45,45,same,valid,clock,3,2,2,0.11439245046790347,1,f,same,0.5524142646750079,0.2637503097698093,0.49933770968777935,0.03536405761701644,0.3533144022003398,1.0010513257352613,4.354190613886885
19,22,female,108,75,75,same,valid,anti,3,0,2,0.2817270735299644,1,j,change,3.2500763317648307,0.0529441996793886,0.5003983363524185,0.03532172235259168,0.35331857158234925,1.0010737762543158,7.181879031471681
19,22,female,109,105,55,change,valid,anti,3,0,2,0.10948155978508112,1,f,same,0.8494846643711753,0.045042502293333314,0.4997732497574816,0.03533006111661052,0.35330125261066314,1.0010737762543158,4.590247558666533
19,22,female,110,15,15,same,valid,anti,4,2,3,0.4162473764965853,1,f,same,2.067994924899722,0.25868715684295607,0.5003351541774919,0.03530761059755605,0.35329323456812745,1.0010882087308346,6.215901189492797
19,22,female,111,165,215,change,valid,clock,2,2,2,0.30390978996570084,1,j,change,1.2597794461007652,0.2539055901254832,0.5001536256947929,0.03531210070150337,0.35333589055426273,1.0010779456365526,5.2155118333478185
19,22,female,112,165,165,same,valid,clock,5,2,2,0.38381920532856384,1,j,change,2.9379704987350124,0.24898287637021377,0.4994227009385668,0.03532043946552221,0.3533358905544901,1.001093660999686,7.004688630544024
19,22,female,113,165,115,change,catch,anti,4,1,1,0.14141421592512415,0,j,change,1.7200404237632938,0,0.4999143673060189,0.03533198544687366,0.3533006111672421,1.0010744176977369,7.051938955114338
19,22,female,114,165,115,change,catch,anti,1,1,1,0.12541501388091092,0,f,same,0.4743342458934876,0,0.5004352193479917,0.03534288998480406,0.35328938590760117,1.0010824357402726,5.804065019268819
19,22,female,115,135,135,same,valid,clock,4,2,2,0.08588798858750124,1,f,same,0.7654908581487234,0.24426663063858742,0.49990057627292117,0.035331344003452614,0.35327687776134553,1.0010888501742556,4.496481362220493
19,22,female,116,105,105,same,valid,anti,4,1,3,0.12434989711255184,1,f,same,1.273287923416774,0.16301788153994676,0.49935406649456127,0.03531145925808232,0.3533076670446462,1.0010792285231673,5.084186559964792
19,22,female,117,15,325,change,valid,anti,1,1,2,0.15999234116566186,1,f,same,2.409798625258645,0.15853941038744668,0.49998588824519175,0.03536822699925324,0.35328393363874966,1.0010721726457632,6.27529083043828
19,22,female,118,105,55,change,valid,anti,4,0,3,2.2557473328781725,1,j,change,0.6694622908253223,0.03783359276824985,0.4996337358177243,0.03533326833371575,0.3533233824080071,1.0010619095514812,6.60383974434626
19,22,female,119,45,45,same,catch,clock,5,2,1,0.3835344044582598,0,j,change,1.1530602623247432,0,0.5001064796047103,0.03530472410238872,0.353350002309071,1.001034648206769,6.7225167160149795
19,22,female,120,105,105,same,catch,clock,2,2,1,0.3920983153132056,0,j,change,0.5355545663071553,0,0.49993617638142496,0.035363095451884874,0.35327751920499395,1.00107473841922,6.1447875667740846
19,22,female,121,105,55,change,catch,anti,2,1,2,1.7733020351715822,1,f,same,2.4194783269103937,0,0.5001635680673644,0.03534096565454092,0.35330830848806727,1.0010702483157274,9.478569375952475
19,22,female,122,165,215,change,valid,clock,1,0,1,0.41372265526774754,0,j,change,0.4131668445602372,0.031047290867378813,0.49952565260446136,0.03535283235760289,0.35331055353981355,1.0010449113012783,4.507374033344604
19,22,female,123,15,325,change,valid,anti,4,1,1,0.2176532921441776,0,j,change,0.4654011843610988,0.1544045189278899,0.5000442595946879,0.03531627008351279,0.353328834677086,1.0010699275937895,4.355312177674477
19,22,female,124,15,15,same,valid,anti,5,1,2,1.0872132106551362,1,f,same,1.0957816116135746,0.16113680134823732,0.49933225741892784,0.03534032421111988,0.3533099120966199,1.001057419447534,5.815221002909766
19,22,female,125,75,75,same,valid,anti,2,2,1,0.1987945354153453,0,j,change,0.8750612578448909,0.23938936896851673,0.49963020787890855,0.03531883585719697,0.35330927065319884,1.0010737762543158,4.7787225526367365
19,22,female,126,165,215,change,valid,clock,5,1,2,2.213169923488749,1,f,same,0.8382481795836156,0.1571323364042816,0.49999807566973686,0.035297026781563545,0.35325410652058054,1.001087888009124,6.781692435586137
19,22,female,127,75,25,change,valid,anti,2,1,2,0.15005285493612064,1,f,same,0.8050611808716894,0.15341640081667132,0.4992402102907363,0.03533070256003157,0.3532845750821707,1.0010545329523666,4.672423193567056
19,22,female,128,15,15,same,valid,anti,2,1,2,0.13679806848563203,1,f,same,0.7543659845130151,0.14966652774326172,0.49969852160120354,0.03531979802232854,0.35329612106352215,1.0010933402779756,4.6254547833716515
19,22,female,129,75,75,same,valid,anti,5,0,1,0.1480502686363252,0,j,change,0.5076373458609851,0.037146147090215825,0.5002376547802214,0.03531979802232854,0.35331985446919134,1.0010866051225094,4.319659791248796
19,22,female,130,75,75,same,valid,anti,1,2,1,0.25096665520618444,0,j,change,1.6403414018361673,0.255435548830592,0.5004878177069259,0.03526078522941134,0.35333781488452587,1.0010811528534305,5.5448801912014005
19,22,female,131,75,25,change,valid,anti,3,0,1,0.17329651875820673,0,f,same,0.6524557019188251,0.04339829936271408,0.5002463142661782,0.03532941967341685,0.35330798776635675,1.0010532500655245,4.5086729562328856
19,22,female,132,105,105,same,valid,clock,5,0,1,0.1759735827949953,0,f,same,0.7205612758052666,0.04923927068939987,0.4997601001678049,0.03532621245631162,0.35331055354004093,1.001064475324938,4.59064012202839
19,22,female,133,15,15,same,catch,anti,4,0,2,1.1433029460210946,1,j,change,1.387832716692401,0,0.49993200699941553,0.03532845750828528,0.35333492838913116,1.0010805114100094,7.687991666367225
19,22,female,134,105,55,change,valid,anti,1,1,2,0.2725460941228448,1,j,change,0.7709665397462686,0.1461454142942365,0.5000054522688515,0.035300875441862445,0.35325603085084367,1.0010744176977369,4.767597999722966
19,22,female,135,135,185,change,valid,clock,1,1,1,0.17815192458692763,0,j,change,0.9863006932721419,0.1428294074302087,0.49953078415160235,0.03535668101790179,0.3533137607569188,1.0010657582115527,4.860539620676036
19,22,female,136,105,155,change,catch,clock,4,1,1,0.2064119965309601,0,j,change,0.33519041888825996,0,0.5006712705198879,0.035336475550593605,0.35326116239821204,1.0010840393485978,5.73384011638359
19,22,female,137,165,115,change,valid,anti,1,1,1,0.1470791233264208,0,j,change,0.3792710508894288,0.14837649797261682,0.5002042997234639,0.03533455122055784,0.3533099120966199,1.0010606266646391,4.213987443104088
19,22,female,138,135,135,same,valid,clock,2,2,1,0.2197331723739353,0,j,change,1.6895984820885133,0.2689105590508134,0.4995304634298918,0.0353329476122326,0.35328265075190757,1.001042345527594,5.603205356821945
19,22,female,139,105,155,change,valid,clock,5,0,1,0.1879576698670462,0,j,change,0.41642922570076735,0.055264226256405535,0.49938645938641457,0.03532460884775901,0.35328938590782855,1.0010955853299492,4.284246021768013
19,22,female,140,75,25,change,valid,anti,3,2,2,0.22259336850152067,1,j,change,0.9488397571751648,0.2807151591317034,0.49946150826440316,0.03536534050385853,0.3532399947657723,1.0010734555326053,4.849614235938134
19,22,female,141,15,15,same,catch,anti,3,1,1,0.22012990511780117,0,f,same,1.2760871824214064,0,0.499693069332352,0.03535411524421761,0.35330574271461046,1.0010708897589211,6.709905297296245
19,22,female,142,45,355,change,catch,anti,1,2,2,0.13805048672725206,1,j,change,0.894600906744472,0,0.5007033426898033,0.03533038183854842,0.35332947612027965,1.0011007168770902,6.228072257316171
19,22,female,143,165,165,same,valid,anti,1,2,2,0.172538332657723,1,f,same,0.6970712977170024,0.27760727927645146,0.500244389935915,0.03529991327695825,0.35332402385142814,1.0010368932587426,4.5795207006613055
19,22,female,144,135,135,same,valid,clock,2,0,1,0.1981585442827054,0,j,change,0.4968033668080807,0.061407646023203255,0.4989845950954077,0.03534385214993563,0.35339009252174947,1.0010420248058836,4.342087859785579
19,22,female,145,105,55,change,valid,anti,1,2,2,0.6644407511560075,1,j,change,1.0022174698392519,0.27470504820181696,0.49982071656927474,0.03531242142321389,0.35329996972382105,1.001104886259327,5.309232166590618
19,22,female,146,75,25,change,valid,anti,4,0,1,1.9025301093533926,0,j,change,2.414113935742762,0.06719361188927403,0.4997427811961188,0.03536245400846383,0.3533060634360936,1.0010590230560865,8.02990761932142
19,22,female,147,15,15,same,valid,anti,2,2,2,0.1477484695160456,1,f,same,1.2104556557349042,0.2717176331952679,0.49941275856576794,0.03533679627230413,0.3532871408558549,1.0010298373813384,5.0136184848593075
19,22,female,148,15,15,same,valid,anti,1,2,3,0.6349019617905469,1,f,same,1.1096140178474343,0.26882029046563327,0.5002318817898868,0.03531851513548645,0.353333004058868,1.0010449113012783,5.462582682054517
19,22,female,149,75,25,change,valid,anti,4,2,2,1.5543555931299124,1,f,same,1.0647261293252086,0.2660859022869148,0.49993617638165233,0.03533743771572517,0.35337950870575696,1.001047477074735,6.274808465000206
19,22,female,150,105,55,change,catch,anti,1,1,1,0.11931360424478044,0,j,change,0.3524583959811025,0,0.4997931345030793,0.03531530791838122,0.35332562745998075,1.0009836534563874,5.63855466124096
19,22,female,151,15,15,same,valid,clock,5,0,2,0.274540341658394,1,f,same,1.1690924987042308,0.07317391063707418,0.5022758411892028,0.03530504482387187,0.3533249860165597,1.0010635131602612,5.0994628552953145
19,22,female,152,15,325,change,valid,anti,5,1,2,0.2713690454806965,1,j,change,0.6511327249031638,0.15411121720636783,0.499456055995779,0.03534288998480406,0.3533192130257703,1.0010734555326053,4.578294902320977
19,22,female,153,75,75,same,catch,anti,3,1,2,0.2190137935990606,1,f,same,1.7193656253048175,0,0.4995679878688861,0.03540318566456335,0.35328810302098645,1.0010795492448779,7.110318643424307
19,22,female,154,45,45,same,valid,clock,5,0,2,0.401794373771736,1,f,same,0.5571914144084076,0.06703752459529738,0.5006661389725195,0.035299592555020354,0.35330413910605785,1.001105206981265,4.662011284272467
19,22,female,155,135,185,change,valid,clock,5,0,2,0.1479232628430509,1,j,change,0.8519147726983647,0.06139600085328073,0.5000728038262423,0.035319798022555915,0.3533326833371575,1.001058060890955,4.637806738234758
19,22,female,156,15,65,change,valid,clock,4,1,2,0.11391810307213746,1,j,change,1.202318625463704,0.15084119074700184,0.4995772887982639,0.035365661225569056,0.3532448055916575,1.0010878880088967,4.990242362974641
19,22,female,157,45,95,change,valid,clock,4,1,1,0.14861089016949336,0,f,same,0.7487847854758911,0.1476906089311757,0.5006244451515158,0.03528259430504477,0.3533307590073491,1.0010612681080602,4.555873248218177
19,22,female,158,105,155,change,catch,clock,4,0,1,0.5143955935404847,0,j,change,0.7337724441049431,0,0.49992014029658094,0.03529863039011616,0.3533105535402683,1.001080190688299,6.427553137171344
19,22,female,159,75,25,change,valid,anti,1,0,2,0.29672947252811355,1,f,same,2.7276165117796154,0.05594544281459052,0.5006013531892677,0.03533294761200523,0.353306063436321,1.0010442698576298,6.6880869207125215
19,22,female,160,75,125,change,valid,clock,1,2,2,0.2885424096721181,1,j,change,1.976018034822573,0.2634959778221092,0.49913052346892073,0.03534577647997139,0.3533022147757947,1.0010452320229888,5.932331249070103
19,22,female,161,75,125,change,valid,clock,3,2,2,0.146614718303681,1,j,change,1.1089825168187417,0.260787665363679,0.49962218983637285,0.03532653317824952,0.35329676250648845,1.00107185192428,4.9322574830785015
19,22,female,162,165,215,change,valid,clock,5,0,2,0.12631976979855608,1,f,same,2.0447044357092636,0.0508722812467009,0.4997206513985475,0.03529606461643198,0.3533342869459375,1.0010728140891842,5.814872699142597
19,22,female,163,165,115,change,valid,anti,5,2,2,0.13279706526827795,1,j,change,3.6539493028794823,0.25814543087209024,0.5003835831539618,0.035333268333943124,0.35332434457313866,1.0010449113015056,7.4298437315583215
19,22,female,164,15,325,change,valid,anti,4,2,3,1.012430210957973,1,j,change,0.8107238432207851,0.2556504259721046,0.49963149076575064,0.0353367962725315,0.3533134400349809,1.001059343777797,5.520798160853701
19,22,female,165,165,115,change,valid,anti,1,0,1,0.33122758155286647,0,j,change,1.1287938169989502,0.04594576099937725,0.49977838130507735,0.03536213328652593,0.3532614831196952,1.0010866051220546,5.19159561611923
19,22,female,166,75,75,same,valid,clock,2,1,1,0.19283360188455845,0,j,change,0.7806901802709945,0.15304157868768936,0.4995208417790309,0.035297988946695114,0.35332113735603343,1.001079869966361,4.62567094979795
19,22,female,167,105,155,change,valid,clock,2,2,2,0.2709559559302761,1,j,change,1.613286281321507,0.25326794406599784,0.4998784464751225,0.03533807915937359,0.35332434457313866,1.0010660789334906,5.591797927368134
19,22,female,168,15,325,change,catch,anti,2,0,1,0.1527093927838905,0,j,change,1.2374604229421493,0,0.49995862690047943,0.03533294761200523,0.3533166472520861,1.0010625509949023,6.5688810789592935
19,22,female,169,75,125,change,valid,clock,4,2,2,0.3653578227872458,1,j,change,1.2755759520300671,0.2507588548226467,0.500613861335296,0.0352995925554751,0.35331279859155984,1.0011032826510018,5.344998729941835
19,22,female,170,135,135,same,valid,anti,1,0,2,0.30862632329763073,1,f,same,0.757808611249402,0.05055776898542011,0.5001561914682497,0.03535636029664602,0.3532733498223024,1.0010449113015056,4.720839341519877
19,22,female,171,105,155,change,catch,clock,5,1,1,0.14580810322649995,0,j,change,0.315096883611659,0,0.49912956130401653,0.03533423049884732,0.3532813678648381,1.0010840393488252,5.602276867498404
19,22,female,172,75,75,same,valid,clock,5,2,2,0.14442803774772983,1,j,change,0.7767106654077907,0.24829056543914363,0.5007437536241923,0.035251805021744076,0.3533856024182569,1.001055815838754,4.580081963637895
19,22,female,173,15,65,change,valid,clock,1,1,2,0.16090415296093852,1,f,same,0.8745311048733129,0.15802206687450057,0.49894642921299237,0.035402864942625456,0.3533144022007946,1.0010663996549738,4.684162569981709
19,22,female,174,165,165,same,catch,anti,4,2,1,0.18495956340802877,0,j,change,0.5999118656768587,0,0.4996536205630946,0.035350908027339756,0.353292593124479,1.001038176145812,5.932679232115333
19,22,female,175,165,215,change,valid,clock,2,1,1,0.17705569781355734,0,j,change,0.2839246586236186,0.1551407725712562,0.5000269406227744,0.03526784110681547,0.353341342823569,1.0010850015137294,4.107420281413852
19,22,female,176,105,155,change,valid,clock,2,1,2,0.11408391619170288,1,j,change,1.569670695786499,0.16026371723579974,0.4999608719522257,0.03530183760722139,0.3533115157051725,1.0010862844005715,5.3562717770037125
19,22,female,177,165,165,same,catch,clock,2,0,1,0.11998711981641463,0,j,change,0.4037674536753002,0,0.49969178644550993,0.03535796390497126,0.35323646682672916,1.0010663996549738,5.638538625155888
19,22,female,178,165,165,same,valid,anti,4,1,2,0.46252655575699464,1,f,same,0.7647499910199258,0.15741712108600292,0.4997796641914647,0.03531306286686231,0.3533111949832346,1.0010291959379174,4.967471763661251
19,22,female,179,105,105,same,valid,clock,5,2,1,0.12533771995094867,0,j,change,0.6792183242419014,0.24594756213792754,0.4993864593861872,0.03535187019224395,0.3533047805494789,1.0010647960466486,4.46024045147351
19,22,female,180,15,65,change,valid,clock,3,2,2,0.8651714834791164,1,j,change,1.1967781580824521,0.25454721568424193,0.5000898020762179,0.035332947612459975,0.3532986868367516,1.0010394590321994,5.7685242439947615
19,22,female,181,15,15,same,catch,clock,3,0,1,0.15744869735681277,0,j,change,1.3096718760421027,0,0.5001173841424134,0.03531627008396754,0.35331632653060296,1.0010651167685864,6.604930839572262
19,22,female,182,105,105,same,catch,clock,3,0,2,0.29116302668944627,1,j,change,1.1822392019421386,0,0.49999422700966534,0.03534128637647882,0.3533073463231631,1.0010817942970789,6.699013909058522
19,22,female,183,165,165,same,valid,anti,2,1,1,0.17501109697059292,0,j,change,1.169085442827054,0.15474619970580772,0.49960551230833516,0.035351228748822905,0.3532964417850053,1.0010612681080602,5.037538871470133
19,22,female,184,165,215,change,catch,clock,3,0,1,0.12509236784990208,0,j,change,0.8403954113705367,0,0.499659393553884,0.03530312049360873,0.3533355698327796,1.0010667203769117,6.156098779718377
19,22,female,185,105,155,change,valid,clock,3,0,2,0.5679830581971146,1,j,change,2.4460225377556526,0.04589023224439248,0.5003386821163076,0.035339362045760936,0.35331215714859354,1.0010561365606918,6.687468889995216
19,22,female,186,165,165,same,catch,clock,5,0,1,0.11964875842204492,0,j,change,0.4486508520935786,0,0.49994130792856595,0.03530857276291499,0.3533111949832346,1.001092698834782,5.697799656699772
19,22,female,187,75,75,same,valid,anti,4,2,2,0.256953246473131,1,f,same,2.0098307615730846,0.2523193594040818,0.49973219737967156,0.03531338358834546,0.35332145807797133,1.0010731348111221,5.980580942460165
19,22,female,188,135,135,same,valid,anti,5,2,1,0.10282498088508873,0,j,change,1.0470601366018855,0.25013011653844003,0.4990057627273927,0.0353448143150672,0.35330478054902414,1.0010487599615772,4.801185579839512
19,22,female,189,15,15,same,valid,anti,4,1,2,0.08370227019668164,1,f,same,1.229577724979663,0.15916520877526105,0.5006052018493392,0.03532621245631162,0.3532630867280204,1.0011023204856428,5.050802958849999
19,22,female,190,45,45,same,valid,anti,2,2,2,0.07831959789200482,1,f,same,0.7857931832527356,0.25762275904536486,0.4997482334651977,0.03533070256025894,0.3532993282806274,1.0011003961553797,4.554672786892297
19,22,female,191,105,55,change,catch,anti,2,1,1,0.05554001837117539,0,j,change,0.3364938318800341,0,0.5004807618297491,0.035297988946695114,0.3533227409643587,1.0010721726457632,5.638767941171864
19,22,female,192,105,105,same,catch,anti,4,2,2,0.14393572993685666,1,j,change,0.7347121586881258,0,0.5009310550976807,0.03529863039011616,0.3533262689034018,1.001038176145812,6.0991341155522605
19,22,female,193,135,135,same,valid,anti,3,2,2,0.1548043469338154,1,j,change,1.072433392516814,0.2556878052338457,0.4997395739787862,0.03531883585719697,0.35331889230428715,1.0010298373813384,4.9084361994737264
19,22,female,194,105,105,same,valid,anti,1,1,1,0.1693118723474072,0,f,same,0.34423733662470113,0.15654417327082765,0.499543292297858,0.0353367962725315,0.35330862921000517,1.0010631924383233,4.178289193474939
19,22,female,195,45,45,same,valid,anti,1,1,2,0.17868432261002454,1,f,same,0.7808630492681914,0.16114900496392207,0.499748874908164,0.035299271833537205,0.3533195337477082,1.0010760213062895,4.649734378287576
19,22,female,196,105,105,same,valid,anti,1,2,1,0.18736625905057736,0,j,change,0.4579844950299048,0.2538268070498686,0.4994153243396795,0.035312742144924414,0.35333492838935854,1.0010622302729644,4.248517303577046
19,22,female,197,15,15,same,catch,clock,1,1,1,0.11297774704553376,0,f,same,4.402247232812897,0,0.49960615375130146,0.03515013624291896,0.3534603305743076,1.0010551743957876,9.772475535348349
19,22,female,198,105,105,same,valid,anti,5,1,2,0.23675355231353024,1,j,change,1.208433184689511,0.15854447006037442,0.5002245051905447,0.03532364668262744,0.3533423049884732,1.0010458734664098,5.191135701199983
19,22,female,199,75,75,same,valid,anti,4,1,2,0.09228863157022715,1,f,same,4.3776587828997435,0.1561031817316052,0.49998556752325385,0.035316911526933836,0.3533320418941912,1.0010721726457632,8.159394195193727
19,22,female,200,45,45,same,valid,anti,1,0,1,0.1621187260420811,0,j,change,0.35686286709824344,0.04150972061548952,0.49990410421150955,0.03531755297035488,0.3533285139551481,1.001013159852846,4.154788631570227
19,22,female,201,15,15,same,valid,anti,4,0,1,0.11813078261229748,0,j,change,0.9035878495228644,0.045517184846841,0.5017203512029482,0.03528965018222152,0.3533528888042383,1.0010692861501411,4.73352163973459
19,22,female,202,105,55,change,valid,anti,5,0,2,1.2346826522916672,1,j,change,1.7964443509358716,0.04969317238147311,0.4996253970534781,0.03532525029095268,0.3533262689034018,1.0010452320229888,6.72221331328592
19,22,female,203,45,45,same,valid,anti,3,2,3,0.740392460730618,1,f,same,1.1268986724689967,0.26055739687062746,0.4996212276710139,0.03529510245152778,0.3533519266393341,1.001070569037438,5.603535379452296
19,22,female,204,75,75,same,catch,clock,4,2,1,0.3094784808567965,0,f,same,0.7525997701063716,0,0.49948492094836183,0.035354115244444984,0.3533160058091198,1.0010760213062895,6.26269993790811
19,22,female,205,165,215,change,valid,clock,4,2,2,0.3748043597624928,1,f,same,0.6720838700075547,0.25867368306314753,0.49990827359351897,0.0353290989519337,0.3533031769406989,1.001082115018562,4.76773077850703
19,22,female,206,15,15,same,valid,clock,1,0,1,0.2167802876742826,0,j,change,0.4358530940662604,0.04548545706827925,0.49949069393915124,0.03533102328174209,0.3533410221016311,1.0010561365606918,4.3076452356149275
19,22,female,207,135,185,change,valid,clock,1,2,2,0.3231710524291884,1,j,change,0.7557242409161518,0.25688410252173144,0.49939768464628287,0.03531787369183803,0.3532762363179245,1.0010968682167913,4.790259874379899
19,22,female,208,45,45,same,catch,clock,2,0,2,0.28483294248053426,1,f,same,2.7188867878053316,0,0.49943841630192765,0.03532621245631162,0.35330221477533996,1.0010737762540884,8.205285301196454
19,22,female,209,135,185,change,valid,clock,5,2,2,0.06030882934010151,1,j,change,3.1834752633767494,0.2551719049983737,0.5004666500744861,0.03531819441377593,0.3533220995209376,1.0010667203769117,6.910719737983072
19,22,female,210,75,25,change,valid,anti,2,0,2,0.21876908294143504,1,f,same,1.1114652235046378,0.04947214407655462,0.5001661338410486,0.03531242142298652,0.3533352491108417,1.0010423455278215,4.991334420366002
19,22,female,211,45,45,same,valid,clock,2,2,2,0.1196218177992705,1,f,same,0.6149934829350059,0.2535144614745807,0.4993697818581495,0.0353595675132965,0.3533057427143831,1.0010776249146147,4.390157628301495
19,22,female,212,15,65,change,catch,clock,4,0,1,0.15071578669176233,0,j,change,0.4012193197622764,0,0.4998146228567748,0.03535347380102394,0.3533031769406989,1.0010715312023422,5.732869291795396
19,22,female,213,135,85,change,valid,anti,2,0,2,0.4808153900230536,1,j,change,2.5310561237320144,0.04545620494905153,0.4999451565890922,0.03537849009353522,0.3532646903368004,1.0010840393483704,6.675734003684738
19,22,female,214,15,325,change,valid,anti,4,0,1,0.21588932278973516,0,f,same,0.33437450288147375,0.04164137742929061,0.4995708743645082,0.03528708440899209,0.3533304382854112,1.001060305943156,4.248686003191779
19,22,female,215,105,155,change,valid,clock,3,2,2,0.22206289480845953,1,j,change,0.9470058704896474,0.25175455009414605,0.4995288598215666,0.03531338358834546,0.3533054219924452,1.0010724933672464,4.813245677954001
19,22,female,216,15,15,same,catch,anti,4,1,1,0.16549945349015616,0,f,same,0.28353594392274317,0,0.5006337460808936,0.03531210070150337,0.35332691034682284,1.0010670410983948,5.662643747466063
19,22,female,217,15,65,change,valid,clock,5,2,2,0.3187582425475739,1,f,same,1.9196386877606528,0.25000742286386973,0.5008085394078989,0.03529702678179092,0.3533259481814639,1.0010798699668157,5.957122074376912
19,22,female,218,45,45,same,valid,clock,4,1,2,0.13696676810013741,1,f,same,0.8182194300902665,0.15377292536408452,0.5000930092933231,0.035320118744039064,0.35329355528983797,1.0010888501742556,4.649308459868735
19,22,female,219,105,105,same,valid,clock,1,2,2,0.27028308180206295,1,j,change,1.5594537852857684,0.24829064930954292,0.5004015435692963,0.03526880327217441,0.35334487076215737,1.0010975096602124,5.5327973218454645
19,22,female,220,75,75,same,valid,clock,1,2,2,0.1389805796593464,1,f,same,0.9733111436676154,0.24665756668063524,0.5005378502924032,0.03530921420633604,0.35331985446919134,1.0010651167681317,4.814729977985735
19,22,female,221,45,45,same,catch,clock,5,0,1,0.1678089704573722,0,j,change,0.3267955283699848,0,0.49995638184873314,0.035321401630881155,0.35333140045077016,1.0010442698576298,5.732492764518611
19,22,female,222,105,105,same,catch,clock,1,1,2,0.20952556280235513,1,j,change,1.0492471378797745,0,0.5009082838564609,0.035309534927819186,0.3533034976626368,1.0010904537825809,6.429116334741138
19,22,female,223,45,95,change,valid,clock,4,0,2,0.12599391655066938,1,f,same,2.0914970904127586,0.04514668136735889,0.49944386857077916,0.0353143457537044,0.353362510455554,1.0010619095514812,5.932492251363783
19,22,female,224,75,125,change,catch,clock,4,2,1,0.09278093938064558,0,j,change,0.2772780220961977,0,0.49974502624809247,0.035302479050187685,0.3533435878753153,1.001037213980453,5.556234701574795
19,22,female,225,105,155,change,valid,clock,1,2,3,0.9146588419125692,1,j,change,0.9421488610528286,0.24508724582066413,0.5001369481660731,0.03529221595636045,0.3533878474700032,1.0010644753251654,5.520958842425898
19,22,female,226,45,95,change,valid,clock,2,0,2,0.4210671822161203,1,f,same,2.4145542866376672,0.041486519271061756,0.49987876719706037,0.03532043946552221,0.3533144022003398,1.0010301581032763,6.463326114956999
19,22,female,227,45,355,change,valid,anti,2,2,2,0.2693632519640232,1,j,change,1.6464049663113656,0.24356106676118552,0.49903302407210504,0.035316911527388584,0.353348398700291,1.0010407419194962,5.555959201633868
19,22,female,228,15,15,same,valid,anti,3,0,2,0.2422103113308367,1,f,same,1.5451871218688211,0.03782191942978713,0.49949293899089753,0.03529381956468569,0.3533435878753153,1.0010676825418159,5.461730203773641
19,22,female,229,45,355,change,valid,anti,1,2,2,0.1450383711444374,1,f,same,3.5402903429412618,0.24193535404900327,0.4997116711911076,0.03532781606509161,0.35328874446395275,1.0010869258439925,7.310551936389402
19,22,female,230,135,85,change,valid,anti,4,0,1,0.1730078692276038,0,j,change,0.32429486126829943,0.03440097662466765,0.5002809522097778,0.03533262689006733,0.35331889230428715,1.0010279130510753,4.107565247622915
19,22,female,231,75,25,change,valid,anti,4,1,1,0.1651835426150683,0,j,change,0.22741189133421358,0.15138317465119608,0.5001494563125561,0.035317232248416985,0.3533275517902439,1.0010625509944475,4.096301501490871
19,22,female,232,75,75,same,valid,clock,2,0,2,0.2271280526292685,1,j,change,1.2238987058240127,0.037458881108260705,0.4999964720614116,0.03531562864054649,0.35330510127096204,1.0010327238765058,5.20280644317063
19,22,female,233,45,95,change,valid,clock,3,1,1,0.18923510440117752,0,f,same,0.3255415065195848,0.15529615322652676,0.5000814633117443,0.035325891734828474,0.3532659732236425,1.0010994339904755,4.202498871059561
19,22,female,234,45,355,change,catch,anti,3,2,1,0.21071447814711064,0,j,change,0.6090277385783338,0,0.49973219737967156,0.035320118744039064,0.3532820093087139,1.0011010375988008,5.979892673689847
19,22,female,235,15,65,change,valid,clock,4,2,2,0.5619849209488166,1,j,change,2.676275381915275,0.24031815513984844,0.5004817239946533,0.035318515135713824,0.35339137540859156,1.0010301581032763,6.935094266522356
19,22,female,236,15,15,same,catch,anti,2,0,1,0.3707135544686935,0,f,same,0.6263723681577176,0,0.4999499674145227,0.03532557101289058,0.3533259481814639,1.001068965428658,6.215890926398515
19,22,female,237,135,135,same,valid,anti,4,2,2,0.37746987781792996,1,j,change,2.341706521683136,0.23870705743165754,0.4998749185365341,0.035330061116837896,0.3533089499314883,1.0010134805743292,6.439623819102962
19,22,female,238,135,185,change,valid,clock,4,2,2,0.34653306255859206,1,j,change,1.2249285432048964,0.23716759936113505,0.49946696053348205,0.03530504482387187,0.3532954796201011,1.0010817942966241,5.238211232443518
19,22,female,239,135,135,same,valid,anti,4,1,2,0.13816145643568234,1,f,same,1.406356639965452,0.15936808518518022,0.49975496862043656,0.03533968276815358,0.35331953374725344,1.0010628717163854,5.190856352598985
19,22,female,240,105,55,change,valid,anti,2,2,1,0.12210901458865919,0,j,change,0.41104045968404535,0.23568790842253948,0.5001087246569114,0.03533166472516314,0.353281688586776,1.0010532500655245,4.131521555063955
19,22,female,241,45,45,same,valid,anti,5,2,3,1.0084978421841697,1,f,same,3.4832410082462957,0.24137621162543627,0.4995048056939595,0.03532043946597696,0.35332145807797133,1.0010651167681317,8.123380996854394
19,22,female,242,15,15,same,valid,clock,4,1,2,0.740953082264241,1,f,same,1.5020173394982521,0.1571111536131672,0.4996888999503426,0.035354115243990236,0.3533237031297176,1.0010455527449267,5.873482665633219
19,22,female,243,15,15,same,catch,clock,4,0,2,0.1465569883976059,1,f,same,0.7223358289757016,0,0.5008611377666057,0.035305365545809764,0.3533419842665353,1.0010394590321994,6.758021249736885
19,22,female,244,75,75,same,valid,anti,1,0,1,0.18684604845248032,0,j,change,0.43364011433095584,0.0341696900863977,0.5008803810687823,0.035315628640091745,0.35332338240823447,1.0010606266646391,4.308992266758196
19,22,female,245,135,135,same,valid,clock,1,2,1,0.15127993616351887,0,f,same,0.2737536113263559,0.23988820898719915,0.49938485577786196,0.03536501978214801,0.3532723876573982,1.0010904537825809,4.072148591646965
19,22,female,246,105,105,same,valid,clock,4,0,1,0.1618294350682845,0,f,same,1.111342066371435,0.037121732599623675,0.499818792239239,0.035338079158918845,0.35331215714859354,1.0010830771834662,4.96785662970251
19,22,female,247,165,165,same,valid,clock,3,1,2,0.19671433446410447,1,j,change,1.7713770635232322,0.15497052007636594,0.4995150687886962,0.03535058730585661,0.3532993282806274,1.0010657582120075,5.6617383501052245
19,22,female,248,45,45,same,valid,clock,1,1,1,0.1739055692682996,0,j,change,0.5298133271412553,0.15279525568848956,0.5003402857246328,0.03529734750327407,0.35331279859155984,1.0010667203769117,4.425782432660981
19,22,female,249,165,165,same,valid,clock,4,2,3,0.611218267795266,1,j,change,1.1838270950825063,0.2450418427687789,0.5004345779043433,0.035333268333943124,0.3533339662239996,1.001034968928252,5.48585328649915
19,22,female,250,165,165,same,valid,clock,1,0,2,0.46783578279155336,1,f,same,1.280699481200827,0.040290471328356336,0.5002886495308303,0.03528836729583418,0.3533477572573247,1.001047156353252,5.450680379015921
19,22,female,251,45,95,change,valid,clock,1,0,2,0.2986406531431385,1,j,change,0.8455439568333531,0.0370412028994008,0.5018999553558388,0.035312742144469667,0.35330927065297146,1.0010577401694718,4.875026940622774
19,22,female,252,15,65,change,valid,clock,1,0,2,0.2738318674214497,1,f,same,1.6810839623753964,0.03398433411782881,0.49965169623283145,0.035300554720379296,0.3533249860165597,1.0010795492448779,5.591186631806522
19,22,female,253,135,135,same,valid,clock,5,2,3,0.7258862182038683,1,f,same,0.8367959517227064,0.24375098823645897,0.5003563218097042,0.03532685389973267,0.3533002904455316,1.001069606872079,5.261872475920427
19,22,female,254,75,75,same,valid,clock,5,0,2,0.2436968564138624,1,j,change,1.017280164517615,0.030907424754896384,0.500601994632234,0.035284518635307904,0.3533394184928511,1.0010417040844004,4.908819782627688
19,22,female,255,165,215,change,valid,clock,3,0,1,0.1825887885956945,0,f,same,0.38577272120801354,0.027900305288271643,0.5002136006528417,0.0353515494707608,0.35331536436569877,1.0010670410983948,4.261510701841871
19,22,female,256,105,55,change,valid,anti,1,0,2,0.20017299728533544,1,f,same,3.406983009446776,0.030715204827044956,0.4992549634889656,0.03534705936681348,0.35330061116746947,1.0010673618203327,7.2634036013200785
19,22,female,257,105,105,same,valid,clock,2,1,2,0.15506669728483757,1,j,change,0.8806841507034733,0.1563191303045256,0.500057409184592,0.03533647555104835,0.35328810302098645,1.0010734555326053,4.708775074022469
19,22,female,258,45,45,same,valid,anti,3,0,1,0.6249336106075134,0,j,change,0.6314859549556786,0.027804987439228684,0.49933257814063836,0.03532236379578535,0.35330285621921576,1.0010926988343272,4.884317606851255
19,22,female,259,165,165,same,catch,clock,4,1,1,0.1848979848414274,0,f,same,0.3738947930191898,0,0.5002475971532476,0.03536758555583219,0.35328938590782855,1.0010529293435866,5.697900042591755
19,22,female,260,75,125,change,catch,clock,4,1,2,0.6141034802153627,1,f,same,0.8508047548916693,0,0.5000776146516728,0.03534577647997139,0.3533147229222777,1.0010397797541373,6.663754727437663
19,22,female,261,45,355,change,valid,anti,2,0,2,0.4674448230384769,1,j,change,2.4127133440752004,0.030533710367997347,0.49953142559525077,0.035349625140497665,0.3533156850871819,1.0010663996549738,6.651489046712868
19,22,female,262,45,95,change,catch,clock,3,2,1,0.28611871577913917,0,f,same,0.9219619957616487,0,0.4992886392674336,0.035349945861980814,0.35330959137490936,1.001072493367701,6.403321329789378
19,22,female,263,165,165,same,valid,clock,2,1,2,0.25756037265273335,1,j,change,0.8193903850201423,0.1543021472457049,0.5006773642317057,0.035316911527388584,0.353316967974024,1.0010670410983948,4.768037388453195
19,22,female,264,165,115,change,valid,anti,1,2,1,0.21254483689381232,0,j,change,2.1722894526178607,0.24237334045766662,0.4995593283833841,0.03533423049884732,0.3532874615775654,1.0010327238765058,6.133279430706352
19,22,female,265,165,165,same,valid,clock,3,0,2,0.14692966701386467,1,f,same,2.1440704330511835,0.027715248220167743,0.4992370030740858,0.03535058730540186,0.35330413910605785,1.001046835631314,5.956226298666024
19,22,female,266,45,355,change,valid,anti,1,0,2,0.35316173867067846,1,j,change,1.853100160104077,0.025068895075223113,0.4997466298564177,0.03529125379100151,0.35333589055426273,1.0010660789334906,5.897637179085905
19,22,female,267,135,185,change,valid,clock,2,0,1,0.17057262935350082,0,f,same,0.3109316708832921,0.022506368438424046,0.49970525675689714,0.035327495343153714,0.3532643696148625,1.0010962267733703,4.1542828534484215
19,22,female,268,45,45,same,valid,anti,1,2,3,0.19155680879339343,1,f,same,2.1885651167685864,0.2470736411953439,0.5002030168366218,0.035312421423441265,0.3533451914836405,1.0010907745045188,6.039665897789746
19,22,female,269,135,85,change,catch,anti,2,2,2,0.15464462752652253,1,f,same,4.040883998809477,0,0.49995349535311107,0.03533743771595255,0.3533137607569188,1.0010452320229888,9.348992356560757
19,22,female,270,105,105,same,valid,clock,5,1,1,0.1378256608149968,0,j,change,0.39326798735601187,0.15223552683641725,0.4999878125754549,0.035364378338726965,0.35331311931349774,1.0010458734664098,4.2140054035194225
19,22,female,271,135,85,change,valid,anti,3,0,2,0.4150292754770817,1,f,same,7.358210218962995,0.024870576724985244,0.4995157102316625,0.0353072898760729,0.3533285139551481,1.0010689654291127,11.408692456112021
19,22,female,272,165,215,change,valid,clock,1,2,2,1.1711027823248514,1,j,change,1.224717508325739,0.2458251913489578,0.5000452217595921,0.0353072898760729,0.35332691034682284,1.0010500428484193,6.063179609283907
19,22,female,273,75,125,change,catch,clock,1,2,1,0.13340355000445925,0,f,same,0.25375340606433383,0,0.4997520821252692,0.03535187019224395,0.35332819323366493,1.0010686447071748,5.532812395765632
19,22,female,274,135,85,change,valid,anti,3,2,2,0.476850949080017,1,j,change,1.2557980069068435,0.24461205065718059,0.4997431019173746,0.03528676368750894,0.35331055353981355,1.0011683891561916,5.4267702554993775
19,22,female,275,45,95,change,valid,clock,1,1,2,0.365952120098882,1,j,change,0.787868573378546,0.15560647256236915,0.4997536857340492,0.03533519266375151,0.3533480779792626,1.0010635131598065,4.8375708153516825
19,22,female,276,135,185,change,valid,clock,1,0,2,0.15693105253149042,1,f,same,2.8946644096413365,0.02230155244059409,0.5001869807515504,0.03536020895671754,0.3532932345683548,1.0010628717163854,6.757758899385863
19,22,female,277,105,105,same,valid,clock,4,2,3,0.41490547690045787,1,f,same,0.8949694159787214,0.2433242583952993,0.5002107141576744,0.03533262689006733,0.35329002735079484,1.0010866051225094,5.002751150749191
19,22,female,278,165,165,same,valid,anti,1,0,1,0.1278557060240928,0,j,change,0.2702943070617039,0.019730745913630693,0.5004085994469278,0.03530408265896767,0.35329740395036424,1.0011000754334418,3.9787428863928653
19,22,female,279,135,135,same,valid,anti,1,1,2,0.17085871311064693,1,f,same,0.8962192684466572,0.15369621927764474,0.49997081432502455,0.03530761059755605,0.35330670487974203,1.0010708897589211,4.719766848152176
19,22,female,280,165,215,change,valid,clock,4,1,2,0.19079830197142655,1,j,change,2.2831642274713886,0.15172422478466868,0.5002325232330804,0.03531338358834546,0.3533025354977326,1.0010208571738985,6.110496964689901
19,22,female,281,105,55,change,valid,anti,5,2,2,0.41254336157408034,1,j,change,1.4009014845569254,0.24204993255705393,0.49932808803669104,0.03541409020272113,0.3532223550719209,1.0010987925470545,5.47346733513632
19,22,female,282,75,125,change,valid,clock,3,0,1,0.12938458637154326,0,f,same,0.35037627069959854,0.02210696842032059,0.49999486845263164,0.0352995925554751,0.3533188923038324,1.0010468356317688,4.131766265722035
19,22,female,283,45,355,change,valid,anti,3,2,1,0.1699613337914343,0,f,same,0.27889638379883763,0.2407772808491637,0.49970942613890657,0.035315307918608596,0.353315364365244,1.0010673618203327,4.071830756441159
19,22,female,284,135,185,change,valid,clock,2,2,2,0.15651732153764897,1,j,change,0.5838677625943092,0.2451742928914445,0.5003162315970258,0.03521973285205604,0.353408052937084,1.001071210480859,4.4256349006791424
19,22,female,285,165,165,same,valid,anti,5,0,1,0.17581418410964034,0,f,same,0.6144161838733453,0.0243592041621937,0.5003823002675745,0.0353371169944694,0.35326982188371403,1.001045552744472,4.520623688248179
19,22,female,286,75,75,same,valid,clock,3,2,1,0.14390237488032653,0,j,change,0.3466642377343305,0.24405531478086082,0.4997533650121113,0.0353079313190392,0.35334005993627216,1.001113866466767,4.142734627167556
19,22,female,287,165,165,same,valid,clock,5,1,1,0.11431291148574019,0,f,same,0.38043655355022565,0.14974933821157688,0.50031719376193,0.03532813678657476,0.35330510127096204,1.0010673618203327,4.213790519979739
19,22,female,288,45,45,same,valid,clock,4,0,2,0.2789159478224974,1,f,same,0.9476133173911876,0.026542465073098487,0.5001728689967422,0.03527457626250907,0.3533660383941424,1.0010577401694718,4.84952218881017
19,22,female,289,45,95,change,valid,clock,3,0,1,0.21783866928717543,0,j,change,0.3648209346602016,0.024194134112118237,0.5005275871976664,0.035306969154135004,0.3532842543604602,1.0011061691461691,4.284792852267856
19,22,female,290,75,125,change,valid,clock,1,1,2,0.14437127000655892,1,j,change,1.0526127914076824,0.1530533084334978,0.49980115254584234,0.03531562864054649,0.3532967625069432,1.0010962267733703,4.861304862653924
19,22,female,291,165,165,same,valid,anti,3,2,2,0.30090719340296346,1,j,change,1.1529929107678072,0.2481516517225075,0.5000618992880845,0.03537207565977951,0.3532858579687854,1.0010846807917915,5.1677570135420865
19,22,female,292,75,25,change,valid,anti,3,1,2,0.1415203748078966,1,f,same,1.175400132393861,0.15116271845262796,0.500124119298107,0.03536085039968384,0.3532698218841688,1.0010843600703083,4.979736161500114
19,22,female,293,15,15,same,valid,clock,3,0,2,0.18805773503754608,1,f,same,1.0543232002382865,0.026322618540380704,0.49966644943106076,0.035330061116837896,0.35331728869550716,1.0010862844005715,4.931668317314234
19,22,female,294,45,45,same,valid,clock,2,0,2,0.08497810112203297,1,f,same,3.264854546294373,0.024037266416453346,0.5003021198422175,0.0353149871966707,0.3533137607569188,1.001014763461626,6.981842661630708
19,22,female,295,135,135,same,catch,clock,3,0,1,0.09466261359921191,0,f,same,0.4692232248698929,0,0.49994900524916375,0.0353220430743022,0.35329740395036424,1.0010862844005715,5.76778273542277
19,22,female,296,15,15,same,valid,anti,1,1,1,0.053915242234779726,0,f,same,0.3832473585362095,0.14927201065364443,0.5009118117950493,0.03532076018746011,0.3533285139551481,1.0010667203769117,4.131982752870044
19,22,female,297,165,165,same,catch,anti,2,2,2,0.21234951737824304,1,j,change,0.8992670867696688,0,0.49987459781505095,0.03532685389973267,0.3533352491108417,1.0010567780041129,6.32139714070172
19,22,female,298,135,85,change,valid,anti,1,2,3,0.5963133681939325,1,j,change,0.7240539351273583,0.24702267847776782,0.5001225156897817,0.035314025031766505,0.3532932345683548,1.0010850015137294,4.967391583236349
19,22,female,299,15,65,change,valid,clock,5,1,1,2.5197500423350903,0,j,change,0.43258686426543136,0.15246238664347944,0.5002803107668115,0.03526463388971024,0.35335641674328144,1.0010856429571504,6.592764261852608
19,22,female,300,45,95,change,valid,clock,3,2,2,0.1965318438160466,1,j,change,0.9560704279197125,0.24593187062070937,0.49984958152253967,0.03529542317301093,0.3533127985920146,1.0010760213062895,4.826224643742535
19,22,female,301,45,95,change,valid,clock,1,2,1,0.1865019140673212,0,f,same,0.30150020782775755,0.24487013959189696,0.510165274306928,0.03532653317779477,0.3533031769406989,1.0010785870799737,4.200404237631574
19,22,female,302,105,105,same,catch,anti,2,2,2,0.6874743422640677,1,f,same,0.7295459735319128,0,0.49958466539737856,0.03533551338568941,0.3532794435350297,1.001059985221218,6.651381284220861
19,22,female,303,135,135,same,catch,clock,5,1,2,0.16322938529219755,1,f,same,0.5522385091826436,0,0.49965073406792726,0.0353595675132965,0.3533002904455316,1.001058702334376,5.909433002519563
19,22,female,304,45,355,change,valid,anti,5,2,2,0.15760585099042146,1,j,change,0.6880959009199614,0.24873637364363688,0.500261388186118,0.035355398131287075,0.35330253549727786,1.0010673618203327,4.544001093019688
19,22,female,305,165,165,same,valid,anti,2,2,3,1.2856652152941024,1,f,same,0.51031376845458,0.2476513905927655,0.49991725380095886,0.035343852149708255,0.3533144022007946,1.0010869258439925,5.485830194537357
19,22,female,306,165,165,same,catch,anti,1,2,2,0.14370577247746041,1,f,same,1.4923203188741354,0,0.4993556701028865,0.03532172235281905,0.35332306168629657,1.0010542122304287,6.780296654744234
19,22,female,307,15,15,same,valid,clock,1,1,2,0.24478763091883593,1,f,same,1.7490012726239001,0.15544003484273505,0.5000644650617687,0.03524154192700735,0.3533660383945971,1.0010830771834662,5.650453757062223
19,22,female,308,45,355,change,valid,anti,5,0,1,0.18347077327280203,0,f,same,0.26176439270693663,0.02171889025735521,0.49976843893182377,0.03530985564975708,0.353327231068306,1.001068323985237,4.131172930575303
19,22,female,309,45,45,same,valid,clock,1,0,2,0.18674277606442047,1,f,same,0.86563203984133,0.023820047780395454,0.5000718416608834,0.03532043946552221,0.3532701426056519,1.0010968682167913,4.719842859195069
19,22,female,310,165,115,change,valid,anti,3,0,2,0.1476804765156885,1,f,same,2.129816277781174,0.02155508517138585,0.49998236030660337,0.0352264680072949,0.3533217787994545,1.0010263094422953,5.968185369446019
19,22,female,311,105,105,same,valid,anti,3,2,1,0.12320780713616841,0,f,same,0.2961534563537498,0.2466063502184197,0.5001449662086088,0.035308252040977095,0.353327231068306,1.001056457282175,4.1784797021650775
19,22,female,312,105,105,same,valid,anti,3,0,2,0.49125488138452056,1,j,change,2.0834687847982423,0.019277606516107382,0.5001574743550918,0.03531947730061802,0.35328778229904856,1.0010782663580358,6.251815605548472
19,22,female,313,135,135,same,catch,anti,2,1,2,0.18901829653168534,1,j,change,2.1117654190161375,0,0.499693069332352,0.03520979047880246,0.3534256926309354,1.0010673618203327,7.475876596552553
19,22,female,314,75,125,change,valid,clock,4,0,1,1.705347521206022,0,f,same,4.506772680155791,0.017118959143864354,0.49974374336079563,0.03533230616903893,0.3532906687942159,1.0010340067633479,9.901726380771379
19,22,female,315,15,325,change,catch,anti,1,0,1,0.7658093347977228,0,f,same,1.951398154182698,0,0.4997568929506997,0.03535475668741128,0.3532970832288811,1.0010487599615772,7.9353181302690246
19,22,female,316,15,15,same,valid,anti,5,0,2,0.2466054815190546,1,j,change,1.044968068947128,0.01917223529603193,0.5001911501335599,0.03534032421111988,0.3533018940538568,1.001034648206769,5.0150280567340815
19,22,female,317,135,135,same,valid,clock,1,1,2,0.4299665679695863,1,j,change,0.9574511348419037,0.1537496918162299,0.49943328475501403,0.03535764318303336,0.35328810302098645,1.001069927594017,5.120333178531382
19,22,female,318,45,355,change,catch,anti,4,0,2,0.32821985344344284,1,j,change,2.016538014501748,0,0.49934604845202557,0.03531370430982861,0.35331183642665565,1.0010686447071748,7.510355141553646
19,22,female,319,105,105,same,valid,anti,2,2,2,0.6824402944484973,1,f,same,1.0601010016780492,0.2506457314894793,0.5008261791012956,0.035321401630881155,0.3533326833371575,1.00103528965019,5.451147991255766
19,22,female,320,15,325,change,valid,anti,1,2,1,0.23458771866808092,0,j,change,3.040887847470003,0.24955525503300668,0.49991340514088733,0.03536854772073639,0.35328265075213494,1.001090133060643,6.9576284939421384
19,22,female,321,105,105,same,valid,clock,1,0,2,0.20753997475276265,1,f,same,1.6095870772246599,0.0170662527813088,0.49998492608028755,0.035331985446646286,0.35331344003543563,1.0010612681080602,5.521488353953828
19,22,female,322,135,135,same,valid,clock,3,1,2,0.41100389741041,1,f,same,2.209429987735348,0.15200022020045967,0.49953495353383914,0.0353444935931293,0.35330317694115365,1.0010436284142088,6.274703268282337
19,22,female,323,75,125,change,valid,clock,3,1,2,0.12002913435935625,1,f,same,0.7212979735518275,0.15024467883404197,0.49962218983637285,0.035370472050999524,0.35330061116746947,1.0010673618203327,4.507668135144286
19,22,female,324,165,115,change,valid,anti,2,1,2,0.14318684476575072,1,f,same,0.8409720689883216,0.14852303753570856,0.5002581809690128,0.03533904132427779,0.35332306168629657,1.0010378554238741,4.696747689520635
19,22,female,325,15,325,change,catch,anti,1,0,1,0.12019109881794066,0,j,change,0.3442806340540301,0,0.5000930092928684,0.035342248541383015,0.3533034976626368,1.0010654374900696,5.662659783551135
19,22,female,326,45,95,change,valid,clock,5,2,2,0.3314180902430053,1,f,same,1.989787579602762,0.2533669782120639,0.5002415034409751,0.035316911526933836,0.3533217787994545,1.0010407419190415,6.039138631314017
19,22,female,327,15,325,change,catch,anti,4,0,1,0.1946296434089163,0,j,change,0.4585258732613511,0,0.49999775494779897,0.035343531428225106,0.3533358905547175,1.0010542122304287,5.850382364411416
19,22,female,328,15,65,change,valid,clock,4,0,1,0.24132415727171974,0,j,change,0.6307098084389509,0.015060257091753237,0.5002774242711894,0.03532781606463686,0.3532848958038812,1.0010535707870076,4.543459394066758
19,22,female,329,45,355,change,valid,anti,5,1,2,0.3642702554993775,1,j,change,1.3443707568521859,0.1468972643165477,0.5004082787249899,0.03531466647518755,0.35334358787486053,1.001059343777797,5.356766329866332
19,22,female,330,45,45,same,valid,anti,2,0,1,0.21966774514703502,0,f,same,0.2752542681646446,0.017015854959235965,0.499520521057093,0.035350908027339756,0.35330574271483783,1.0010494014049982,4.1193472800232485
19,22,female,331,75,75,same,valid,anti,3,1,2,0.20856147337008224,1,j,change,1.2728976051066638,0.14533887807692666,0.4997594587243839,0.035316911526933836,0.3533224202428755,1.0010686447071748,5.179719291538731
19,22,female,332,15,65,change,catch,clock,3,0,1,0.7998808839602134,0,f,same,0.647093555803167,0,0.49964496107713785,0.035330381838321046,0.3533227409648134,1.0010628717163854,6.650891542184127
19,22,female,333,75,75,same,catch,clock,5,2,2,0.6202606954270777,1,j,change,1.5855393640986222,0,0.5004599149192472,0.035324288126048486,0.3533682834463434,1.001023422947128,7.417811536231511
19,22,female,334,75,75,same,valid,clock,3,1,1,0.11697875026311522,0,f,same,0.35703060454761726,0.14382256348087208,0.49978992728574667,0.03533294761200523,0.3533224202428755,1.001105527702748,4.190613566271622
19,22,female,335,45,45,same,valid,clock,5,2,1,0.2751234137103893,0,f,same,1.53455872542645,0.25234838894592093,0.4989615031327048,0.0353297403949,0.35330542199289994,1.0010689654291127,5.473173233336638
19,22,female,336,165,215,change,valid,clock,4,0,2,0.24302205795538612,1,j,change,1.002981749652463,0.018975443628064276,0.49936304670200116,0.03534513503700509,0.35329708322842635,1.0010728140891842,4.872363026176117
19,22,female,337,75,25,change,valid,anti,5,2,1,0.15043002365609937,0,f,same,1.373566373997619,0.25584023389124266,0.5004605563626683,0.03530023399889615,0.35333813560646377,1.0010198950085396,5.226812783197602
19,22,female,338,165,165,same,valid,clock,2,0,1,0.22603439162912764,0,f,same,0.3662112632332537,0.016967619102686127,0.5003293811864751,0.03532941967341685,0.35331087426175145,1.0011472215237518,4.24978126779979
19,22,female,339,45,95,change,catch,clock,4,2,2,0.21668503332921318,1,j,change,0.5239954354888141,0,0.4998367526545735,0.03534288998480406,0.3533070256016799,1.0010593437773423,5.873847967650818
19,22,female,340,105,155,change,valid,clock,4,1,1,0.141436666444406,0,f,same,1.9599627064808374,0.1463959816988732,0.5008155952850757,0.03529414028616884,0.3532980453937853,1.001105527702748,5.793146690408321
19,22,female,341,15,65,change,valid,clock,5,0,2,0.37009359942112496,1,j,change,2.735806461131233,0.01888342475658436,0.49927709328630954,0.03531883585719697,0.3533179301389282,1.001059343777797,6.815416643147273
19,22,female,342,165,165,same,valid,clock,2,2,2,0.23757395842449114,1,j,change,0.8396163783590964,0.25951886817805386,0.5004326535740802,0.0352848393572458,0.3533464743704826,1.0010654374900696,4.779683755573842
19,22,female,343,75,25,change,catch,anti,5,2,2,0.20771156086266274,1,j,change,5.191958031641207,0,0.4997148784082128,0.03532717462121582,0.35333011756392807,1.0010500428484193,10.619809119272304
19,22,female,344,135,135,same,valid,anti,2,1,2,0.5605923473235634,1,j,change,6.395899188189105,0.1491639423652552,0.5006391983497451,0.035322684517723246,0.3532993282806274,1.0010638338817444,10.645022014337428
19,22,female,345,105,155,change,valid,clock,5,1,2,0.2146115675341207,1,f,same,1.4309745962755187,0.14761217276440858,0.4993992882546081,0.03532621245631162,0.35333781488452587,1.0010875672874135,5.355333024584979
19,22,female,346,75,75,same,valid,clock,4,0,2,0.18881944907707293,1,j,change,0.962529442252162,0.01692141072188899,0.49989608616897385,0.03528227358310687,0.3533435878753153,1.001057419447534,4.861266055328542
19,22,female,347,45,45,same,catch,clock,3,2,2,0.15387970626989045,1,j,change,0.8396946344541902,0,0.5003287397435088,0.035315307918608596,0.35331825086041135,1.0010384968672952,6.1688618998014135
19,22,female,348,75,75,same,valid,clock,2,2,2,0.1354003633132379,1,j,change,0.8104351936904095,0.25853282110644155,0.5006642146422564,0.035328457508512656,0.3532996490021105,1.0010763420277726,4.685114151267953
19,22,female,349,105,155,change,catch,clock,1,2,2,0.23200622969852702,1,f,same,1.2398427437356077,0,0.5005808269997942,0.035275538427868014,0.35332017519112924,1.0010529293435866,6.651855952338337
19,22,female,350,75,125,change,valid,clock,2,1,1,0.8973340970783283,0,j,change,0.3867845981744722,0.14613250228143743,0.500295705408007,0.03529542317301093,0.3533317211722533,1.001059343777797,5.014569745424069
19,22,female,351,165,165,same,valid,anti,5,2,3,0.5062406028541773,1,f,same,0.9473573814739211,0.2575870214673972,0.5097643721810527,0.035330381838321046,0.3533102328183304,1.0010035382015303,5.141505942331605
19,22,female,352,165,165,same,valid,anti,4,2,3,0.4692662015777387,1,f,same,0.7151516628778154,0.2566742985653602,0.5001404761046615,0.03537816937159732,0.3533092706534262,1.0011209223439437,4.838265498555302
19,22,female,353,105,155,change,catch,clock,2,2,2,0.8605357720157372,1,f,same,0.7966618002492396,0,0.5000224505188271,0.03536245400846383,0.35328393363897703,1.0010102733576787,6.839866862007511
19,22,female,354,15,15,same,valid,anti,3,2,3,0.56348814355988,1,f,same,0.62800580378007,0.25578812293037295,0.5005888450427847,0.03529093306906361,0.35335513385643935,1.0010474770751898,4.9329653158724796
19,22,female,355,15,65,change,valid,clock,2,0,3,1.2401304311015338,1,j,change,1.7839698803836654,0.015046932797584595,0.49937683773532626,0.03533936204621568,0.3533002904455316,1.0010429869707878,6.6983198672983235
19,22,female,356,105,55,change,valid,anti,3,2,2,0.6067195044979599,1,j,change,0.6472677076862965,0.2549224945892086,0.4999704936035414,0.03532043946597696,0.35327206693591506,1.00111579079703,4.908772636537378
19,22,female,357,45,355,change,valid,anti,4,1,2,0.2757610084518092,1,j,change,0.8073460022683321,0.14878980271828773,0.4999156501926336,0.035364378338726965,0.3532499371385711,1.0011199601790395,4.755798327628781
19,22,female,358,75,75,same,valid,anti,5,1,1,0.4988014630039288,0,f,same,0.5629486896596063,0.14730716909842265,0.49979024800768457,0.03534641792339244,0.35331119498368935,1.001045552744472,4.7077987971651964
19,22,female,359,15,325,change,valid,anti,3,0,2,1.2956364529718485,1,f,same,1.1987836308776423,0.013216184486820215,0.5004509347113526,0.03535443596592813,0.3532743119881161,1.0010872465654757,6.145757108475664
19,22,female,360,75,75,same,catch,anti,3,0,2,0.9402710354952433,1,j,change,1.5526811051299774,0,0.5000920471284189,0.03534866297559347,0.35332306168629657,1.0010420248058836,7.675958829596766
19,22,female,361,105,105,same,valid,anti,1,0,2,0.24486300051785292,1,j,change,0.8432145551205394,0.011330832969737331,0.5009086045783988,0.03532364668262744,0.353262766006992,1.0010991132685376,4.8391176561144675
19,22,female,362,45,355,change,valid,anti,4,0,1,0.21943297686175356,0,j,change,1.2144826374101285,0.009419683390073014,0.4992495112201141,0.035363095451884874,0.35328200930825915,1.0010445905795677,5.1551924201917245
19,22,female,363,165,115,change,valid,anti,3,2,2,1.2592704607613996,1,f,same,1.760722367901053,0.25400128633270813,0.500203337558105,0.03533390977690942,0.3532576344591689,1.001092698834782,6.7579163737405
19,22,female,364,15,15,same,valid,clock,3,1,3,0.2954770542864935,1,f,same,0.650246570843592,0.14994204179351545,0.49993200699918816,0.035299271833537205,0.3533269103463681,1.001058702334376,4.708638446577879
19,22,female,365,105,105,same,valid,anti,4,2,3,0.31778260713417694,1,f,same,0.8788332657677529,0.25308970004408005,0.4996090402464688,0.03535122874927765,0.3532996490021105,1.0010590230558591,4.896622736346217
19,22,female,366,45,95,change,valid,clock,5,1,2,0.36108997911469487,1,f,same,1.193738357802431,0.14844404051388205,0.4995875518925459,0.03533390977690942,0.35330061116746947,1.0010404211975583,5.167406144001234
19,22,female,367,135,185,change,valid,clock,3,2,2,0.38505719109389247,1,j,change,0.6332819964795817,0.252181522494464,0.4995182760053467,0.03536052967820069,0.35324159837455227,1.0011016790422218,4.613285639878086
19,22,female,368,135,85,change,catch,anti,1,1,2,0.21588387052088365,1,j,change,1.297963609632916,0,0.5006558758777828,0.03531338358834546,0.35330638415780413,1.0010866051220546,6.722965726396069
19,22,female,369,105,55,change,valid,anti,4,2,2,0.18328122674756742,1,j,change,0.9910602033119176,0.2512707794782036,0.4999688899947614,0.03534032421111988,0.35327463270959925,1.0010795492448779,4.873616727304579
19,22,female,370,105,55,change,valid,anti,2,0,2,0.2259577391428138,1,f,same,0.5671270519774225,0.011203971348997088,0.4992636229749223,0.03535796390497126,0.3533352491108417,1.0010375347019362,4.484317991717944
19,22,female,371,15,65,change,valid,clock,2,2,1,0.31883008420845727,0,f,same,1.5472490416832443,0.25035165126506653,0.4991844047149243,0.035364057617243816,0.35330959137490936,1.0010641546032275,5.532252094953947
19,22,female,372,105,155,change,valid,clock,3,1,2,0.24827131003257819,1,j,change,0.5833735304531729,0.1470245296960434,0.4997485541862261,0.03533968276815358,0.35333589055426273,1.0010490806830603,4.507626120601799
19,22,female,373,45,45,same,valid,anti,2,1,2,0.16910564829413488,1,f,same,0.6186080165030035,0.14566173777172908,0.5000702380521034,0.035321401630881155,0.35333236261567436,1.0010862844005715,4.496418500767504
19,22,female,374,15,15,same,catch,anti,3,2,1,0.1860663739971642,0,j,change,0.5460226018994945,0,0.5001472112608099,0.035331985446646286,0.35335288880469307,1.001078587079519,5.980818917962097
19,22,female,375,135,185,change,valid,clock,2,1,2,0.22124216797601548,1,j,change,2.5551182693343435,0.14433619457993685,0.4999477223627764,0.035327495343153714,0.3533317211722533,1.0010615888295433,6.509961936748368
19,22,female,376,135,135,same,catch,clock,1,1,2,0.19561778696925103,1,f,same,6.736865163465154,0,0.5004272013056834,0.03533134400367999,0.35332338240823447,1.0010333653199268,12.093068947468055
19,22,female,377,135,185,change,valid,clock,5,1,2,0.12784512220787292,1,j,change,0.7600187044895392,0.14296477254590823,0.5001763969353306,0.03535636029619127,0.3532794435350297,1.0010590230558591,4.590645895018952
19,22,female,378,105,105,same,valid,clock,1,1,2,0.2219105520002813,1,f,same,1.4200655683443983,0.14159381992388406,0.49979313450330665,0.03531242142298652,0.35333140045077016,1.0010532500650697,5.320320477952009
19,22,female,379,15,15,same,valid,anti,1,0,1,0.19347376239920777,0,j,change,0.2564638251578799,0.009328084777000617,0.4998855023532087,0.03526623749803548,0.35334134282311425,1.0010824357400452,4.13120596491035
19,22,female,380,45,45,same,valid,clock,4,2,3,0.962529442252162,1,f,same,2.0603299969725413,0.2535518718572331,0.5001398346616952,0.03532717462121582,0.35325859662452785,1.0010282337725585,6.757891998891864
19,22,female,381,15,15,same,valid,clock,2,2,3,1.4068316288044116,1,f,same,0.7517828919349085,0.2526867421625242,0.5000586920709793,0.03533230616858418,0.3533022147757947,1.0010089904708366,5.815839675070492
19,22,female,382,15,325,change,valid,anti,2,1,2,1.0395145171469267,1,j,change,1.5880249572796856,0.14020487988318464,0.4995025606422132,0.035327495343153714,0.35334807797880785,1.0010423455278215,6.309582715409761
19,22,female,383,105,105,same,valid,clock,2,2,2,2.1615536144054204,1,f,same,1.6059510553027394,0.2518216496807061,0.5001776798221726,0.035330061116837896,0.35330798776612937,1.0010510050133234,7.523895691039797
19,22,female,384,135,185,change,catch,clock,3,0,1,0.24672767648644367,0,j,change,0.3173922888240668,0,0.499273244626238,0.03532043946597696,0.35334936086564994,1.0010981511036334,5.767520064349355
19,22,female,385,15,65,change,valid,clock,1,2,3,0.535204338209951,1,f,same,3.968758819847153,0.25095124600477997,0.5006205964909896,0.03529381956468569,0.35328393363897703,1.0011289403869341,8.20623014732655
19,22,female,386,135,85,change,valid,anti,5,2,3,1.2886937903149374,1,f,same,2.0514912276203177,0.2500702790595794,0.5006645353641943,0.03530600698923081,0.3533262689034018,1.0010975096602124,7.076784944553765
19,22,female,387,135,85,change,valid,anti,4,1,1,0.18711898261972237,0,j,change,0.3344152345371185,0.138831090660727,0.49922385348418175,0.03531530791815385,0.3532996490025653,1.0010795492448779,4.225287430788285
19,22,female,388,75,25,change,valid,anti,2,2,1,0.2137321486302426,0,j,change,0.2725653374250214,0.24919148981169245,0.4990201952036841,0.035334871942268364,0.35328970662976644,1.0010532500655245,4.1661976646328185
19,22,female,389,105,55,change,catch,anti,3,2,1,0.26448218839959736,0,j,change,0.5394173384720489,0,0.49924854905475513,0.035318515135713824,0.35332530673804285,1.001104886259327,5.991500233485112
19,22,female,390,165,115,change,valid,anti,5,0,2,0.5767878310489323,1,f,same,1.0045757365055579,0.011081478913946036,0.5002665197334863,0.03533358905542627,0.35329451745474216,1.0010904537825809,5.321047874770102
19,22,female,391,165,165,same,valid,clock,5,0,2,0.4837041303821934,1,f,same,5.814317850600219,0.009239973908233307,0.4995362364202265,0.03532653317824952,0.35328585796924017,1.00107185192428,10.113377045563084
19,22,female,392,105,155,change,valid,clock,1,1,2,0.42892967471107113,1,f,same,0.9784009970594525,0.1412012712928089,0.5006164271089801,0.03529702678133617,0.3533442293182816,1.0010667203769117,5.16790197975115
19,22,female,393,165,115,change,valid,anti,5,1,3,0.36791846484629787,1,f,same,0.4360291702801078,0.13984379626450338,0.5002681233422663,0.035413128037362185,0.35323454249692077,1.0010333653199268,4.532532726442241
19,22,female,394,135,185,change,valid,clock,4,1,1,0.5827016184898639,0,j,change,0.36367788251845923,0.13852619275915062,0.4992283435876743,0.03531049709317813,0.35331600580866507,1.001067361819878,4.70737608596346
19,22,female,395,45,45,same,valid,anti,5,0,1,0.36073365730499063,0,j,change,0.2937509300927559,0.007494281033562589,0.5003489452105896,0.035330702559804195,0.35340516644191666,1.0009528641730867,4.308699447845356
19,22,female,396,135,85,change,valid,anti,2,2,1,0.2793518086136828,0,j,change,0.28232072939817954,0.252320697824628,0.49981462285722955,0.03533519266375151,0.3532887444644075,1.001059985221218,4.248816216202613
19,22,female,397,165,165,same,catch,anti,4,0,2,0.9166598246033573,1,f,same,4.057704569129783,0,0.4997225757288106,0.0353143457537044,0.3532723876573982,1.001116432240451,10.196557501552434
19,22,female,398,15,65,change,catch,clock,3,1,2,1.2549618854332039,1,f,same,0.7536908653328283,0,0.49968088190735216,0.03536117112162174,0.35329868683720633,1.0010558158392087,7.239673402677454
19,22,female,399,105,105,same,catch,anti,1,2,2,0.3188037850291039,1,f,same,1.1063827467119154,0,0.500441954503458,0.03531370430982861,0.35330798776612937,1.0010766627497105,6.64056494486158
19,22,female,400,135,185,change,valid,clock,3,0,2,0.2172950460044376,1,f,same,0.9792332698730206,0.00915515651042828,0.49948363806151974,0.03533743771595255,0.3533102328183304,1.0010439491361467,4.872407927214226
19,22,female,401,75,125,change,valid,clock,5,0,1,0.14258581229796619,0,j,change,0.9408387129055882,0.00744439526521265,0.505905448676458,0.035350908027339756,0.3532980453937853,1.0010603059427012,4.832358446270064
19,22,female,402,165,115,change,valid,anti,3,1,2,0.5830258681294254,1,f,same,0.9375612578451182,0.14082814571434382,0.49925528421044874,0.035349945861980814,0.35330959137490936,1.001072493367701,5.202192261113851
19,22,female,403,15,15,same,valid,clock,2,1,1,0.2027073401650341,0,f,same,0.3006701800659357,0.13950638431032736,0.49973700820510203,0.0353448143150672,0.3532432019828775,1.0011061691457144,4.20223716215196
19,22,female,404,135,85,change,catch,anti,5,0,2,0.2591902803364974,1,f,same,1.008843259456171,0,0.4996629214924724,0.03528965018267627,0.35329708322842635,1.0010978303821503,6.450904563484983
19,22,female,405,135,85,change,valid,anti,1,0,1,0.27356983779145594,0,j,change,0.3169795199951295,0.00907345243252955,0.5004817239946533,0.03535219091418185,0.3533365319976838,1.0010731348111221,4.319970891298453
19,22,female,406,165,165,same,catch,anti,1,1,1,0.3140911003574729,0,j,change,1.0019166328843312,0,0.49990250060272956,0.03531627008351279,0.3533580203516067,1.0010253472773911,6.486356498848181
19,22,female,407,105,105,same,valid,anti,2,1,2,0.7963109307088416,1,f,same,6.033336134302772,0.14174835453795986,0.5008104637377073,0.03531145925808232,0.35329740395036424,1.0010875672874135,10.551306812642451
19,22,female,408,135,135,same,valid,clock,3,0,1,0.3991429674711071,0,f,same,0.2896537103652008,0.010737776395761622,0.4991077522286105,0.035327495343153714,0.3532820093087139,1.001095264608466,4.354296131326464
19,22,female,409,165,115,change,catch,anti,2,0,2,0.3641583236258157,1,f,same,2.3885533783541177,0,0.499478185793123,0.035315949361574894,0.3533317211722533,1.0010327238765058,8.029412745736863
19,22,female,410,135,135,same,valid,clock,1,0,2,0.25150354333345604,1,j,change,1.0312841568611475,0.012335744777068613,0.5000548434109078,0.03536117112162174,0.3533365319976838,1.001057419447534,4.979054948607427
19,22,female,411,135,135,same,valid,anti,4,0,1,0.21126547802941786,0,f,same,0.22234865784366775,0.010630408367031136,0.5004169382109467,0.035297668225211964,0.3532993282806274,1.001093981721624,4.154720638569415
19,22,female,412,165,115,change,catch,anti,2,1,2,0.20650885448458212,1,f,same,0.8059114141001373,0,0.5001077624915524,0.03530889348439814,0.35331760941744506,1.00106864470672,6.227255058422543
19,22,female,413,15,15,same,valid,anti,3,1,2,0.5779558994831859,1,j,change,0.821630946822097,0.14047236802444912,0.5009179055077766,0.035330061116837896,0.3533204959126124,1.0010619095510265,5.12107436638189
19,22,female,414,165,215,change,valid,clock,2,0,2,0.25020718621863125,1,j,change,1.1080245210982866,0.01220607609896654,0.5004608770841514,0.035328778229995805,0.353294196733259,1.0010567780041129,5.073656945805396
19,22,female,415,15,325,change,valid,anti,2,2,2,0.14825360619488492,1,j,change,0.8962805262913207,0.2551577327161996,0.500332588404035,0.03529125379100151,0.3532938760113211,1.0011109799715996,4.696686110954033
19,22,female,416,15,65,change,catch,clock,2,1,2,0.11025065042394999,1,f,same,3.1987060162259695,0,0.5002155249826501,0.03531594936202964,0.35331536436569877,1.001044590579113,8.476742865866072
19,22,female,417,15,65,change,valid,clock,3,1,1,0.18205863562388913,0,j,change,1.0095972761746452,0.13919093254224668,0.5004166174894635,0.03538907390930035,0.353295800342039,1.0010667203769117,4.979502034658253
19,22,female,418,75,125,change,valid,clock,5,2,1,0.23629716533332612,0,f,same,0.3315441338718301,0.254417521410005,0.5000766524863138,0.03526110595112186,0.3533567374647646,1.001091736669423,4.2494797894009935
19,22,female,419,75,125,change,catch,clock,3,0,2,0.8579751299566851,1,f,same,1.4885204081633674,0,0.4993896666032924,0.0353586053483923,0.3532727083793361,1.0010975096597576,7.487505323980258
19,22,female,420,135,135,same,valid,clock,4,1,2,0.15841727689303298,1,f,same,0.5578755137958069,0.14138304116742528,0.4997799849134026,0.03532043946552221,0.35333492838935854,1.0010705690369832,4.413685130828981
19,22,female,421,45,45,same,valid,clock,3,0,2,0.16658926582977074,1,j,change,0.732678783105257,0.010526315900538263,0.49975849655902493,0.035325571013345325,0.3533073463227083,1.001047477074735,4.5902908560960896
19,22,female,422,135,85,change,catch,anti,3,1,2,0.24822737115982818,1,f,same,1.6099889415154394,0,0.49969627654945725,0.03533872060279464,0.3533259481814639,1.001059985221218,7.087387041816783
19,22,female,423,15,325,change,valid,anti,3,1,1,0.2273660281307457,0,f,same,0.4061593961196195,0.14013212636720396,0.4996786368556059,0.03529414028616884,0.35334711581390366,1.0010170085133723,4.390546343002825
19,22,female,424,165,165,same,valid,anti,4,0,2,0.1616552831842455,1,j,change,0.7154371051915405,0.00884540493576308,0.4996568277801998,0.0353448143150672,0.3533342869459375,1.0010619095510265,4.578793303843668
19,22,female,425,135,85,change,valid,anti,5,0,1,0.2732680386711763,0,f,same,0.4206906549393352,0.007261805109968489,0.49929280864944303,0.0353448143150672,0.3532839336385223,1.0010481185186109,4.472200484417954
19,22,female,426,45,355,change,valid,anti,3,0,1,0.2568830084205729,0,f,same,0.4436931360428389,0.00877459371071751,0.5001545878599245,0.03530279977212558,0.35329387601177586,1.001034648206769,4.425848180610046
19,22,female,427,135,85,change,valid,anti,4,2,1,0.7566196959041918,0,f,same,1.9794972238328228,0.25713551805457396,0.49998941618423487,0.03533583410717256,0.3533150436442156,1.0010497221264814,6.510661430777873
19,22,female,428,45,355,change,catch,anti,1,0,1,1.161161692486985,0,f,same,1.4440677389893608,0,0.49976106233316386,0.03534577647997139,0.35335962396038667,1.0010352896497352,7.828950778199214
19,22,female,429,45,45,same,catch,anti,1,2,2,0.36403580793603396,1,j,change,0.8409361481581072,0,0.5007334905299103,0.03531819441377593,0.35330157333237366,1.001059985221218,6.464187573445088
19,22,female,430,165,215,change,valid,clock,3,1,1,0.16339487768982508,0,j,change,1.0819703730121546,0.14223770809933967,0.49967350530869226,0.035328457508512656,0.35331600580866507,1.0010734555326053,4.99057751715236
19,22,female,431,165,215,change,valid,clock,3,2,2,0.4441184130178044,1,j,change,0.777418177479376,0.2601268840467747,0.49974278119589144,0.0352854808002121,0.35335866179502773,1.0010317617116016,4.9202384373411405
19,22,female,432,45,355,change,valid,anti,3,1,1,0.2504496518245105,0,f,same,0.26425864537441157,0.1442067055092366,0.4999958306179906,0.03532621245631162,0.35331215714859354,1.0010609473861223,4.237741054430444
19,22,female,433,105,155,change,catch,clock,5,2,2,0.9793686144312232,1,j,change,1.1902482642544783,0,0.49972033067706434,0.03532043946552221,0.35332402385120076,1.0010577401694718,7.392931550291905
19,22,female,434,165,165,same,valid,anti,3,1,2,0.30236455281146846,1,j,change,0.945001680581754,0.14610828009390353,0.5003053270593227,0.035315307918608596,0.35330157333237366,1.0010397797536825,4.979536672602535
19,22,female,435,15,65,change,valid,clock,3,0,2,0.36654545524515925,1,f,same,0.8240244928751963,0.010327272816381988,0.4997469505783556,0.03534192781944512,0.3532900273512496,1.0010885294523177,4.873351811179873
19,22,female,436,75,75,same,catch,anti,5,1,2,0.14322212415254398,1,f,same,3.5138789108805213,0,0.49916484069126454,0.03535892606987545,0.3532990075586895,1.001049722126936,8.81734289768201
19,22,female,437,75,75,same,valid,clock,4,1,3,0.734873160981806,1,f,same,0.6940770399182838,0.14500334713855928,0.5006189928822096,0.03532043946552221,0.3533089499314883,1.0010663996549738,5.144733685528536
19,22,female,438,135,185,change,valid,clock,4,0,2,0.17360537375634522,1,j,change,1.0855358361600338,0.00870616715964631,0.49983963914974083,0.03534738008875138,0.3532659732236425,1.0010734555326053,4.908450311228535
19,22,female,439,135,135,same,valid,anti,5,0,2,0.1333958526834067,1,j,change,4.333332798797073,0.0071795221862576974,0.49959268343991425,0.03532492956946953,0.3533002904455316,1.0010391383107162,8.135386251558884
19,22,female,440,105,155,change,catch,clock,3,0,2,0.10318162341627612,1,f,same,0.41971437808206247,0,0.49970525675689714,0.035352511635664996,0.3532996490025653,1.0011010375988008,5.6976040164622646
19,22,female,441,15,15,same,valid,clock,5,2,2,0.1292765031585077,1,f,same,0.851142474842618,0.2593068425508965,0.5001901879686557,0.03533904132427779,0.3533144022007946,1.001068323985237,4.697028641730867
19,22,female,442,135,185,change,catch,clock,3,1,1,0.16590869438050504,0,j,change,0.33751051967192325,0,0.49934957639061395,0.03535187019224395,0.35331889230428715,1.001046194187893,5.720271343388049
19,22,female,443,165,165,same,valid,clock,4,0,2,0.3196629984659012,1,j,change,0.6812202690980484,0.005718578034759114,0.5005230970941739,0.03530889348439814,0.3533342869459375,1.0010635131598065,4.708776998352732
19,22,female,444,105,155,change,valid,clock,5,2,2,0.09060067325890486,1,f,same,0.7497883236774214,0.2585200444429547,0.4997761362528763,0.03533904132427779,0.3533326833371575,1.0010397797541373,4.519325727525029
19,22,female,445,105,105,same,valid,anti,2,0,2,0.1049539315349648,1,f,same,0.9481995966607428,0.004296328556601475,0.5000237334061239,0.03531210070150337,0.35326885971880984,1.001092378112844,4.720230932453433
19,22,female,446,135,185,change,catch,clock,2,2,1,0.12837142651869726,0,f,same,0.37495606112679525,0,0.5001571536331539,0.035337758437435696,0.3533127985920146,1.0010340067633479,5.720875903793512
19,22,female,447,75,75,same,valid,clock,1,0,2,0.2514907144654899,1,j,change,1.4709073345202341,0.002843880218842715,0.5010468356317688,0.035223902233610715,0.3533144022003398,1.001055815838754,5.428129794789129
19,22,female,448,105,105,same,valid,anti,3,1,1,0.19217900889316297,0,f,same,0.30513238108915175,0.14391816624326653,0.49924630400300885,0.03527521770593012,0.3534009970594525,1.0010635131598065,4.166246414331454
19,22,female,449,15,15,same,valid,anti,2,0,2,0.186441297665624,1,j,change,1.2684376491356488,0.0013790491984921605,0.5000606164012424,0.03456674346853106,0.3533317211722533,1.00108083213172,5.084338582050805
19,22,female,450,75,125,change,valid,clock,2,0,1,1.110679455337504,0,j,change,1.9064583087447318,0,0.5003390028377908,0.035334871942268364,0.35331055353981355,1.0010817942970789,8.276855952338337
19,22,female,451,15,15,same,catch,clock,3,1,2,0.22399331872566108,1,j,change,0.6235426405919497,0,0.508788736767201,0.035347059366358735,0.35331119498277985,1.00106864470672,6.047618833804336
19,22,female,452,75,75,same,catch,anti,4,1,2,0.22737372545179824,1,j,change,0.6420399439630273,0,0.5003418893329581,0.03530761059755605,0.3533589825174204,1.0010728140887295,6.051665700225385
19,22,female,453,105,55,change,valid,anti,3,1,2,0.20059634992958308,1,j,change,0.6617694601090989,0.14576948148431498,0.4994688848628357,0.03532717462076107,0.35333653199722903,1.0010606266641844,4.519349460931153
19,22,female,454,45,45,same,valid,anti,4,1,3,0.1807699758301169,1,f,same,0.9634717226090288,0.14469933769624432,0.49967446747359645,0.03534449359358405,0.353302856218761,1.0010429869707878,4.778254619675863
19,22,female,455,135,185,change,catch,clock,1,1,1,0.3008558779310988,0,f,same,0.4704711530075656,0,0.5000635028973193,0.035339041324732534,0.3533144022003398,1.0010529293431318,5.933284433964218
19,22,female,456,15,15,same,valid,clock,3,2,3,0.18992978760525148,1,f,same,0.8902814268776638,0.2577628263415739,0.5004730645086966,0.03533455122033047,0.3532794435350297,1.0010904537830356,4.779133397135411
19,22,female,457,45,95,change,catch,clock,3,0,2,0.2917092157458683,1,j,change,1.3549369332849892,0,0.4999753044285171,0.03532396740411059,0.3533127985920146,1.0010647960461938,6.81627681874852
19,22,female,458,165,165,same,valid,clock,3,2,2,0.21449578700048733,1,j,change,0.6738488015271287,0.25703058129525225,0.5000493911420563,0.03535475668741128,0.35329034807273274,1.0011212430663363,4.590487458498501
19,22,female,459,135,135,same,valid,clock,5,0,1,0.20198603705921414,0,j,change,1.4666574512639272,0.0012795606054266384,0.5003912804750144,0.0353220430743022,0.3533127985920146,1.0010510050133234,5.356853245446473
19,22,female,460,45,95,change,valid,clock,2,2,2,0.17366631087952555,1,f,same,1.0882112965873603,0.2563190701050742,0.4993181456648017,0.03534770081023453,0.3533047805494789,1.001070569037438,4.931280564777808
19,22,female,461,165,215,change,valid,clock,5,2,3,1.294139644794086,1,j,change,0.7864452104704469,0.25562436442828795,0.5000763317648307,0.035312742144924414,0.35334070138014795,1.0010474770751898,5.780584662831643
19,22,female,462,105,105,same,valid,clock,4,1,2,0.15092906662357564,1,f,same,0.8182268066893812,0.14359229948611946,0.4997607416107712,0.035302799771670834,0.3533576996296688,1.0010692861505959,4.566755335526068
19,22,female,463,105,105,same,valid,clock,2,0,2,0.12470333242617926,1,f,same,0.8414137027712059,0.002609625590092174,0.49977709841823525,0.03534609720099979,0.35327976425651286,1.0010811528536578,4.6143196466418885
19,22,female,464,45,45,same,valid,clock,5,1,2,0.12281780954799615,1,j,change,0.7632031502571408,0.14248848884808746,0.499227702144708,0.0353663026689901,0.3533791879845012,1.0009705038664833,4.49534087585198
19,22,female,465,135,85,change,valid,anti,2,1,2,0.12140791695037478,1,j,change,0.6597604593762298,0.1413756348985959,0.4999223853483272,0.035315628640091745,0.35329323456790007,1.001077304192222,4.425229829171258
19,22,female,466,135,135,same,valid,clock,3,2,2,0.19134352886158013,1,j,change,1.05541237113448,0.2549427967264771,0.5006071261796023,0.03529830966817826,0.3533076670446462,1.0010949438865282,4.885806396986482
19,22,female,467,165,165,same,catch,clock,4,2,2,0.15359041529609385,1,j,change,0.6543848429491845,0,0.5000654272271277,0.03529670605985302,0.3533384563279469,1.0010259887203574,5.968867544503155
19,22,female,468,75,25,change,valid,anti,5,1,2,0.1666155650091241,1,j,change,0.8567406721294901,0.14024164383551785,0.5001244400200449,0.0353294196738716,0.3533269103463681,1.0010651167685864,4.685036215893888
19,22,female,469,105,55,change,valid,anti,2,1,1,0.9267029039428962,0,f,same,0.28300514950751676,0.13910956673971933,0.49970397387005505,0.035344172871191404,0.35330702560077043,1.0010365725365773,4.908416956172005
19,22,female,470,75,75,same,catch,clock,4,1,2,0.5541804790809692,1,f,same,1.4745045491163182,0,0.4994983912592943,0.0353146664747328,0.35330702560077043,1.0010808321321747,7.251383914139296
19,22,female,471,165,165,same,catch,clock,2,2,2,0.14958331836623984,1,j,change,0.715111251943199,0,0.5008171988938557,0.03532011874449381,0.3533108742622062,1.0010657582115527,6.099059066674272
19,22,female,472,45,355,change,valid,anti,2,1,2,0.8573038594367972,1,j,change,1.0481605327568104,0.14105933933645537,0.5001895465247799,0.03532364668262744,0.3533156850871819,1.0010394590326541,5.592008641526263
19,22,female,473,165,115,change,valid,anti,2,0,2,0.2369437402821859,1,j,change,0.7488983209577782,0.0011826946012618023,0.4994797894014482,0.0353361548295652,0.35331664725254086,1.0010702483150453,4.602248643988787
19,22,female,474,165,115,change,valid,anti,4,1,1,0.2883486937644193,0,j,change,0.7727362820915005,0.13994287028880242,0.4992783761726969,0.03536918916415743,0.35332915539856913,1.0010628717163854,4.76633595983003
19,22,female,475,105,155,change,valid,clock,1,0,1,0.21581010452882765,0,f,same,0.13685291189631243,0,0.5002697269501368,0.03534288998434931,0.3533214580775166,1.0010712104813138,5.627713626310651
19,22,female,476,135,185,change,valid,clock,3,1,2,0.11541491124989989,1,j,change,0.6496076932153301,0.14182897309420395,0.49980660481469386,0.035361812564588035,0.35330317694024416,1.001049080683515,4.460862010129858
19,22,female,477,45,95,change,valid,clock,5,0,1,0.10784812416295608,0,j,change,0.2937483643199812,0.0010883291441477483,0.49967254314378806,0.03530023399889615,0.3533330040590954,1.0010785870799737,4.178244613158313
19,22,female,478,135,85,change,valid,anti,1,1,2,0.5240894069474962,1,j,change,0.7631980187097724,0.1407550465668408,0.4998075669800528,0.03536309545233962,0.3533509644748847,1.0010869258439925,4.943712058622623
19,22,female,479,165,115,change,valid,anti,4,2,2,0.8277605799676166,1,f,same,1.6013788467362247,0.25421515102340714,0.4999833224719623,0.035356681018129166,0.35328425436091493,1.0010506842918403,6.098556175047634
19,22,female,480,165,165,same,valid,anti,5,1,2,0.23319257926959835,1,j,change,1.252685723522518,0.1396593620415037,0.4994361712497266,0.0352113940871277,0.3533445500397647,1.0011222052316953,5.072517100881669
