subject,age,gender,ntrial,memory_ori,test_ori,type,trial_type,which_change,trial,quest,pas,pas_rt,vis,test_key,test,test_rt,contrast,fix_dur,target_dur,mask_dur,retention_dur,trial_dur
1,24,male,1,15,325,change,valid,anti,3,0,2,2.106068419982421,1,j,same,1.5083534906275418,0.2937466287016083,0.5067633575349646,0.035329947806076234,0.353314872651481,1.0010769800173875,6.900647150172517
1,24,male,2,165,165,same,valid,anti,1,2,2,2.0987617616287935,1,f,change,4.65543727377144,0.8991111782755874,0.5044432641925596,0.03530685591749716,0.3532959501321784,1.0010946196539408,10.054209490894209
1,24,male,3,105,105,same,valid,anti,5,2,2,0.729994566991536,1,f,change,1.723442885100667,0.8707740026699553,0.5051417938166196,0.03532930636447418,0.35330845823773416,1.0010721692069637,5.780299925143481
1,24,male,4,135,135,same,catch,clock,4,2,2,2.290409361451566,1,f,change,2.2692138943889404,0,0.504656864160097,0.035356888342448656,0.3532847249084625,1.001039134977873,7.899467539540183
1,24,male,5,105,105,same,valid,clock,5,0,2,0.3912500344772525,1,j,same,12.188245074211409,0.22313666311592528,0.505312096493526,0.03532802348172481,0.35330493031051446,1.0010298340785084,15.87312867505807
1,24,male,6,15,15,same,valid,anti,1,2,3,2.3081096146283926,1,f,change,1.6801305204844539,0.8494525789985719,0.5055824640198807,0.03531294961021558,0.3533126276065559,1.0010651133520696,7.193794824722772
1,24,male,7,135,135,same,valid,anti,5,1,2,1.6525655408727289,1,f,change,2.448821319457693,0.6679034751743146,0.5047572497305737,0.0353562469008466,0.3533260978747421,1.0010372106539762,7.298369327814271
1,24,male,8,135,185,change,valid,clock,4,2,3,1.2073087109656626,1,j,same,1.5024076500858428,0.8325504068135159,0.505992345038976,0.035332513571120217,0.35332224922694877,1.0010606232626742,5.9098896785030774
1,24,male,9,45,355,change,catch,anti,4,1,2,0.9411198539564793,1,f,change,1.543723528517603,0,0.5060109468381597,0.03533219285100131,0.3533074960760132,1.0010417007429169,5.580905958925996
1,24,male,10,105,105,same,valid,anti,4,2,2,1.1808486140698733,1,f,change,1.7770927184219545,0.8180576708193182,0.5054176135940907,0.035332513571574964,0.35327831049517044,1.0010975061400131,6.086098747329288
1,24,male,11,135,135,same,catch,anti,5,1,2,1.719940294639855,1,j,same,1.46850138134414,0,0.5058743198314914,0.035350794649275485,0.35331326904815796,1.0010580574976302,6.404891888268594
1,24,male,12,45,355,change,valid,anti,1,0,3,0.5269642697926429,1,j,same,2.0013736466385126,0.1618813254764418,0.5057245432776654,0.03527253880565695,0.3533655465175798,1.0010583782182039,5.698096009657547
1,24,male,13,15,15,same,valid,clock,5,0,3,1.3234589852781937,1,f,change,1.4400630793415985,0.10730205025175515,0.5052893253255206,0.03533732438154402,0.35335784922153834,1.001048756597811,5.838717591977911
1,24,male,14,105,105,same,valid,anti,2,1,2,0.49458559361210064,1,j,same,3.3863757217018247,0.6421270184668036,0.5054035018847571,0.0353645856384901,0.3532933843666797,1.0010558124527051,7.040524019092118
1,24,male,15,15,325,change,catch,anti,4,1,2,1.0704902343759386,1,j,same,1.190455801805001,0,0.505414727108473,0.03534598383930643,0.3533081375171605,1.0010307962402294,5.320891937018132
1,24,male,16,105,105,same,catch,anti,2,0,1,0.8743929559477692,0,j,same,5.97875065186463,0,0.5057777829092629,0.0352975550181327,0.3533097411204835,1.0010801872240336,10.008264330280781
1,24,male,17,45,45,same,valid,anti,5,0,2,1.8108896214148444,1,f,change,2.0085677320366813,0.058451918880608356,0.5058444928095014,0.03533026852664989,0.35329146004232825,1.0010465115533407,6.934928020659754
1,24,male,18,165,165,same,valid,anti,2,2,3,0.9397776379437346,1,j,same,1.6502079232118376,0.8059244869617366,0.5054647595334245,0.03528504691166745,0.35326772671260187,1.001086280916752,5.721818755616823
1,24,male,19,15,15,same,valid,anti,5,1,3,0.9085160318641101,1,f,change,1.7819176402140329,0.6207099421952555,0.5049881686140907,0.03529691357698539,0.35331968346145004,1.0010558124531599,5.7558462567726565
1,24,male,20,75,125,change,valid,clock,1,1,2,2.7053228085637784,1,j,same,3.57693479556292,0.602710773216857,0.5057970261495939,0.03530429015199843,0.35333315372963625,1.001010911558751,9.454883581603099
1,24,male,21,75,125,change,catch,clock,4,0,1,0.9763150990802387,0,f,change,2.561119738497382,0,0.5051603956153485,0.03534502167713072,0.3533119861654086,1.0010516430843381,6.710378969960402
1,24,male,22,75,125,change,catch,clock,1,0,2,0.8899014040507609,1,j,same,2.1059529605408898,0,0.5056870189591791,0.03529402709045826,0.353335719495135,1.0010381728156972,6.228047151070314
1,24,male,23,15,15,same,catch,anti,5,1,2,0.49702018423477057,1,j,same,1.6220685328762556,0,0.5054615523263237,0.03527991538112474,0.3533193627408764,1.0010891674023696,5.332793881162615
1,24,male,24,75,125,change,valid,clock,2,0,1,0.2629685007395892,0,j,same,1.8677258146144595,0.013269266322788076,0.5051799595767079,0.035339248705440696,0.3533158348136567,1.0010365692123742,5.285600796413746
1,24,male,25,165,165,same,valid,clock,4,2,3,2.382971592487138,1,f,change,1.4686498750152168,0.7953550835787786,0.5052421793866415,0.03534919104640721,0.3532741411263487,1.0010917331678684,6.9929537668322155
1,24,male,26,15,15,same,catch,anti,3,2,2,1.8420874040803028,1,f,change,2.3294708942780744,0,0.5056151775283979,0.03528600907384316,0.3533090996793362,1.0010962232572638,7.252824426599545
1,24,male,27,45,95,change,valid,clock,3,1,2,0.4295899457915766,1,j,same,3.1703684246649573,0.5868990059864885,0.505441346923817,0.03534470095701181,0.3531381555612825,1.001209758375353,6.734094660065239
1,24,male,28,105,55,change,valid,anti,3,2,3,0.45089509932404326,1,j,same,1.984089688894528,0.785890471362836,0.5057081865234068,0.03531391177239129,0.3533084582381889,1.00104330434624,5.544933286892956
1,24,male,29,135,135,same,valid,clock,1,1,3,1.1762433859380508,1,f,change,1.082210971340828,0.5732676194452382,0.5053823343205295,0.035335079336618946,0.3533283429196672,1.0010538881288085,5.34473334962604
1,24,male,30,105,155,change,catch,clock,3,2,1,0.859350514981088,0,j,same,1.4698355793402698,0,0.5047238947804544,0.03531262888964193,0.3533600942660087,1.0010019313799603,5.473342980611051
1,24,male,31,135,135,same,valid,anti,4,1,4,2.33537055104307,1,f,change,1.1613218566649266,0.5606206171671305,0.505844172088473,0.03527318024680426,0.3533475861599982,1.0010837151512533,6.593281286782712
1,24,male,32,135,85,change,valid,anti,3,0,2,0.5708657982836485,1,j,same,1.6111107903902848,0.052539868034684134,0.5051789974140775,0.03530108294535239,0.3533392474223547,1.0010070629109578,5.320518297434774
1,24,male,33,15,15,same,catch,clock,1,2,1,0.2950899589409346,0,j,same,6.65523008821765,0,0.505641476623623,0.0353145532135386,0.35330717535543954,1.0010705656036407,10.12599671966882
1,24,male,34,165,115,change,catch,anti,3,2,2,0.204745511353849,1,j,same,1.7336161448220082,0,0.5061408387100528,0.035309100962422235,0.3532949879700027,1.0010789043412842,5.109200578066975
1,24,male,35,45,355,change,valid,anti,1,1,4,0.5964682881021872,1,j,same,1.3490031039345922,0.5492597106398625,0.5060962585371271,0.03533283429169387,0.353314872651481,1.0010603025421005,5.110024188752959
1,24,male,36,135,135,same,valid,anti,4,0,2,1.9878065207644795,1,j,same,8.006738662043063,0.02120394933507619,0.5049092713288701,0.03536234059401977,0.35328632851178554,1.0010987890227625,13.199011025735217
1,24,male,37,105,155,change,valid,clock,4,1,3,0.560643789020105,1,j,same,1.1113186173861322,0.5389060537954814,0.5056530225674578,0.03534213519151308,0.35330140238329477,1.0010513223633097,4.850533262261706
1,24,male,38,15,65,change,valid,clock,1,0,1,1.1158289121985945,0,f,change,1.9298343349441893,0,0.5048409578262181,0.03534309735323404,0.35330942039990987,1.0010689620003177,6.144699545666754
1,24,male,39,45,355,change,valid,anti,4,2,4,0.26598519938261234,1,j,same,3.2455684421124715,0.7772360838720441,0.5056183847354987,0.035296272134928586,0.35330685463441114,1.0010904502855738,6.675899573377592
1,24,male,40,45,95,change,valid,clock,5,2,4,0.5464365046836974,1,j,same,1.3758657052744638,0.7691982899849916,0.5047537218028992,0.0353184018617867,0.35328761139408016,1.001063189028173,5.072555996226129
1,24,male,41,165,115,change,valid,anti,1,2,4,0.2544799867096117,1,j,same,2.314295354232854,0.7616601010482955,0.5055436568186451,0.03535464329797833,0.353318079858127,1.00104779443609,5.68656481861035
1,24,male,42,135,135,same,valid,clock,2,1,4,0.4925846173387072,1,f,change,1.3456477242625624,0.5293499100613233,0.5051100424698234,0.035322250509580044,0.3533135897687316,1.0010586989387775,4.896821273273872
1,24,male,43,75,25,change,valid,anti,5,2,4,0.4585824531154685,1,j,same,2.8257229525033836,0.7544880294189762,0.5053204352307148,0.035319043302934006,0.35331679697537766,1.001064792631496,6.4159436019112945
1,24,male,44,15,325,change,valid,anti,2,0,1,0.8825091132775924,0,f,change,2.8297682023412563,0.018463981565641052,0.5054666838573212,0.03533989014704275,0.35329595013172366,1.0010773007379612,6.79272047461518
1,24,male,45,75,125,change,catch,clock,5,1,2,0.28477943077223244,1,j,same,2.6571714104461535,0,0.5055439775392188,0.03535817122519802,0.35330621319326383,1.0010731313691394,6.086533644560859
1,24,male,46,45,45,same,catch,clock,5,1,2,0.6940129147797052,1,f,change,1.1355785704708978,0,0.5058483414572947,0.035320646906257025,0.353273178964173,1.0010798665030052,4.909090763308541
1,24,male,47,15,65,change,valid,clock,3,2,2,1.125551559376163,1,j,same,3.1250833071949273,0.747608202286383,0.505825891009863,0.03528665051544522,0.3533337951712383,1.0010673583969947,7.382181978191966
1,24,male,48,15,65,change,valid,clock,5,1,4,0.3044553232898579,1,j,same,1.2193857685974763,0.5204525036435717,0.5053432063987202,0.03531166672746622,0.3533084582381889,1.0010747349724625,4.696533458542945
1,24,male,49,105,55,change,valid,anti,1,0,2,1.1391039320992604,1,f,change,8.947759734032843,0.03961598371620956,0.5054496856614605,0.035324174833931465,0.35328151770136174,1.0010962232572638,13.258985791432679
1,24,male,50,105,105,same,valid,anti,1,1,3,1.2238505210748372,1,f,change,2.0674328042086927,0.5121028471062801,0.5053050406381772,0.035308138800246525,0.3533203249030521,1.0010724899275374,6.368858279307915
1,24,male,51,135,185,change,valid,clock,1,1,3,1.179783500717349,1,j,same,1.5737696032497297,0.5041910219123238,0.5122191368891436,0.035329947806076234,0.35329883661779604,1.0010497187599867,5.928388526153867
1,24,male,52,75,75,same,valid,clock,3,2,3,0.5459772326807979,1,f,change,1.313576939926861,0.7414695786899705,0.5048765578203529,0.03529563069378128,0.35332224922694877,1.0010740935308604,4.932227552600125
1,24,male,53,45,45,same,catch,clock,5,2,2,0.5894887648337317,1,f,change,1.2858092648502861,0,0.5048675776415621,0.03533187212997291,0.3533135897687316,1.0010388142572992,4.943702296809079
1,24,male,54,135,135,same,valid,clock,4,2,3,0.8237675185650915,1,f,change,1.1521707337255975,0.7354772767051269,0.5056084423940774,0.03525906853747074,0.3533645843554041,1.0010474737155164,5.038166722151345
1,24,male,55,165,115,change,valid,anti,3,2,2,0.1799781781655838,1,j,same,1.5079930005917959,0.7300343617523626,0.5057139594955515,0.03537324509670725,0.3533129483275843,1.001063830469775,4.802816440655079
1,24,male,56,135,185,change,valid,clock,5,2,3,0.2934741681947344,1,j,same,1.610487950845254,0.7246926053272583,0.5052190874985172,0.03535368113580262,0.3533225699475224,1.0010362484918005,5.09736085373288
1,24,male,57,165,115,change,valid,anti,5,1,3,0.20509862481367236,1,j,same,1.4291893656723005,0.4966482545377008,0.5049987523966593,0.0353562469008466,0.35331391048930527,1.0010224575030406,4.790716291135141
1,24,male,58,105,105,same,valid,clock,3,2,3,0.8934809674733515,1,f,change,1.61844887936968,0.7193864141948914,0.5053656568452425,0.035344380236438155,0.35329049788015254,1.0010481151566637,5.567932166295122
1,24,male,59,105,105,same,catch,anti,4,0,2,0.5398030390210806,1,f,change,1.2431405866236673,0,0.50576816128887,0.035317439700065734,0.3533046095899408,1.0010535674082348,4.849791114625987
1,24,male,60,105,105,same,valid,clock,3,1,2,0.6988958870138049,1,f,change,1.8523937628810927,0.48975994911532755,0.5061591197886628,0.0353437387948361,0.3532991573383697,1.0010705656036407,5.639205279831913
1,24,male,61,75,75,same,valid,clock,5,0,1,0.36092846068822837,0,j,same,3.1453156500783734,0.02013695302674634,0.5060638657491836,0.03530685591749716,0.35334469967438054,1.0010737728107415,6.676022409394591
1,24,male,62,135,85,change,valid,anti,3,1,3,0.1013939161853159,1,j,same,1.7584177951225684,0.48316913970339354,0.5052389721799955,0.03532802348172481,0.3533036474277651,1.0010833944306796,4.990633032048208
1,24,male,63,165,115,change,catch,anti,4,1,2,0.28196446543233833,1,j,same,4.222142683495804,0,0.5057062621995101,0.03536137843184406,0.35332032490259735,1.0010356070501985,7.641859884835412
1,24,male,64,135,85,change,catch,anti,1,0,2,0.443555406741325,1,f,change,1.3145429505916582,0,0.504719404691059,0.03533379645386958,0.3533065339138375,1.0010750556930361,4.849547366914976
1,24,male,65,45,355,change,catch,anti,5,1,2,0.9753301658956843,1,f,change,1.5899133990042174,0,0.5052158802914164,0.03534534239815912,0.3532953086901216,1.001083073710106,5.745018726880062
1,24,male,66,75,75,same,valid,clock,2,2,3,0.6926819239906763,1,f,change,1.2244598903521364,0.7145356887142028,0.505543015377043,0.03533411717489798,0.35327093391970266,1.0010641511903486,5.050178032045096
1,24,male,67,165,215,change,catch,clock,3,2,2,0.027734320126455714,1,j,same,1.7349086491308299,0,0.5055539198801853,0.03525425772750168,0.35337901678622075,1.001062226866452,5.002855055423879
1,24,male,68,75,75,same,catch,anti,5,2,1,0.9300444069845071,0,f,change,1.2171747202833103,0,0.5058557180327625,0.035314873934112256,0.35330781679658685,1.00107184848639,5.298029684622634
1,24,male,69,45,355,change,valid,anti,2,1,3,0.32938622402070905,1,j,same,3.1604697018387924,0.47675758368211424,0.5051145325592188,0.03535400185637627,0.3532882528356822,1.00104779443609,6.604787782338462
1,24,male,70,75,125,change,valid,clock,5,2,3,0.3200827587625099,1,j,same,6.25829720415004,0.7096705005672426,0.5045186335501057,0.03532513699565243,0.35330396814833875,1.0010785836207106,9.72444994801117
1,24,male,71,135,185,change,valid,clock,3,0,1,0.5367744737136491,0,f,change,3.345632008949451,0.03705508680078967,0.5058675846976257,0.03531423249296495,0.3533161555337756,1.0010394556989013,7.229027594165473
1,24,male,72,135,185,change,valid,clock,1,2,3,1.3895848527477028,1,j,same,1.0830095658147911,0.705189349860389,0.5057062621995101,0.0352555406097963,0.35330236454501573,1.0010291926369064,5.686713633002
1,24,male,73,15,65,change,valid,clock,4,1,3,0.39914136661673183,1,j,same,8.24727627969196,0.4708465232986379,0.5046004173218535,0.03535207753202485,0.3533074960760132,1.0010583782182039,11.809700389162572
1,24,male,74,45,45,same,catch,clock,3,1,1,0.7810747862877179,0,f,change,1.4855720598416156,0,0.5051405109338702,0.035304931593600486,0.35330140238329477,1.0010651133525243,5.391794297458091
1,24,male,75,75,25,change,valid,anti,4,0,2,0.43720706175599844,1,f,change,1.6800827331048822,0.05332004784081218,0.5051825253417519,0.03533155140939925,0.3533126276065559,1.001046190832767,5.179043277405981
1,24,male,76,45,355,change,catch,anti,1,1,1,1.4604763086849744,0,f,change,3.3865392892444106,0,0.5057781036302913,0.035393450498759194,0.35329947805894335,1.0010612647042763,7.9829479233012535
1,24,male,77,165,165,same,valid,anti,3,1,3,0.8854584605792297,1,f,change,2.0086543266179433,0.465090957702761,0.5056764351766105,0.03534630456033483,0.3532924222040492,1.0010529259670875,5.957019902000411
1,24,male,78,135,185,change,catch,clock,2,1,1,0.043793445624032756,0,j,same,2.019984746525097,0,0.5057453901213194,0.03530942168299589,0.35328857355625587,1.0010590196593512,5.226933288175587
1,24,male,79,75,125,change,valid,clock,5,0,1,0.04426394284973867,0,j,same,2.938090326486872,0.03774161207888149,0.5058185144343952,0.035306214475895104,0.35332417355084544,1.0010195710169683,6.087081114747889
1,24,male,80,45,45,same,valid,clock,3,0,2,0.8296710239778804,1,f,change,1.3316505119660178,0.051470795517411405,0.5051764316490335,0.035333155012267525,0.3532709339192479,1.0010904502855738,5.36781946505107
1,24,male,81,75,25,change,valid,anti,2,1,3,0.34139400598724023,1,j,same,4.908344767025483,0.45970086491237244,0.5054535343097086,0.0353184018617867,0.35329787445562033,1.0010817908273566,8.394952754637416
1,24,male,82,165,165,same,valid,anti,2,1,4,0.835121351080943,1,f,change,1.9348555377873708,0.4544658845303968,0.5053887487338216,0.035326740599430195,0.3532917807629019,1.001073452089713,5.944879020955341
1,24,male,83,165,215,change,valid,clock,1,0,1,0.8766024006586122,0,j,same,2.063129694950021,0.03811760696276123,0.5057341648980582,0.035324174833931465,0.35333155012631323,1.001063189028173,6.168953725779829
1,24,male,84,105,155,change,valid,clock,1,2,2,1.3441047371084096,1,f,change,7.9565718552212275,0.701014024821845,0.5058364747924315,0.03531359105136289,0.35329562941115,1.00104779443609,12.57619040288273
1,24,male,85,135,185,change,valid,clock,4,1,3,0.0794643195044955,1,j,same,1.6599167794001914,0.4492715617538156,0.5053079271242495,0.03530108294535239,0.35331102400368763,1.0010978268605868,4.873642469574861
1,24,male,86,15,65,change,valid,clock,5,0,1,0.296546672234399,0,f,change,2.5288032821267734,0.04999072993874093,0.5051652064257723,0.03532449555450512,0.3532921014839303,1.0010981475816152,6.097952262652143
1,24,male,87,15,15,same,valid,clock,3,2,3,0.7322155576466685,1,f,change,1.4122030367116167,0.6967902636787662,0.5055163955612443,0.035328344202753215,0.3533129483275843,1.0010750556930361,5.285855769348018
1,24,male,88,45,45,same,valid,anti,4,0,2,1.4223621847236245,1,f,change,4.7523789455858605,0.06137189838816304,0.5053816928793822,0.035320005465109716,0.3533155140926283,1.001060623263129,9.419061006844458
1,24,male,89,15,15,same,catch,clock,3,0,2,0.9037417839381305,1,f,change,3.3665336958756598,0,0.5056719450872151,0.035376131582779635,0.35328793211510856,1.0010259854302603,7.546809823545573
1,24,male,90,45,45,same,valid,clock,3,2,4,0.46249300027102436,1,f,change,1.2779657200917427,0.6928764818342376,0.5059708567541747,0.03535143609087754,0.3533020438248968,1.0010516430838834,4.827021550504924
1,24,male,91,165,215,change,valid,clock,2,1,3,0.3503148514841996,1,j,same,2.1214421654030957,0.44444590495609815,0.5049163271837642,0.03531679825846368,0.3533472654394245,1.0010542088493821,5.638482054716405
1,24,male,92,15,325,change,valid,anti,5,0,1,0.7349497013769906,0,f,change,3.441550261098655,0.049953630571146324,0.5054682874606442,0.03533860726429339,0.3532888942768295,1.0010420214639453,7.4649458719718496
1,24,male,93,135,135,same,valid,clock,4,1,3,0.6247042153599978,1,f,change,1.1503127988717097,0.439627723850438,0.5050619343687686,0.03533026852664989,0.35334598255667515,1.001028551195759,4.884954929123978
1,24,male,94,165,115,change,valid,anti,1,0,2,0.48856566659560485,1,f,change,1.3450547117395217,0.06003390754003124,0.5052687992024403,0.03535977482852104,0.35328889427728427,1.0010756971341834,5.096772331299235
1,24,male,95,135,135,same,valid,anti,3,0,2,0.6901379676187389,1,f,change,1.3495156155690893,0.049889689139970106,0.505781631557511,0.03529691357653064,0.35333475733295927,1.001045549391165,5.167840183606131
1,24,male,96,15,65,change,catch,clock,3,1,1,0.22571422890086978,0,j,same,1.6736702439852706,0,0.5056215919421447,0.03536330275619548,0.3532674059920282,1.0010593403803796,5.097672594226424
1,24,male,97,75,125,change,catch,clock,2,0,1,0.08222187584397034,0,j,same,1.420917338095478,0,0.5048640497143424,0.0353354000571926,0.3532625951816044,1.0010769800173875,4.696486954045213
1,24,male,98,75,75,same,valid,anti,2,0,1,0.3321938127851354,0,f,change,4.137697571952231,0.04057394194158376,0.5054923415109442,0.03532545771668083,0.35328536634960983,1.0010365692123742,7.71227571201598
1,24,male,99,75,75,same,catch,clock,1,0,1,0.44556440103133355,0,f,change,4.388295876366101,0,0.5046199812827581,0.03531936402396241,0.3532786312157441,1.0010785836207106,8.181577291436952
1,24,male,100,135,135,same,valid,clock,3,0,1,0.26469526083883466,0,j,same,2.070364191151839,0.04889443141654498,0.5056883018419285,0.035349191045952466,0.35330781679658685,1.0010817908273566,5.55660495359507
1,24,male,101,165,165,same,valid,anti,2,0,2,1.3174666402392177,1,f,change,2.228511554603756,0.05720301178963577,0.5093727409239364,0.03534213519151308,0.3533036474277651,1.0010564538943072,6.832722360452863
1,24,male,102,105,155,change,valid,clock,4,2,2,0.28672107372130995,1,j,same,2.071339823437029,0.68886565603802,0.5045856641709179,0.03533155140939925,0.3532895357184316,1.0010256647096867,5.614286566486044
1,24,male,103,15,325,change,valid,anti,5,2,3,0.35092582436436714,1,j,same,1.1229181219364364,0.6851425898371424,0.504986244290194,0.0353690757278855,0.3533074960760132,1.0010548502909842,4.684121889249582
1,24,male,104,135,185,change,catch,clock,4,1,2,0.7761344050531989,1,f,change,1.4155138362102662,0,0.5059586693687379,0.035299800063057774,0.3533238528302718,1.00107184848639,5.4278997478490965
1,24,male,105,135,135,same,valid,clock,5,0,1,0.27285599834249297,0,j,same,1.6895625947327062,0.04889745683319169,0.5053592424319504,0.035317439700065734,0.3533174384169797,1.0010609439832479,5.168139095272636
1,24,male,106,75,125,change,valid,clock,4,2,3,0.19877625820299727,1,j,same,3.3577590990057615,0.6816317615762455,0.5049480785305605,0.03532513699565243,0.3533248149924475,1.0010465115533407,6.662754195187063
1,24,male,107,45,95,change,catch,clock,2,2,1,0.3929758324143222,0,f,change,2.4066192898089867,0,0.5056822081487553,0.03538799824764283,0.3532975537350467,1.001091091726721,5.898817118016723
1,24,male,108,105,55,change,catch,anti,2,0,1,1.0119404306251454,0,j,same,2.3603043382604483,0,0.5048236389097838,0.03531359105181764,0.35341686182528065,1.000986216066849,6.52170413004842
1,24,male,109,105,55,change,valid,anti,3,1,3,0.10452030129818013,1,j,same,1.94811316821324,0.4351299654672347,0.5053865036893512,0.035288254118768236,0.3533559248971869,1.0010503602015888,5.238824969258985
1,24,male,110,45,45,same,catch,anti,2,2,2,1.5262012753137242,1,j,same,5.05030888607962,0,0.5050789325646292,0.03533315501272227,0.3533135897687316,1.0010551710115578,9.783999438097453
1,24,male,111,165,165,same,valid,clock,5,1,4,0.7788602100463322,1,f,change,1.527726622830869,0.430851563707452,0.5058377576751809,0.035360095549094694,0.3533065339138375,1.0010468322739143,5.52202356783755
1,24,male,112,105,105,same,catch,anti,2,2,2,0.5039329976029876,1,j,same,5.839723372005665,0,0.5049817542007986,0.035306535196923505,0.3532805555396408,1.0010724899275374,9.465924711463686
1,24,male,113,75,75,same,valid,clock,2,1,3,0.3513193486292039,1,f,change,2.458758528764065,0.42659314157194,0.505329094688932,0.03534790816365785,0.35331872129927433,1.001046832274369,6.050574122074977
1,24,male,114,75,125,change,valid,clock,2,2,3,0.6110290066189918,1,j,same,4.223403757178858,0.6780157152468945,0.5060706008830493,0.03532674059897545,0.3533135897687316,1.001052605246059,8.125054442334203
1,24,male,115,75,25,change,valid,anti,5,1,3,0.23525887610458085,1,j,same,1.5937357479751881,0.4225895938373613,0.5050866298606707,0.035335720778221,0.35330140238284,1.0010378520955783,5.119914893562509
1,24,male,116,75,25,change,valid,anti,1,1,3,0.3742101451648523,1,j,same,2.6418515460982235,0.41853164671690113,0.5056068387907544,0.035335720778221,0.3533090996793362,1.001064792631496,6.251550524089453
1,24,male,117,135,135,same,valid,anti,1,1,3,2.4968441085857194,1,f,change,1.880790050475298,0.41473819554426744,0.5053666190074182,0.0353184018617867,0.3533184005787007,1.0010798665030052,7.570844630718966
1,24,male,118,75,25,change,valid,anti,4,2,3,0.2552211721827007,1,j,same,4.301924195744959,0.6746485701526624,0.504427869600022,0.035341814470939426,0.35330845823773416,1.0010417007433716,7.722414013184334
1,24,male,119,165,165,same,valid,anti,4,2,4,0.7302514642501592,1,f,change,1.8277928837214859,0.6711908118147243,0.5052030514648322,0.03531262888964193,0.35330493031051446,1.0010593403803796,5.732457381033782
1,24,male,120,15,15,same,valid,clock,3,1,4,0.3462000052595613,1,f,change,1.5224411461531417,0.41091300113005325,0.5058496243395894,0.03531872258236035,0.35332064562362575,1.0010715277653617,4.9677281238032265
1,24,male,121,135,135,same,valid,clock,2,2,4,0.41358694641212423,1,f,change,1.7027961711082753,0.6678827200111124,0.505704017154585,0.035356888342448656,0.35331230688598225,1.0010500394805604,5.285802850436994
1,24,male,122,45,45,same,valid,anti,2,0,3,1.0090536238549248,1,f,change,1.1961675162560823,0.05650694426301717,0.5054227451250881,0.035307497359099216,0.353310703283114,1.0010490773183847,5.367646917329239
1,24,male,123,45,45,same,valid,anti,3,2,3,0.34639885207616317,1,f,change,1.4082851129805931,0.6647905746388376,0.5052251811912356,0.03536330275619548,0.353294025807827,1.0010516430843381,4.955221621191413
1,24,male,124,165,165,same,valid,clock,3,0,2,0.1379567142553242,1,j,same,3.045005449044311,0.04888848644470689,0.5059984387316945,0.035337645102117676,0.3533020438244421,1.001068641279744,6.452004151408346
1,24,male,125,75,75,same,valid,anti,5,0,2,0.18619566911638685,1,j,same,1.3221898935785248,0.041760066848693156,0.5055519955558339,0.03531551537571431,0.3533090996793362,1.0010619061458783,4.731692782951086
1,24,male,126,135,85,change,valid,anti,5,1,3,0.10595263981986136,1,j,same,1.4706675287638973,0.4072415996308281,0.505924993698045,0.03533604149833991,0.3533142312103337,1.001044907949563,4.76782260811342
1,24,male,127,135,185,change,valid,clock,3,1,2,0.2585457626705647,1,j,same,1.9302836646056676,0.4037878493725844,0.505702413551262,0.035294668532060314,0.353337323098458,1.0010583782182039,5.41496668674381
1,24,male,128,45,355,change,valid,anti,3,0,2,0.5544811413037678,1,f,change,5.859023059174888,0.03498734575264256,0.50555969285233,0.03535945410749264,0.35330268526604414,1.0010753764136098,9.713649358654948
1,24,male,129,165,165,same,valid,anti,1,1,3,0.4024572976463787,1,f,change,1.879486000221732,0.4002608383418977,0.5054532135886802,0.035302365828101756,0.3533456618361015,1.001064792631496,5.568453658107956
1,24,male,130,165,215,change,valid,clock,2,0,2,0.32613668217027225,1,j,same,6.648006817238638,0.028512582012764742,0.5052447451521402,0.035336682939941966,0.3532888942768295,1.0010522845254854,10.266957945181275
1,24,male,131,15,15,same,valid,anti,1,1,3,0.526517185175635,1,f,change,2.232308887362251,0.3969001984952576,0.5055497505113635,0.03532706132000385,0.35328504562858143,1.0011035998331863,6.062701212131742
1,24,male,132,75,75,same,valid,clock,5,2,3,0.38851653218853244,1,j,same,5.137873647601282,0.6616046018772276,0.5058512279433671,0.03534470095701181,0.353310703283114,1.0010699241624934,8.772001598471888
1,24,male,133,75,75,same,valid,clock,3,0,2,0.49789607239063116,1,j,same,3.4589301143241755,0.02256410752184873,0.5057210153504457,0.035318081140758295,0.35330044022111906,1.0010503602015888,7.15802869680283
1,24,male,134,75,75,same,valid,anti,3,1,3,0.2528372554265843,1,f,change,2.977990864592357,0.3937172572552088,0.5057941396635215,0.03534790816365785,0.35328985643900523,1.0010776214585348,6.439734982094251
1,24,male,135,135,185,change,valid,clock,1,0,1,0.11197064251246047,0,j,same,0.7403410158763108,0.016797692657850694,0.5058502657811914,0.03529402709045826,0.3533559248971869,1.0010304755196557,4.0727606160144205
1,24,male,136,105,55,change,valid,anti,4,0,1,0.13581750737193943,0,f,change,2.3621693289692303,0.022169106338787825,0.5053669397284466,0.0353520775324796,0.35331455193090733,1.0010625475870256,5.7335885628444885
1,24,male,137,15,65,change,catch,clock,4,2,1,0.4777872069653313,0,f,change,1.6230743129040093,0,0.5049265902453044,0.03536554780066581,0.35332064562362575,1.0010519638049118,5.296761234364112
1,24,male,138,15,325,change,catch,anti,2,1,1,0.2085912729339725,0,j,same,8.682005453534202,0,0.5058162693899249,0.03534951176698087,0.35329691229389937,1.0010314376818314,12.081351119219107
1,24,male,139,105,105,same,catch,clock,2,2,1,0.2293893670835132,0,j,same,3.9462635720969956,0,0.5054734189911869,0.03533604149879466,0.35331519337205464,1.0010554917321315,7.452725452200411
1,24,male,140,45,355,change,catch,anti,2,0,1,0.23205840451737458,0,f,change,3.016333983113327,0,0.5057877252502294,0.03535303969465531,0.35328985643900523,1.0011019962298633,6.546252411017576
1,24,male,141,165,165,same,catch,anti,5,2,2,0.21843226603914445,1,j,same,3.058086041658953,0,0.5057761793059399,0.0353184018617867,0.3533145519304526,1.001059981821527,6.475267946085751
1,24,male,142,15,65,change,catch,clock,5,1,2,0.21794669494147456,1,j,same,1.3761335070357745,0,0.5059054297371404,0.03535207753202485,0.3532847249084625,1.0010862809162973,4.803098354125723
1,24,male,143,135,85,change,valid,anti,2,2,3,0.010830737099695398,1,j,same,4.402247225606061,0.6585291364416807,0.5060285864747129,0.03530076222477874,0.35330653391429223,1.0010840358722817,7.641317546178925
1,24,male,144,165,215,change,valid,clock,3,2,3,0.026009484351561696,1,j,same,1.5247804827358777,0.6556464745039239,0.5055125469134509,0.03535464329752358,0.35329049788015254,1.0010824322689587,4.7675512784248895
1,24,male,145,165,165,same,valid,anti,5,2,3,1.5732259817100385,1,f,change,1.589075035166843,0.6529009876744717,0.5055843883442321,0.03533732438154402,0.3532946672489743,1.001046190832767,6.381019365755947
1,24,male,146,105,105,same,valid,anti,1,0,2,0.23855043236335405,1,j,same,1.9889065926699914,0.027224230208533373,0.5054320460244526,0.03530589375532145,0.3533273807574915,1.0010211746202913,5.485733061618703
1,24,male,147,75,75,same,catch,clock,3,0,1,0.27376107207965106,0,j,same,1.737597891967198,0,0.5056247991487908,0.03534309735368879,0.35329081860118094,1.0010458701117386,5.202955248561466
1,24,male,148,75,75,same,valid,anti,3,2,3,0.2505319152346601,1,f,change,1.125803966544936,0.6500182942647098,0.5062197359952734,0.03530781807967287,0.3533293050818429,1.00107184848639,4.639143060021524
1,24,male,149,75,75,same,catch,clock,2,0,2,0.06961530838270846,1,f,change,4.651004914082023,0,0.5051017037321799,0.035302365828101756,0.3533482276011455,1.0010452286705913,8.0530536135916
1,24,male,150,165,165,same,valid,clock,3,1,3,0.9367295086749436,1,f,change,0.9117578764185055,0.3904550452805773,0.5055523162768623,0.03538414959939473,0.3532680474331755,1.0010532466876612,5.062049187004959
1,24,male,151,75,75,same,valid,clock,5,1,3,0.7569219539072947,1,f,change,1.9495018887237165,0.3873235806633439,0.5055802189754104,0.03536009554954944,0.35330781679658685,1.0010554917325862,5.980778889395879
1,24,male,152,15,15,same,valid,clock,5,2,3,0.39865258831287065,1,f,change,0.5253378952647836,0.6472783146956401,0.5047511560369458,0.0353693964489139,0.35328568706972874,1.001047473714607,4.166225675741771
1,24,male,153,135,135,same,valid,clock,1,2,3,0.4331422479572211,1,f,change,1.6478143848353284,0.644688220780659,0.5052274262352512,0.0353145532144481,0.35330493031051446,1.0010567746148809,5.332699910005431
1,24,male,154,105,105,same,catch,clock,4,1,2,0.5071703520679876,1,f,change,1.7729195010360854,0,0.5050292208607061,0.035358491945771675,0.35324110689634836,1.001088205240194,5.720561209861444
1,24,male,155,75,75,same,valid,clock,1,2,3,0.9589541683744756,1,f,change,1.22320972117177,0.6419964278638175,0.506175797263495,0.035312308168613527,0.3532962708522973,1.0010846773129742,5.475179747901166
1,24,male,156,165,165,same,valid,clock,5,2,3,0.25574747480550286,1,f,change,1.75571251625297,0.6393644129112973,0.5050212028436363,0.03531359105181764,0.3533151933725094,1.0010471529949427,5.237724897353473
1,24,male,157,75,75,same,catch,clock,5,1,2,0.4254446311042557,1,j,same,2.5261441870343333,0,0.5055442982593377,0.03537196221441263,0.35330653391338274,1.0010417007433716,6.239654352916659
1,24,male,158,45,355,change,valid,anti,2,2,2,0.8192476021322364,1,j,same,1.3752858422994905,0.6368745678103671,0.5057601432727097,0.03530268654867541,0.35330011950009066,1.0010965439778374,5.498050018312824
1,24,male,159,105,105,same,catch,anti,5,1,1,0.4612085139797273,0,j,same,1.3201026434435335,0,0.5053300568506529,0.03530364871130587,0.3534832510049455,1.0010125151620741,5.0619301996357535
1,24,male,160,135,135,same,valid,anti,5,0,1,0.1904974954923091,0,f,change,0.9837625538084467,0.0219641308631639,0.5051616784976432,0.03530878024230333,0.35335079336709896,1.001032079122524,4.413543969842067
1,24,male,161,165,165,same,catch,clock,3,2,2,0.4122719916567803,1,j,same,5.737843564002105,0,0.505865018932127,0.035315515375259565,0.3532767068918474,1.0010724899284469,9.420118422901396
1,24,male,162,45,45,same,valid,anti,1,2,3,0.17000825534978503,1,f,change,3.0545680566056035,0.6345063375186154,0.5051533397599997,0.035340210867616406,0.35326002941656043,1.0010692827208914,6.509809562478949
1,24,male,163,15,15,same,valid,anti,4,1,3,0.19751422235822247,1,f,change,1.3407371700504882,0.3843631920070649,0.5056273649142895,0.03533700366097037,0.3533046095899408,1.001086280916752,4.743637703665627
1,24,male,164,75,25,change,valid,anti,3,2,3,0.10544750476128684,1,j,same,1.9438777310169826,0.6320332928242486,0.505738975708482,0.03532609915782814,0.3533068546339564,1.0010586989383228,5.203657626833774
1,24,male,165,45,355,change,valid,anti,3,1,3,0.06634139176094322,1,j,same,1.1303780847711096,0.3813405631403758,0.5050253722129128,0.035332513571120217,0.35326900959535124,1.001059019659806,4.3905280922444945
1,24,male,166,45,95,change,valid,clock,4,0,2,0.28176048708428425,1,j,same,1.2725968560398542,0.02675149534347898,0.5051042694976786,0.035313270331243984,0.3533879969654663,1.0010144394864255,4.754857795661337
1,24,male,167,135,135,same,valid,anti,3,1,4,1.5749970012620906,1,f,change,1.0402575002126468,0.37838061702145687,0.505927559463089,0.03530332798982272,0.35334469967347104,1.0010651133516149,5.792875703420577
1,24,male,168,75,75,same,valid,clock,4,0,2,0.17109164978137414,1,f,change,4.09458148838803,0.021777688147498142,0.5050898370673167,0.035323854112903064,0.3532933843662249,1.001042342184519,7.546874929842488
1,24,male,169,135,185,change,catch,clock,5,1,2,0.2658864174154587,1,f,change,2.544375553644386,0,0.5046902191097615,0.035373565817280905,0.3534922311828268,1.0008454196922685,6.074488338274932
1,24,male,170,45,95,change,catch,clock,4,0,2,0.1750371554899175,1,j,same,1.0649722352109166,0,0.5053130586557018,0.03533860726383864,0.35331326904815796,1.0010519638053665,4.579125638475489
1,24,male,171,135,135,same,catch,clock,3,1,2,0.2537378390734375,1,j,same,4.102198604352452,0,0.5055407703330275,0.03533989014704275,0.35324591770677216,1.0010878845196203,7.700284286803253
1,24,male,172,15,15,same,valid,clock,4,2,4,1.1482630730552046,1,f,change,1.0799174978146766,0.6296033853841738,0.5050907992299472,0.03536747212456248,0.353278951935863,1.0010667169563021,5.508713980663742
1,24,male,173,15,325,change,catch,anti,1,2,1,0.13289477988655563,0,j,same,2.4266745948816606,0,0.5057931775018005,0.03534694600148214,0.3533200041820237,1.0010436250668135,5.744827898080075
1,24,male,174,135,135,same,valid,anti,4,2,3,1.6913592719383814,1,f,change,0.9714253917118185,0.6272936963393687,0.5062453936488964,0.03536137843184406,0.3533058924722354,1.0010567746148809,5.8872089540082015
1,24,male,175,165,115,change,valid,anti,2,2,3,1.9540779312746963,1,j,same,2.981860038781633,0.6250962993816906,0.5053727127005914,0.035297555018587445,0.3533450203940447,1.0010449079500177,8.194959361483598
1,24,male,176,165,215,change,valid,clock,4,2,3,0.19514249298754294,1,j,same,1.0464798019747832,0.6229741788853895,0.5048640497143424,0.03532930636447418,0.35333988886395673,1.0010586989383228,4.43662142580888
1,24,male,177,105,105,same,valid,clock,4,1,3,1.1877595031146484,1,f,change,1.209673063761329,0.37559606247909316,0.5060834297091787,0.03531102528631891,0.3533392474218999,1.0010558124531599,5.709961070924692
1,24,male,178,15,15,same,valid,clock,3,0,2,0.9463113594774768,1,j,same,2.3664977751604965,0.016913504524366796,0.5058727162286232,0.03530717663852556,0.3533184005791554,1.0010336827263018,6.522992785708993
1,24,male,179,165,165,same,catch,anti,3,0,1,0.6756917463817445,0,f,change,2.7287809599683897,0,0.5049140821392939,0.03529498925217922,0.35332032490350684,1.0010394556984465,6.651673616684093
1,24,male,180,75,75,same,catch,clock,5,2,1,0.9850550581177231,0,j,same,3.2244788128718938,0,0.5053884280132479,0.03533347573284118,0.353299798779517,1.0010817908269019,7.4292503025999395
1,24,male,181,75,125,change,valid,clock,3,2,2,0.5992556714645616,1,j,same,1.0420477630059395,0.6207245668704472,0.5048310154852516,0.03530525231417414,0.35331487265102623,1.0010795457819768,4.837360943534804
1,24,male,182,105,55,change,valid,anti,4,2,3,0.292688402548265,1,j,same,1.0288042442889491,0.6185313146363625,0.5055038874552338,0.03529915862054622,0.35333219156837004,1.0010317584028599,4.508741241919779
1,24,male,183,15,15,same,valid,anti,4,0,1,0.10602865061900957,0,j,same,2.717135271641382,0.012372903579257799,0.504786114590388,0.035320967627740174,0.3533058924731449,1.0010526052465138,6.050523448208878
1,24,male,184,15,65,change,valid,clock,4,0,1,0.07383567170745664,0,j,same,3.7650935959136405,0.016513911566736206,0.5053451307221621,0.035282160425595066,0.3533344366123856,1.0010798665025504,7.075831516450307
1,24,male,185,45,45,same,catch,clock,2,2,1,0.0339858074694348,0,j,same,0.28542087211644684,0,0.505207220833654,0.03531808114166779,0.35330493031051446,1.0010689620003177,3.518657283662833
1,24,male,186,105,55,change,valid,anti,2,0,1,0.06660951424328232,0,j,same,0.5565635806278806,0.02085396023239411,0.5057649540831335,0.03527414240943472,0.3533408510256777,1.0010679998385967,3.8368962192807885
1,24,male,187,165,215,change,valid,clock,5,0,2,0.5842138719390277,1,f,change,1.4182123799464534,0.025029533735655918,0.5053675811695939,0.03530845952082018,0.3533110240032329,1.0010907710056927,5.262349830563835
1,24,male,188,75,125,change,valid,clock,3,1,2,0.0915821086609867,1,j,same,2.01990969788676,0.3729090815882772,0.5048124136856131,0.035315836096742714,0.3532879321146538,1.0010352863300795,5.332514212736896
1,24,male,189,75,75,same,valid,anti,4,0,1,0.2371662019422729,0,j,same,1.5186883935675723,0.020735730178008838,0.50506963166481,0.035357850504624366,0.3533129483275843,1.0010413800218885,5.014850008563371
1,24,male,190,165,165,same,valid,anti,4,0,1,0.08276998747260222,0,j,same,0.33064344905506005,0.02473186403690958,0.5050609722075023,0.035300120784086175,0.3533187212997291,1.0010676791171136,3.600820146903061
1,24,male,191,15,15,same,valid,anti,3,2,3,1.7208790440472512,1,f,change,1.0448652941104228,0.6164560233310349,0.505781631557511,0.03532192978946114,0.3533267393158894,1.0010461908323123,6.051970860602523
1,24,male,192,135,185,change,catch,clock,3,2,2,1.1660473550491588,1,f,change,1.6748129717398115,0,0.5050157505920652,0.03533989014704275,0.35464842920555384,0.9996731856354018,6.097857008612664
1,24,male,193,165,165,same,valid,clock,4,1,3,0.6085690790632725,1,f,change,1.1284858328053815,0.37011854701397195,0.5057091486860372,0.03532898564390052,0.35330845823773416,1.0010679998385967,4.956102961598845
1,24,male,194,15,15,same,valid,clock,2,2,3,0.27356543246878573,1,f,change,3.0310784745752244,0.61446471019142,0.5053553937841571,0.0353270613195491,0.35333283300860785,1.0010484358772374,6.533762906601623
1,24,male,195,135,135,same,valid,clock,4,0,2,0.2840655065565443,1,j,same,2.2239746399745854,0.028522406531399425,0.5057187703050658,0.03534181447139417,0.353316476254804,1.0010567746148809,5.744910964734117
1,24,male,196,45,95,change,valid,clock,2,1,3,0.05265142986900173,1,j,same,2.001713610551633,0.3674470975068893,0.505726467601562,0.03538062167172029,0.3532686888747776,1.0010615854253047,5.332823387464487
1,24,male,197,165,165,same,valid,anti,5,1,3,1.5850365204623813,1,f,change,1.2062824048152834,0.36490957580408034,0.5056995270651896,0.03532674059988494,0.35330011950100015,1.0010679998385967,6.074866147228022
1,24,male,198,45,95,change,valid,clock,4,1,3,0.161201265692398,1,j,same,1.4915887796514653,0.3623205998478716,0.5055895198747749,0.035286009073388414,0.3533353987750161,1.0010333620057281,4.86182583712889
1,24,male,199,15,15,same,catch,anti,3,2,2,1.0894605414141552,1,f,change,1.597620637477121,0,0.5053143415379964,0.03531904330338875,0.3533116654452897,1.0010471529949427,5.956751779518527
1,24,male,200,135,185,change,valid,clock,4,0,2,0.26300634577910387,1,f,change,1.0466966091489667,0.02445844700151595,0.5057934982214647,0.03530108294580714,0.35329562941115,1.0010917331683231,4.709094804388769
1,24,male,201,135,135,same,catch,clock,2,0,1,0.0986687526346941,0,j,same,2.4281374018673887,0,0.5073878006842278,0.03534117302933737,0.3533177591370986,1.0010657547936717,5.758407852781602
1,24,male,202,165,115,change,valid,anti,5,0,1,0.16795564304811705,0,j,same,0.782948436454717,0.02040773002518803,0.5058618117245715,0.03530685591795191,0.3533123068855275,1.0010773007379612,4.154894614393925
1,24,male,203,75,25,change,catch,anti,5,0,1,1.4726412437803447,0,f,change,1.2323970855477455,0,0.5059641216193995,0.035350473929611326,0.3532927429250776,1.0010667169553926,5.886859368475598
1,24,male,204,135,85,change,valid,anti,1,0,1,0.17274079547678411,0,j,same,2.301436700323393,0.024097495464950824,0.5057684820094437,0.035335079336618946,0.3532933843662249,1.0010558124531599,5.639203355508471
1,24,male,205,135,85,change,valid,anti,4,1,3,0.10398598065785336,1,j,same,2.1451267456022833,0.35973968634633313,0.5051305685929037,0.0352937063698846,0.3533254564335948,1.0010554917316767,5.414412802142579
1,24,male,206,135,85,change,valid,anti,1,2,3,1.0723577908502193,1,j,same,0.6396780221029985,0.6123721777244622,0.5057325612942805,0.03535079465018498,0.35329242220359447,1.0010811493857545,4.8976827289998255
1,24,male,207,135,135,same,valid,clock,5,1,3,0.1946787308961575,1,f,change,0.8235054897759255,0.3572847379105536,0.5049772641114032,0.03535175681190594,0.3532805555387313,1.0010086665142808,4.272695958727127
1,24,male,208,105,55,change,valid,anti,2,2,3,0.21383313160004036,1,j,same,1.35324752131055,0.6103037660125221,0.50518637399,0.0353354000571926,0.35329530868966685,1.0010712070452428,4.7078975541198815
1,24,male,209,15,15,same,valid,clock,2,1,3,0.40714655459396454,1,f,change,2.0461860218383663,0.3549425489809602,0.5058162693903796,0.03533604149833991,0.3533087789583078,1.0010856394746952,5.650856741131975
1,24,male,210,165,165,same,valid,clock,2,0,2,0.1316670611531663,1,j,same,1.8071833733274616,0.02758833993310883,0.505373033421165,0.03534245591254148,0.35329595013263315,1.0010564538943072,5.1444766448003065
1,24,male,211,105,55,change,valid,anti,5,1,2,0.15081023663424276,1,j,same,1.0497707167914996,0.35254864930262136,0.5052784208228331,0.03534502167713072,0.35326323662320647,1.001052925966178,4.413820751782623
1,24,male,212,105,105,same,valid,anti,2,2,3,1.2412172247522903,1,f,change,0.9973020977058695,0.6082986111214188,0.5055484676286142,0.035330268527104636,0.3532969122934446,1.0010545295699558,5.462837454272631
1,24,male,213,75,75,same,catch,clock,1,2,3,0.2608434055664475,1,j,same,0.9275678019539555,0,0.5050885541850221,0.03531391177239129,0.3533135897687316,1.001089488123398,4.35486908502935
1,24,male,214,135,135,same,valid,clock,2,0,2,0.21022053394881368,1,f,change,3.1027066258966443,0.02386845140491045,0.5057364099429833,0.035322571230608446,0.35332032490259735,1.0010792250623126,6.5221675714192315
1,24,male,215,105,105,same,valid,clock,1,1,2,0.15485773151704052,1,f,change,0.8182543302100385,0.350156348316055,0.5057062621990553,0.03534213519196783,0.3532969122934446,1.0010442665088704,4.166677250448629
1,24,male,216,15,65,change,valid,clock,2,2,3,0.19374832022549526,1,j,same,1.067257370000334,0.6063951796469241,0.5055263379026655,0.03533860726383864,0.35332641859531577,1.001062226866452,4.496502220348702
1,24,male,217,75,75,same,valid,anti,3,0,1,1.0659436981277395,0,f,change,0.9807323848990563,0.02012402499092486,0.5054686081812179,0.03534309735368879,0.3532892149978579,1.001083073710106,5.415687346094273
1,24,male,218,75,125,change,valid,clock,4,0,2,0.11590492299819743,1,j,same,3.2152558485022382,0.023554734901449548,0.5048823307924977,0.0353270613195491,0.3533312294057396,1.0010388142572992,6.462792553379586
1,24,male,219,45,45,same,valid,anti,1,0,1,0.09888267332189571,0,j,same,1.6144552655596272,0.019945148630757303,0.505605555908005,0.03527670817402395,0.3533386059816621,1.0010734520901678,4.8969248660514495
1,24,male,220,45,355,change,catch,anti,5,2,1,0.3798817695314938,0,f,change,1.0716842774381803,0,0.5053672604490203,0.03532738204103225,0.3533151933715999,1.0010721692069637,4.743506849631558
1,24,male,221,15,15,same,valid,clock,1,2,3,0.4716486133002036,1,f,change,1.0859675725751003,0.6045633325920381,0.506089202682233,0.0353520775315701,0.35331904202030273,1.0010737728107415,4.721191105260914
1,24,male,222,15,15,same,valid,anti,1,0,2,0.15133333204994415,1,f,change,6.256040934220437,0.023262625606189025,0.5051119667941748,0.03535560545969929,0.35328761139408016,1.001051001642736,9.642852515316008
1,24,male,223,165,115,change,catch,anti,4,2,1,0.82683104242642,0,j,same,1.2333714349497313,0,0.5054144063878994,0.0353097424031148,0.3533350780535329,1.0010426629050926,5.3207209928996235
1,24,male,224,135,135,same,valid,anti,2,0,1,0.27811613808717084,0,j,same,1.5974047924655679,0.019781714692369612,0.5059201828871664,0.03535945410840213,0.3533062131937186,1.0010596611009532,5.086116066245268
1,24,male,225,165,115,change,valid,anti,3,0,1,0.1141069629093181,0,f,change,3.000515077399541,0.02298986455484009,0.5052784208228331,0.0353312306888256,0.3532795933779198,1.00108435659331,6.403844735274106
1,24,male,226,105,105,same,valid,anti,1,2,3,1.0860253022956385,1,f,change,1.0650921847427526,0.6026348931036969,0.5060144747658342,0.03531615681731637,0.35331487265102623,1.001039134977873,5.4039428757996575
1,24,male,227,75,125,change,valid,clock,2,1,3,1.053986590027307,1,j,same,0.8371248931198352,0.34785326355210533,0.5054820784498588,0.03528857483888714,0.3533414924677345,1.0010407385816507,5.049852500562338
1,24,male,228,105,155,change,catch,clock,2,2,2,0.10464891028732382,1,j,same,5.031764496093274,0,0.5053868244103796,0.03531262888918718,0.3533212870652278,1.0010506809221624,8.3595618699037
1,24,male,229,15,15,same,valid,clock,4,0,2,0.13584508934945916,1,j,same,1.8769657771799757,0.02601654825576566,0.5056645685117473,0.03535881266634533,0.353278951935863,1.0010898088439717,5.227184091741947
1,24,male,230,165,215,change,valid,clock,5,2,3,0.17731619658570708,1,j,same,0.9917305381886763,0.600727504495533,0.5051587920115708,0.035338286543264985,0.3532937050867986,1.0010362484918005,4.40169783109377
1,24,male,231,105,55,change,valid,anti,2,1,3,0.11311721891615889,1,j,same,1.2847973911302688,0.3456657641790102,0.5058521901046333,0.03539248833749298,0.3533004402206643,1.00104779443609,4.590907312366653
1,24,male,232,75,25,change,catch,anti,4,2,1,0.3534434816410794,0,j,same,2.15443983248133,0,0.505623195545013,0.03537516942105867,0.3532712546402763,1.001080187223124,5.721698164643385
1,24,male,233,135,85,change,valid,anti,1,1,1,0.062175230229513545,0,j,same,3.8332663027131275,0.3435426639361926,0.5056844531936804,0.0353645856384901,0.35331070328265923,1.0010683205591704,7.158258653525081
1,24,male,234,45,95,change,valid,clock,1,0,2,0.06258094187887764,1,j,same,0.8648415736097377,0.022826362393136956,0.5053162658614383,0.03534726672205579,0.35332032490259735,1.0010417007433716,4.131418502632187
1,24,male,235,135,85,change,valid,anti,2,1,2,0.14690033091937948,1,j,same,3.5820647227146765,0.3471506801425171,0.5051866947105736,0.03533604149833991,0.3533116654443802,1.0010782628996822,6.957737995585376
1,24,male,236,165,115,change,valid,anti,4,0,2,0.1882713733066339,1,j,same,2.6522300670503682,0.01957743474519441,0.5054259523321889,0.03527574601230299,0.3533337951712383,1.0010747349724625,6.027754525529417
1,24,male,237,45,95,change,valid,clock,2,2,3,0.10044746948187822,1,j,same,1.42977692594377,0.5988531408150344,0.5049628316819508,0.035317439699610986,0.3533260978756516,1.0010336827263018,4.743530582961284
1,24,male,238,135,135,same,valid,anti,2,2,3,1.1190162342390977,1,f,change,1.2187462515767038,0.5970735552637824,0.5052139559675197,0.03533026852619514,0.35331679697537766,1.0010378520955783,5.567722414974924
1,24,male,239,165,165,same,valid,clock,1,1,3,0.40190180944136955,1,f,change,0.7477557570964564,0.3450875084112769,0.5051870154311473,0.035361699152417714,0.35330428886936716,1.0010327205645808,4.402188854443921
1,24,male,240,45,95,change,valid,clock,1,2,3,0.09904207149611466,1,j,same,0.638761723143034,0.5953647455738634,0.505248914520962,0.03529755501767795,0.3533267393158894,1.0010692827208914,3.9426737456133196
1,24,male,241,105,105,same,valid,clock,4,2,4,0.8757656404241061,1,f,change,1.0145017059130623,0.5937047303387653,0.5056411559025946,0.0352895370015176,0.35332930508138816,1.001072810648111,5.191857351142062
1,24,male,242,45,45,same,valid,anti,4,2,4,0.9223086243709986,1,f,change,0.7851415244113014,0.591941260640179,0.5052604604652515,0.035328344202753215,0.3532734996842919,1.001057095336364,4.990873893273601
1,24,male,243,135,185,change,valid,clock,2,2,3,0.03466637673500372,1,j,same,2.9416410250496483,0.590184362459156,0.505660719863954,0.0353187225828151,0.353278951935863,1.0010811493857545,6.1689280681257515
1,24,male,244,45,45,same,valid,anti,5,2,4,0.17470039878389798,1,f,change,2.223088809478213,0.5884778275499061,0.5051225505758339,0.035335720777766255,0.3533081375171605,1.0010449079500177,5.6853149701501025
1,24,male,245,165,215,change,valid,clock,4,0,2,0.20503255635503592,1,f,change,1.272087872332122,0.016534850508289622,0.5058743198324009,0.03540756220809271,0.3533283429196672,1.001062226866452,4.708860999018725
1,24,male,246,15,65,change,valid,clock,4,2,2,0.1383181664523363,1,j,same,0.7105172005703935,0.5868523037575222,0.5057514838144925,0.03531391177239129,0.3533142312107884,1.0010824322689587,4.084905024987165
1,24,male,247,135,85,change,valid,anti,3,2,2,0.10235479531911551,1,j,same,1.4609907446429133,0.585285718669053,0.5053005505496913,0.03534694600239163,0.35328985643900523,1.001073772809832,4.802899828029695
1,24,male,248,165,165,same,valid,anti,3,0,2,0.06658995028192294,1,j,same,1.2529835040522812,0.013628723201620785,0.5052360856934683,0.03534951176698087,0.3532282780697642,1.0010750556930361,4.519874418613654
1,24,male,249,135,135,same,valid,anti,5,2,3,1.2851533910761646,1,f,change,1.1684056141511974,0.5837597553042789,0.5050872713027275,0.03530268654867541,0.353320645623171,1.0010583782177491,5.63840315743073
1,24,male,250,165,165,same,catch,clock,4,2,2,0.058702466791146435,1,f,change,1.4791634193697973,0,0.5054259523312794,0.035323854112903064,0.35333155012631323,1.0010317584019504,4.755638429776809
1,24,male,251,105,155,change,valid,clock,5,0,1,0.798038344080851,0,f,change,1.635655222711648,0.010672549977338908,0.5110363190497083,0.03532674059988494,0.35332160778580146,1.0010314376813767,5.7387855206161476
1,24,male,252,135,185,change,valid,clock,5,1,2,0.5433656042469011,1,j,same,1.0538743377919673,0.34307227488974884,0.5049695668158165,0.03531968474453606,0.35331070328265923,1.0010939782132482,4.743315379389969
1,24,male,253,15,15,same,valid,clock,1,1,2,0.1083545169340141,1,f,change,0.9234824620316431,0.34096747373074365,0.5050391632012179,0.03532770276069641,0.3533017231038684,1.0010449079500177,4.237311488406704
1,24,male,254,105,105,same,valid,clock,5,1,3,0.3782624508576191,1,f,change,2.039284754414439,0.33888026131334237,0.5045702695779255,0.03531615681731637,0.35328825283522747,1.0010817908269019,5.626214809725752
1,24,male,255,15,325,change,catch,anti,5,0,2,0.19236569340773713,1,f,change,3.0304870656564162,0,0.5056539847291788,0.03532866492332687,0.3532962708522973,1.0010603025421005,6.521983157032992
1,24,male,256,15,325,change,valid,anti,4,2,2,0.1835128406937656,1,j,same,1.4832587016326215,0.5821358430724258,0.5060815053857368,0.03532096762683068,0.3533142312098789,1.0010590196588964,4.8739587001573454
1,24,male,257,105,105,same,valid,clock,3,0,2,0.1698536679859899,1,f,change,1.8596670662846009,0.013384660152383487,0.5053018334319859,0.035333475733750674,0.3532811969807881,1.001043625067723,5.3205968739994205
1,24,male,258,105,155,change,valid,clock,2,1,2,0.13658435049910622,1,f,change,1.53635978188413,0.33690916875477933,0.5057476351666992,0.03532962708504783,0.3533325122880342,1.0010619061449688,4.932871880430866
1,24,male,259,15,15,same,catch,clock,2,0,1,0.9444409165171237,0,j,same,0.6703629724133862,0,0.5050869505812443,0.03533187212997291,0.35329562941115,1.0010773007379612,4.931679440971493
1,24,male,260,165,165,same,valid,anti,1,0,1,0.059412542359496,0,j,same,0.9406384522271765,0.010510948237340223,0.5061655342015001,0.03532449555495987,0.3532866492323592,1.0010773007379612,4.203239086356916
1,24,male,261,75,75,same,valid,anti,4,1,3,0.9783603348068937,1,f,change,0.9730645950676262,0.3350132806191144,0.5051735451625063,0.03534887032583356,0.3532991573383697,1.001081149386664,5.249968088292917
1,24,male,262,135,135,same,valid,clock,3,1,3,1.0593307585877483,1,f,change,0.8568482522969134,0.3331567553194883,0.5054926622315179,0.0353228919511821,0.3532943465279459,1.00107184848639,5.155771143991842
1,24,male,263,15,325,change,valid,anti,1,2,2,0.03372249579661002,1,j,same,2.751025504348945,0.5805167794218883,0.505761746875578,0.035304931593600486,0.35332930508138816,1.0010910917262663,6.062814426529258
1,24,male,264,45,45,same,catch,clock,2,0,2,0.45539320675106865,1,j,same,1.1214415239619484,0,0.5058916387479258,0.03533187212997291,0.35333411589181196,1.0010667169563021,4.838793602777514
1,24,male,265,45,95,change,valid,clock,3,2,2,0.12372281010266306,1,j,same,2.000701736830706,0.5789228339372203,0.5055548820419062,0.035375490141632326,0.35326484022607474,1.0010574160560282,5.380213073985942
1,24,male,266,105,105,same,valid,clock,2,2,3,0.17639604897794925,1,f,change,1.5338863840597696,0.577405282640787,0.5052832316323475,0.035352718973626907,0.35329530869057635,1.0010586989392323,4.943913651732146
1,24,male,267,45,45,same,valid,clock,4,2,3,0.31680980430246564,1,f,change,0.9023758345956594,0.5759452979143229,0.505291570369991,0.03528921628094395,0.35335079336618946,1.0010237403848805,4.402571153485042
1,24,male,268,165,215,change,valid,clock,3,0,2,0.5466523496952505,1,f,change,3.1730310476859813,0.013154070502899351,0.5051626406602736,0.03533283429169387,0.3532892149978579,1.001032079122524,7.11101906427848
1,24,male,269,15,15,same,valid,anti,4,2,2,0.26079369386116014,1,f,change,0.9311114446609281,0.5745267695435594,0.5048518623289056,0.03535977482806629,0.35329947805985285,1.0010651133525243,4.507379141225101
1,24,male,270,75,75,same,catch,clock,4,1,2,0.14602957429451635,1,f,change,0.7494016955861298,0,0.5058977324415537,0.035353039695110056,0.3533158348136567,1.001063189028173,4.178868484639679
1,24,male,271,45,45,same,valid,anti,3,1,3,0.0643349632355239,1,f,change,1.9346708026805572,0.33121581651921683,0.5060337180057104,0.035310704565745255,0.3533052510310881,1.0010487565987205,5.251224351165547
1,24,male,272,15,65,change,valid,clock,3,1,2,0.22681814945462975,1,j,same,1.6100068698369796,0.3292720133995177,0.504961228078173,0.03529402709045826,0.3533309086851659,1.0010388142563897,5.084649089890263
1,24,male,273,135,85,change,catch,anti,3,2,2,0.15009919890417223,1,f,change,2.97475960382053,0,0.5057271090427093,0.03530525231417414,0.35331679697537766,1.0010689620003177,6.427860299207168
1,24,male,274,75,25,change,valid,anti,3,0,1,0.665772497432954,0,f,change,1.3530919717841243,0.010357527314045156,0.5058226838027622,0.035332834292603366,0.35330781679658685,1.0010336827263018,5.368777457698343
1,24,male,275,15,15,same,valid,clock,4,1,3,0.25066180710655317,1,f,change,1.0514349363602378,0.3274315745069955,0.5052065793925067,0.035333796453414834,0.3532930636456513,1.0010317584019504,4.543879719484721
1,24,male,276,135,135,same,valid,clock,5,2,3,0.18029248442417156,1,f,change,1.9911362427828863,0.5730232210482574,0.5050535956315798,0.03534951176698087,0.35326548166722205,1.0010942989329124,5.414878167838651
1,24,male,277,105,105,same,valid,clock,2,0,2,0.9398995117990125,1,f,change,1.5631033958552507,0.012935801505796207,0.5050959307609446,0.03538831896821648,0.353233088880188,1.0010837151512533,5.791587368480577
1,24,male,278,105,55,change,valid,anti,1,1,3,0.48389693577064463,1,j,same,2.205429287827428,0.3256670395927227,0.5055250550203709,0.03529210276701633,0.3533283429196672,1.0010346448889322,5.850774764928246
1,24,male,279,165,115,change,valid,anti,2,0,2,0.22246853569868108,1,f,change,1.2596153661124845,0.010211615984328903,0.50570754508135,0.035338286543264985,0.3533026852664989,1.0010689620003177,4.7558247684874
1,24,male,280,105,155,change,valid,clock,5,1,2,0.15898252008173586,1,f,change,0.8299683320410622,0.3239469707074417,0.5054400640419772,0.03530749735818972,0.3533116654452897,1.0010702448835218,4.260696194776756
1,24,male,281,15,65,change,valid,clock,5,2,2,0.01362068622620427,1,f,change,2.5132903439343863,0.5715307393025635,0.5058371162331241,0.03538222527549806,0.3533110240032329,1.0010606232626742,5.82795452693972
1,24,male,282,75,75,same,catch,clock,2,0,2,0.016492098405251454,1,f,change,1.398107042448828,0,0.5050417289667166,0.03533283429169387,0.3532978744560751,1.0010490773192942,4.684504188291612
1,24,male,283,165,115,change,valid,anti,4,1,2,0.22233543661877775,1,j,same,1.577324791900537,0.3221599240479203,0.5057091486860372,0.0353354000571926,0.3533052510310881,1.0010487565987205,5.074025859065841
1,24,male,284,15,325,change,valid,anti,5,1,1,0.6603215288878346,0,f,change,0.9076465581219963,0.3203560572063479,0.5052444244311118,0.03533347573284118,0.3532847249080078,1.0010660755142453,4.8376989831231185
1,24,male,285,105,105,same,valid,clock,2,1,3,0.07841139353786275,1,f,change,2.0233959315946777,0.3233850311275125,0.5056305721209355,0.035330909968251945,0.35329402580737224,1.0010692827208914,5.332820821698988
1,24,male,286,15,65,change,valid,clock,2,1,2,0.036158369302029314,1,j,same,3.7046874609122824,0.3216618571927593,0.505474060432789,0.03530685591704241,0.35333571949468023,1.0010436250668135,6.969780736105349
1,24,male,287,165,165,same,catch,clock,1,1,2,0.0632868480788602,1,j,same,0.8949056086985365,0,0.5056084423949869,0.03528632979396207,0.35334662399782246,1.0010545295699558,4.201906171243536
1,24,male,288,45,45,same,valid,clock,3,1,3,1.0557008420200873,1,f,change,0.72641724861478,0.3199154518730628,0.5061084459221092,0.03538735680649552,0.3533116654452897,1.0010670376768758,5.274135673824276
1,24,male,289,135,85,change,catch,anti,2,2,1,0.8974290389478483,0,j,same,1.085159035759716,0,0.5057396171496293,0.03535015320812818,0.3533068546339564,1.0010378520946688,5.203716639437516
1,24,male,290,105,105,same,valid,clock,4,0,1,0.005530827991606202,0,j,same,1.0213375463199554,0.007614238361914216,0.505543015377043,0.035306214475895104,0.35331198616586335,1.0010849980344574,4.273082106416041
1,24,male,291,105,155,change,valid,clock,1,1,1,0.03395309396000812,0,j,same,2.0474098919239623,0.3182414505180705,0.5053576388290821,0.03532449555495987,0.35328504562858143,1.0010747349724625,5.332904209073604
1,24,male,292,105,155,change,valid,clock,2,0,1,0.058707598322143895,0,f,change,1.1085491943813395,0.010072614052176854,0.5051741866045631,0.03535560545969929,0.3532388618514233,1.0010930160506177,4.4258317409558
1,24,male,293,135,135,same,valid,clock,1,0,2,0.9929903289894355,1,f,change,1.8483382499816798,0.012532233478265764,0.5053762406278111,0.035362982035621826,0.3533010816618116,1.001032079122524,6.240013239348627
1,24,male,294,45,45,same,valid,anti,5,1,3,0.35072697754822,1,f,change,1.207836937913271,0.32119557043187896,0.504964435284819,0.03532994780653098,0.35330653391338274,1.0010814701063282,4.84976289120732
1,24,male,295,45,45,same,valid,clock,5,0,3,0.06597512875396205,1,f,change,1.5824332307665827,0.009942009338498536,0.5052091451580054,0.035325778437254485,0.35329402580828173,1.001049718759532,4.955938111173964
1,24,male,296,15,15,same,valid,anti,2,1,3,0.11269579195231927,1,f,change,0.6449253330201827,0.3195144099061038,0.5051722622802117,0.0353312306888256,0.3533039681487935,1.001040417861077,3.977821203356143
1,24,male,297,45,45,same,valid,clock,1,2,3,0.025374136700520467,1,f,change,0.8751235576391991,0.5700335224697226,0.5058117793005295,0.03531423249296495,0.3533200041820237,1.0010609439841573,4.225866891941223
1,24,male,298,45,95,change,valid,clock,4,2,3,0.11597451938450831,1,j,same,1.0051260785030536,0.5685820585082717,0.5055256964606087,0.035325136996107176,0.3532972330140183,1.0010356070506532,4.390669209340558
1,24,male,299,45,45,same,catch,anti,4,0,2,0.6832091182168369,1,f,change,2.6660175280258045,0,0.5054894550248719,0.03531711897903733,0.35329049788015254,1.0010824322680492,6.627993205853272
1,24,male,300,105,105,same,valid,anti,5,0,2,0.06549949999680393,1,j,same,1.0448011499765926,0.007494277582126341,0.5060863161961606,0.03533026852619514,0.35331487265193573,1.0010635097487466,4.403142677722826
1,24,male,301,15,15,same,catch,anti,4,1,1,0.8931185531137089,0,f,change,1.8040759107343547,0,0.5044406984270609,0.03531102528631891,0.35329819517664873,1.0010939782132482,6.02645400320398
1,24,male,302,165,165,same,valid,clock,1,2,3,0.8973539903099663,1,f,change,0.9427638681227108,0.5671943037669754,0.5052899667671227,0.03532160906888748,0.3533014023823853,1.001044587229444,5.073449203297969
1,24,male,303,75,125,change,valid,clock,1,2,3,0.24003248258941312,1,j,same,1.3101070629745664,0.5658549153463612,0.5049214587143069,0.03530172438695445,0.35334469967438054,1.001030154799082,4.802252292992307
1,24,male,304,75,75,same,valid,clock,4,1,3,0.3482141310805673,1,f,change,0.8299118852028187,0.3179182244628402,0.5052469901975201,0.03535945410840213,0.3532985158972224,1.0010471529949427,4.425638025669286
1,24,male,305,135,185,change,catch,clock,2,1,2,0.5150248013296732,1,j,same,2.227805969124347,0,0.5054856063770785,0.03531102528631891,0.35329755373459193,1.0010577367766018,5.956805660591272
1,24,male,306,165,165,same,valid,anti,3,2,3,0.027148363458763924,1,f,change,2.285972511673208,0.5645504251301556,0.5059734225196735,0.03532225051003479,0.35330364742821985,1.0010413800218885,5.6631797915188145
1,24,male,307,45,45,same,valid,anti,2,2,3,0.17491239514856716,1,f,change,0.8919418289679015,0.5631654957066148,0.5046947091987022,0.03533924870589544,0.35328280058365635,1.0010779421791085,4.2601949083664294
1,24,male,308,15,15,same,catch,anti,2,1,3,0.11400561517802998,1,j,same,1.4485868726460467,0,0.5055738045621183,0.03533732438154402,0.35333155012631323,1.0010484358772374,4.7788983758064205
1,24,male,309,105,155,change,catch,clock,4,2,2,0.7347149338447707,1,j,same,0.8323442307801088,0,0.5061780423075106,0.03534566311918752,0.35331198616495385,1.001073772809832,4.803073979354849
1,24,male,310,45,355,change,valid,anti,5,2,2,0.48234176123150974,1,j,same,0.9451487470405482,0.5617897220112804,0.5058951666751454,0.03531968474362657,0.35330557175257127,1.001031116960803,4.72080142964478
1,24,male,311,45,45,same,catch,anti,3,1,1,0.12294923184163054,0,j,same,0.8818920467047064,0,0.505008053295569,0.03533283429169387,0.35328889427728427,1.0010712070452428,4.237368255965521
1,24,male,312,105,105,same,valid,clock,1,2,2,0.2806639431064468,1,j,same,1.7610823424665796,0.5604096249449708,0.5053127379351281,0.03534053158819006,0.35330909967979096,1.001048756597811,5.285032479382608
1,24,male,313,15,65,change,valid,clock,1,2,2,0.11229457039098634,1,j,same,0.7330580908528646,0.559047631784027,0.5057864423670253,0.03534822888468625,0.3532802348190671,1.0010638304693202,4.013667832165083
1,24,male,314,45,95,change,catch,clock,1,2,2,0.2534690751499511,1,f,change,1.6441052502614184,0,0.5059387846868049,0.03532866492332687,0.3533097411200288,1.0010532466867517,5.238956464734656
1,24,male,315,165,115,change,valid,anti,3,1,2,0.11935619815176324,1,j,same,0.8198342002415302,0.31639085911157927,0.5056296099583051,0.035303327990732214,0.3533074960751037,1.0010766592968139,4.154887879260059
1,24,male,316,45,355,change,valid,anti,5,0,2,0.10993983921616746,1,j,same,4.424726537518836,0.00516784877843135,0.5058246081271136,0.03529915862145572,0.3533408510256777,1.0010516430838834,7.79496712292439
1,24,male,317,105,105,same,valid,anti,3,1,2,0.1066729784497511,1,f,change,1.3843038661598257,0.3149083827907888,0.5050670658993113,0.03535496401855198,0.35333283300860785,1.0010679998385967,4.754870624487921
1,24,male,318,135,135,same,catch,anti,3,1,2,0.023583232466080517,1,f,change,1.3954758500540265,0,0.5055228099754459,0.0353270613195491,0.35329530869057635,1.0010901295645454,4.661392735933077
1,24,male,319,75,75,same,valid,anti,1,1,3,0.16111146390358044,1,f,change,1.1178257191040757,0.313379246866453,0.5058714333454191,0.0352937063698846,0.3533062131928091,1.001084998033548,4.556116496011782
1,24,male,320,75,75,same,valid,anti,1,0,3,0.05322776491630066,1,f,change,1.4691566136780239,0.0028965618929985837,0.5052768172199649,0.035365868520784716,0.35327510328806966,1.001081149386664,4.825917629951618
1,24,male,321,75,125,change,valid,clock,1,0,2,0.15492027204800252,1,j,same,1.1278787085730073,0.0005518453342274743,0.5057784243499555,0.03534758744353894,0.35331551409308304,1.0010590196588964,4.508892942798411
1,24,male,322,105,155,change,valid,clock,3,2,2,0.07691330727811874,1,f,change,2.222779314030049,0.5577479771351592,0.5051170983242628,0.03524239106263849,0.3533629807525358,1.0010808286651809,5.626706795237624
1,24,male,323,75,75,same,valid,anti,5,1,3,0.212143575099617,1,f,change,0.9868292848759666,0.31184976910227324,0.5056527018468842,0.03530396943097003,0.3533254564335948,1.0010429836256662,4.472847146451386
1,24,male,324,75,25,change,valid,anti,4,1,3,0.5238712396303526,1,j,same,1.2766927797438257,0.31029727810648716,0.5054243487284111,0.03533924870589544,0.35333764381903165,1.0010773007379612,5.050509015779426
1,24,male,325,105,55,change,catch,anti,3,0,2,0.367793486676419,1,f,change,0.75968624538109,0,0.5045333867010413,0.03533058924767829,0.3532641987858369,1.0010959025366901,4.401231503236886
1,24,male,326,165,115,change,valid,anti,1,1,2,0.11179937767337833,1,j,same,1.3285414457695879,0.308776963668422,0.5059112027083756,0.035310704565745255,0.3532985158972224,1.0010952610955428,4.69708541881937
1,24,male,327,15,325,change,valid,anti,2,2,2,0.18252277597821376,1,j,same,1.3629512459674515,0.5564961882187455,0.5055593721308469,0.0352978757391611,0.35332513571302115,1.0010452286705913,4.767760067581548
1,24,male,328,105,105,same,catch,clock,1,0,1,0.4509877875980237,0,f,change,1.1612432801002797,0,0.5048185073783316,0.03534630456033483,0.3532805555396408,1.001061264704731,4.955392565309921
1,24,male,329,15,65,change,valid,clock,3,0,1,0.3232036916224388,0,f,change,0.7527205131018491,0,0.5056841324731067,0.03534983248755452,0.3533033267076462,1.0010724899284469,4.296201576790736
1,24,male,330,105,105,same,valid,anti,4,1,3,0.2416482733360681,1,f,change,0.9631610614314923,0.30733578028836606,0.5057623883176348,0.03534598383885168,0.35332449427187385,1.001058057498085,4.461720704893196
1,24,male,331,165,115,change,valid,anti,5,2,3,0.3333894594507001,1,j,same,0.9052398701978746,0.5552803434878438,0.5054647595334245,0.03535496401855198,0.3532645195064106,1.001045549391165,4.425969971564882
1,24,male,332,165,165,same,catch,clock,1,2,2,0.2154303205479664,1,f,change,0.8723223832885196,0,0.5050917613916681,0.035366830683415174,0.3533058924722354,1.0010272683130097,4.390509811166339
1,24,male,333,135,135,same,valid,anti,1,0,2,0.06667109261252335,1,j,same,2.808932263152201,0.0004235751681699873,0.5054593072818534,0.0352978757391611,0.3533151933725094,1.0010651133525243,6.098151109469654
1,24,male,334,135,85,change,valid,anti,4,0,2,0.1619132655841895,1,j,same,4.541921719781385,0,0.5056847739151635,0.03533572077867575,0.35330076094123797,1.0010689620003177,7.946994173787971
1,24,male,335,15,15,same,valid,clock,1,0,1,0.3868786117154741,0,f,change,0.4046545549708753,0,0.5061629684369109,0.03527670817402395,0.3533450203949542,1.0010721692069637,4.108949774501525
1,24,male,336,135,135,same,valid,anti,3,2,1,0.20152226859772782,0,f,change,0.5332163985767693,0.554089556970648,0.505207220833654,0.03531327033033449,0.3532770276124211,1.001090450285119,4.130894765774428
1,24,male,337,75,25,change,valid,anti,2,2,3,1.2414513508429081,1,j,same,1.7636535600950083,0.5584352680526626,0.5055446189799113,0.03532738204103225,0.3533277014776104,1.0010667169553926,6.215627243040217
1,24,male,338,135,135,same,valid,clock,3,2,3,0.15412456406011188,1,f,change,1.293393346585617,0.5572442887120123,0.5056536640086051,0.03531776042018464,0.3533171176968608,1.0010365692123742,4.708467154033315
1,24,male,339,135,85,change,valid,anti,4,2,3,0.10207544761397003,1,j,same,2.0554827519626997,0.5560921229389764,0.5059022225304943,0.0353228919511821,0.35329113932220935,1.0010808286651809,5.380019679420911
1,24,male,340,135,85,change,valid,anti,2,0,1,0.23567549225754192,0,f,change,1.1729348314838717,0,0.5057110730094792,0.035287291956592526,0.3533241735503907,1.0010724899275374,4.673715465600253
1,24,male,341,165,165,same,catch,clock,5,0,2,0.7277296376050799,1,f,change,1.019927016804104,0,0.5053313397329475,0.03531166672746622,0.3532811969807881,1.0011151457765664,5.002971797747705
1,24,male,342,135,135,same,catch,clock,2,1,1,0.5604240953598492,0,f,change,1.1502505790613213,0,0.5056684171604502,0.035303648710396374,0.35332160778580146,1.001063509749656,4.944125327376241
1,24,male,343,105,105,same,valid,clock,1,0,1,0.07583344077465881,0,j,same,1.3843160535452625,0.000182027305543897,0.5059230693732388,0.03528632979487156,0.3533386059807526,1.001067679118023,4.721087833204365
1,24,male,344,105,155,change,valid,clock,3,1,2,0.16474105975066777,1,j,same,1.2203097648543917,0.30594749058471227,0.5050375595974401,0.035323212671755755,0.3532811969807881,1.0010574160560282,4.601661076505479
1,24,male,345,15,65,change,valid,clock,1,1,2,0.039127922005718574,1,j,same,1.069488302996433,0.30459248575995174,0.5057537288585081,0.03531776042018464,0.3533171176959513,1.001058057498085,4.284625164128556
1,24,male,346,45,355,change,valid,anti,2,0,1,0.13330241586027114,0,f,change,1.3985162820263213,0.0022281672659479335,0.5052925325317119,0.03532609915782814,0.3533052510310881,1.0010635097487466,4.814420435294778
1,24,male,347,15,325,change,catch,anti,3,2,2,0.28304946346634097,1,f,change,1.454920464479983,0,0.5055478261874669,0.035325778437254485,0.35328696995293285,1.001106165598685,4.955938431894538
1,24,male,348,165,115,change,catch,anti,5,1,1,0.1384438889554076,0,j,same,0.9668262572731692,0,0.5054830406115798,0.03528761267716618,0.3533693951658279,1.0010641511908034,4.319802448894734
1,24,male,349,135,85,change,valid,anti,5,2,2,0.5078146798987291,1,j,same,1.2445196855142058,0.5549687658473185,0.5059551414415182,0.03532481627553352,0.35330300598616304,1.0010461908323123,4.909154586722252
1,24,male,350,75,75,same,valid,anti,1,2,2,0.11637734454780002,1,j,same,2.015775929143274,0.5537768201301071,0.5051443595812088,0.03531198744803987,0.3533062131937186,1.0010596611009532,5.308386717289068
1,24,male,351,105,55,change,valid,anti,5,2,2,0.043056108798737114,1,j,same,2.0553801213482075,0.5525948039112988,0.50674379357406,0.035376131582779635,0.35330974112093827,1.001065434073098,5.34577665397228
1,24,male,352,105,105,same,valid,anti,5,1,2,0.507484979047149,1,f,change,1.27013115551199,0.30318838220736344,0.5052867595604766,0.03536234059356502,0.35327798977414204,1.001077942180018,5.014581886081942
1,24,male,353,75,75,same,catch,clock,1,0,1,0.23831758915548562,0,j,same,0.752630711313941,0,0.5049846406864162,0.035280556822726794,0.35335656633833423,1.001044587229444,4.166279236093942
1,24,male,354,105,105,same,valid,anti,3,0,1,0.3008869850909832,0,f,change,1.3128598085040721,0.004165170310655164,0.5057922153400796,0.03530942168254114,0.3533434167911764,1.0010526052456044,4.862127956002041
1,24,male,355,45,45,same,valid,clock,5,1,3,1.0766301109242704,1,f,change,1.4417484664736548,0.3017793687842366,0.5051526983188523,0.03528568835281476,0.35332160778580146,1.001089488123398,5.6856632728004115
1,24,male,356,15,325,change,valid,anti,3,1,3,0.35250569439540413,1,j,same,0.9623906903771058,0.3003462193205758,0.5052505181247398,0.03529595141480968,0.3533151933715999,1.0010744142518888,4.484480647393866
1,24,male,357,45,95,change,valid,clock,5,0,2,1.1650733263668371,1,j,same,0.8410899627897379,0.006036919910156979,0.5056151775279432,0.03530878024139383,0.353287290674416,1.001092695330044,5.1558833962262725
1,24,male,358,165,215,change,valid,clock,2,2,3,0.10340515552070428,1,j,same,1.8190442652257843,0.551412558504249,0.5058509072223387,0.03535945410749264,0.35330717535543954,1.0010785836211653,5.073868705937457
1,24,male,359,75,75,same,valid,clock,1,1,3,0.09283291928295512,1,f,change,1.7769336409683092,0.29893528652188794,0.5057229396743423,0.03532545771668083,0.3532853663500646,1.0010869223578993,5.0979044752721165
1,24,male,360,105,55,change,valid,anti,1,2,3,0.20145235149175278,1,j,same,3.421179366884644,0.5502202744072124,0.5051555848058342,0.03531198744803987,0.35332096634374466,1.0010458701117386,6.721958910549802
1,24,male,361,15,15,same,valid,anti,2,2,3,0.019870890686433995,1,f,change,0.8538174419445568,0.5490491419984224,0.5058185144343952,0.035289857722091256,0.3533026852655894,1.001090450285119,4.1549536269985765
1,24,male,362,105,155,change,valid,clock,3,0,2,0.8804625946686429,1,j,same,4.563275302134571,0.0040356415232942755,0.5056209505009974,0.035303648710396374,0.3533312294057396,1.0010449079491082,8.689720068583483
1,24,male,363,45,95,change,catch,clock,2,0,2,0.03455220017622196,1,j,same,2.8786171679212202,0,0.5049297974519504,0.03533026852619514,0.3532609915791909,1.0011026376705559,6.156602451973413
1,24,male,364,165,165,same,valid,anti,5,0,1,0.18356415600101172,0,j,same,0.6221499959265202,0.0019919712834367553,0.5058185144353047,0.03526195502399787,0.35339826002564223,1.0010615854243952,4.0141174825484995
1,24,male,365,45,45,same,valid,clock,4,1,1,0.11400850166410237,0,j,same,2.5844403007331493,0.2975984366846156,0.5055144712378024,0.03533347573284118,0.3532658023887052,1.00107986650346,5.815946103532951
1,24,male,366,105,55,change,valid,anti,4,1,2,0.062008134758798406,1,j,same,1.1835571001465723,0.2999872181277394,0.5052559703754014,0.03534983248755452,0.3532728582431446,1.001068641279744,4.425861247256762
1,24,male,367,135,85,change,valid,anti,5,0,1,0.016340718247192854,0,j,same,0.5247689367915882,0.003855487907380828,0.5053573181085085,0.035361699152417714,0.3532824798630827,1.001069603441465,3.7548577956604277
1,24,male,368,15,325,change,valid,anti,4,0,1,0.118384093793793,0,j,same,1.1994581103526798,0.005652093260111901,0.5051876568722946,0.03531904330338875,0.3533142312107884,1.001027909754157,4.566861921412055
1,24,male,369,75,25,change,catch,anti,3,0,2,0.08651536348224909,1,j,same,1.7914183486864204,0,0.5057171667021976,0.03530396943187952,0.3533225699475224,1.0010773007379612,4.990961129296011
1,24,male,370,15,15,same,valid,anti,3,1,3,0.02739050756645156,1,f,change,2.2592574418422373,0.29863847243418573,0.5063194801250575,0.0353568883429034,0.35326548166722205,1.0011119385708298,5.522259938973548
1,24,male,371,105,105,same,catch,clock,5,0,2,0.10499272284778272,1,j,same,1.4167790792625965,0,0.5048509001671846,0.035333796453414834,0.353274782567496,1.001089167401915,4.7313775145303225
1,24,male,372,15,15,same,valid,clock,2,0,2,0.009598207556337002,1,j,same,2.809596154944302,0.007566235539112454,0.5057809901163637,0.035295309972752875,0.35332449427187385,1.0010683205591704,6.051028903988481
1,24,male,373,165,165,same,valid,clock,2,2,4,1.1994520166599614,1,f,change,1.353447009568299,0.5479295479066528,0.5059439162178023,0.03533700366097037,0.35332321138866973,1.0010314376813767,5.815909541375731
1,24,male,374,105,105,same,catch,anti,1,2,1,0.020678786058851983,0,j,same,2.3966172949267275,0,0.505619026176646,0.035320646906257025,0.3532997987804265,1.0010942989338218,5.6858101628677105
1,24,male,375,75,75,same,valid,anti,2,2,4,2.192042086249785,1,f,change,1.5554740925044825,0.5468497789585056,0.506167458526761,0.035359133386918984,0.3533017231038684,1.0010923746094704,7.100196986636547
1,24,male,376,45,355,change,valid,anti,5,1,3,0.6857456980133065,1,j,same,1.4859617354577495,0.2973525313686388,0.5051433974194879,0.035348228883776756,0.35331134472471604,1.0010625475870256,5.473665625607282
1,24,male,377,165,165,same,valid,clock,3,2,3,0.07052551364995452,1,f,change,0.8474116879588109,0.5458008964736731,0.5056924712098407,0.03531423249296495,0.35330011950100015,1.0010657547936717,4.1548388089968284
1,24,male,378,75,75,same,valid,clock,3,1,3,0.10103278470887744,1,j,same,0.8037369089843196,0.2961120900921391,0.5058011955188704,0.03535913338782848,0.3533020438244421,1.0010542088493821,4.119779870159618
1,24,male,379,165,115,change,valid,anti,2,1,3,0.03548549733204709,1,j,same,0.9087408570549087,0.29490140195027204,0.5058467378539717,0.035325136996107176,0.3533068546348659,1.0010683205591704,4.202895915236695
1,24,male,380,45,45,same,valid,anti,1,1,3,0.06898958235069585,1,f,change,0.8930191297058627,0.2936488360155169,0.5051215884141129,0.03532481627462403,0.3533026852655894,1.0011074484809797,4.213875146007922
1,24,male,381,75,25,change,valid,anti,2,0,2,0.2948776418561465,1,j,same,1.2706773428162705,0.005644285480394029,0.5049516064573254,0.035325778437254485,0.35327574472921697,1.0010824322689587,4.755522970335733
1,24,male,382,75,75,same,valid,clock,1,0,2,0.18449777387832,1,j,same,1.731729665828425,0.0037710696547786915,0.505203051465287,0.035335720777766255,0.3532921014839303,1.0010750556930361,5.120966857367421
1,24,male,383,165,115,change,valid,anti,4,2,2,0.1661814162889641,1,j,same,1.7825507428215133,0.5447746919388549,0.5050013181617032,0.03534309735368879,0.3532962708522973,1.001050680921253,5.202857749477516
1,24,male,384,45,355,change,valid,anti,4,1,3,0.9144682868191012,1,j,same,1.5829200847474567,0.29239552392694046,0.5049965073521889,0.035282160425595066,0.3533379645396053,1.0010920538879873,5.77944809103883
1,24,male,385,75,125,change,valid,clock,3,0,2,0.10060815053839178,1,j,same,1.1222609652795654,0.0018498035604516683,0.5058258910103177,0.035338286543264985,0.35329049788015254,1.0010702448835218,4.461830391362128
1,24,male,386,135,185,change,valid,clock,2,0,1,0.04908052590508305,0,j,same,0.36062024812235904,0,0.5051642442640514,0.035361699152417714,0.35329659157287097,1.001026947592436,3.6367026964271645
1,24,male,387,45,45,same,catch,clock,1,2,2,0.2533940265129786,1,j,same,1.0491478772455594,0,0.5054083126951809,0.035328664922417374,0.3532686888747776,1.001086280916752,4.578925508775683
1,24,male,388,75,75,same,catch,anti,2,1,2,0.17607051749564562,1,j,same,5.3754317702050685,0,0.5058621324460546,0.03529627213447384,0.3533434167911764,1.001055171011103,8.842312870712703
1,24,male,389,165,165,same,valid,clock,2,1,2,0.13410036889308685,1,f,change,1.031068211514139,0.2911260055704392,0.5059743846813944,0.03532032618568337,0.353320645623171,1.0010647926310412,4.402846652542394
1,24,male,390,105,155,change,valid,clock,4,0,1,0.8347615024867991,0,f,change,0.08820684430702386,0.0017202569656769584,0.5055343559197354,0.03527606673287664,0.3533562456177606,1.0010526052465138,4.213806191063668
1,24,male,391,105,105,same,valid,anti,2,0,1,0.2653232319144081,0,f,change,1.7238174868452916,0.0034482328744364077,0.5057348063392055,0.03534951176698087,0.3532921014830208,1.0010442665079609,5.356962749576269
1,24,male,392,45,95,change,valid,clock,3,0,1,0.14625824813356303,0,j,same,2.0598185747294337,0.005109912812613082,0.505211390202021,0.03531904330338875,0.35331743841652496,1.0010603025421005,5.485972319240318
1,24,male,393,45,45,same,valid,anti,3,0,1,0.13883869610344846,0,j,same,1.1821536264851602,0.0068727586091198445,0.5049900929379874,0.035350794649275485,0.35332449427187385,1.001040417861077,4.613703175583396
1,24,male,394,15,65,change,catch,clock,1,1,1,0.23546253373206127,0,f,change,1.672254582937967,0,0.5055696351928418,0.03530878024139383,0.3533283429196672,1.0010362484918005,5.191744457465575
1,24,male,395,105,155,change,catch,clock,2,0,1,0.1687048465382759,0,f,change,1.77659335633507,0,0.5055850297858342,0.035328023481270066,0.3532850456294909,1.0010846773129742,5.180161630390103
1,24,male,396,15,15,same,valid,anti,2,0,2,1.184921125164692,1,f,change,1.8273101991089788,0.008631806986140744,0.5052351235326569,0.0353395694264691,0.3532949879700027,1.0010609439841573,6.216030068204418
1,24,male,397,135,185,change,valid,clock,2,1,2,0.18630760063115304,1,j,same,0.7048349924207287,0.2898303179261519,0.5053884280132479,0.03530942168345064,0.35331968346145004,1.0010657547936717,4.1899301406228915
1,24,male,398,15,15,same,catch,clock,1,0,2,0.1086386754486739,1,f,change,1.3953908590765423,0,0.5058537937084111,0.035384149598939985,0.3533010816627211,1.0010869223578993,4.767923635125044
1,24,male,399,45,95,change,valid,clock,2,0,1,0.4672162536107862,0,j,same,1.2778281309228987,0.006840711317966541,0.5057040171541303,0.03531423249296495,0.3532872906735065,1.001100713347114,5.038078203245277
1,24,male,400,75,25,change,valid,anti,1,2,3,0.2686391629449645,1,f,change,1.5839335620712518,0.5436825209156608,0.5059163342393731,0.03533283429169387,0.35329883661779604,1.0010654340721885,5.179793443057861
1,24,male,401,75,125,change,catch,clock,3,1,1,0.012564232331897074,0,j,same,1.835707949189782,0,0.5017543420763104,0.03531551537616906,0.35329402580737224,1.0010756971341834,5.082230214581614
1,24,male,402,15,325,change,catch,anti,1,1,1,0.004317220968005131,0,j,same,0.10888595108735899,0,0.50465269479173,0.03532417483347672,0.3532962708522973,1.0010699241620387,3.376440115997866
1,24,male,403,165,165,same,catch,anti,4,2,1,0.07971095370157855,0,f,change,1.6464327201792912,0,0.5061870224872109,0.03535720906256756,0.35328825283613696,1.0010817908269019,4.945089734436806
1,24,male,404,75,125,change,valid,clock,5,1,1,0.11312844413896528,0,j,same,0.8331174883214771,0.28859045166931396,0.5055603342934774,0.03534309735368879,0.3532837627462868,1.0010670376759663,4.108118145798471
1,24,male,405,45,45,same,valid,clock,5,2,1,0.11112618498282245,0,f,change,0.8064405842505948,0.5425970887954742,0.5054339703492587,0.035313591050908144,0.3533058924731449,1.0010657547936717,4.119837599880157
1,24,male,406,45,355,change,valid,anti,3,2,2,0.0638487506967067,1,f,change,1.491459849941748,0.5463147494600823,0.5050725181517919,0.03532192978855164,0.3532885735567106,1.0011122592914035,4.802650628066658
1,24,male,407,45,45,same,valid,clock,2,2,3,0.2537522715037994,1,f,change,1.0237349333438033,0.5453386340961629,0.5051597541742012,0.035330909968251945,0.3532978744560751,1.0010821115474755,4.496757514003548
1,24,male,408,75,75,same,catch,anti,3,0,1,0.06487986765750975,0,j,same,0.6251715053795124,0,0.504404456991324,0.03534758744262945,0.3532927429250776,1.0010744142518888,3.8712155762486873
1,24,male,409,75,25,change,valid,anti,3,1,3,0.020386609527122346,1,f,change,4.8784863138871515,0.2907871551742125,0.5059246729770166,0.0352937063698846,0.35333155012631323,1.0010538881288085,8.112272440665038
1,24,male,410,15,15,same,valid,anti,5,2,3,0.10085991626601754,1,f,change,0.8189182220021394,0.5443798227047766,0.5058672639761426,0.0353437387948361,0.3533200041820237,1.001070565603186,4.155830477315249
1,24,male,411,75,75,same,valid,clock,4,2,3,0.21482030982951983,1,f,change,0.7941826401593062,0.5433553648440864,0.505022806447414,0.03534983248755452,0.35332032490350684,1.0010436250668135,4.201769864957896
1,24,male,412,45,355,change,catch,anti,4,1,3,0.04021420292247058,1,f,change,2.648337800972513,0,0.5052803451462751,0.0353312306888256,0.3532901771595789,1.0010442665088704,5.968688361495879
1,24,male,413,75,75,same,valid,anti,2,1,3,0.08113880213386437,1,f,change,1.5857119581987718,0.2895287506805114,0.5053614874768755,0.03536201987299137,0.3532943465279459,1.0010266268718624,4.88492349849821
1,24,male,414,165,215,change,valid,clock,3,1,3,0.36604812477798987,1,j,same,0.6102676157433962,0.28833442498225687,0.5057370513841306,0.03531519465468591,0.35332224922694877,1.0010670376768758,4.225827443297931
1,24,male,415,105,105,same,catch,clock,1,0,3,0.0241146666203349,1,j,same,0.6225335778508452,0,0.5057498802107148,0.035282801866742375,0.3533337951712383,1.0010192502968493,3.8838930229785547
1,24,male,416,105,105,same,valid,clock,5,2,3,0.08369270084676828,1,f,change,1.0054743811533626,0.542333966288662,0.5063374404826391,0.03535015320812818,0.3532901771595789,1.001072810648111,4.285183859539757
1,24,male,417,15,15,same,valid,clock,5,1,1,0.43857621830557036,0,f,change,0.28023225308243127,0.2871911157289257,0.5055535991596116,0.03528568835281476,0.35332449427096435,1.00104779443609,4.049586623125833
1,24,male,418,75,75,same,valid,clock,2,0,1,0.03340145440415654,0,j,same,0.7925832061673646,0.008564612502805657,0.5050346731122772,0.03533700366097037,0.35329466724942904,1.00107184848639,4.001850878998994
1,24,male,419,45,45,same,valid,clock,2,1,4,1.066299056632488,1,f,change,3.3402384494056605,0.2892451905074013,0.504987206451915,0.035325136996107176,0.35330364742731035,1.0010230989446427,7.734742195101717
1,24,male,420,75,75,same,valid,anti,5,2,4,0.02607010055817227,1,f,change,0.7590935535781682,0.5413081084983601,0.5056709829259489,0.03531166672837571,0.35328632851178554,1.0010859601952689,4.01391703212812
1,24,male,421,45,95,change,valid,clock,5,1,4,0.04889258359071391,1,j,same,1.0671483249725497,0.2880932042326979,0.5054467991758429,0.03529915862145572,0.3533033267076462,1.0010670376768758,4.413795414849119
1,24,male,422,135,135,same,catch,clock,5,0,2,0.0269075022342804,1,j,same,1.2905485542232782,0,0.5056357036510235,0.03531391177239129,0.3532892149978579,1.0010776214585348,4.590653622315585
1,24,male,423,165,215,change,valid,clock,1,1,1,0.06758803301363514,0,j,same,0.020150559112153132,0.28698777171001566,0.5059288423453836,0.03532192978946114,0.35332385283072654,1.0010365692123742,3.3309551895490586
1,24,male,424,75,125,change,catch,clock,2,0,2,0.7925203449158289,1,j,same,2.9671986139737783,0,0.5055936892440513,0.035335720777766255,0.35327991409758397,1.0010910917271758,7.075910093015409
1,24,male,425,165,165,same,valid,anti,4,1,3,0.3721880013263217,1,f,change,1.0773559018052765,0.288978087174004,0.5053582802702294,0.03530076222432399,0.3533267393167989,1.001064151189894,4.814668031653127
1,24,male,426,135,185,change,valid,clock,3,2,3,0.31684861150370125,1,j,same,0.6869387789138273,0.5402704390122641,0.5053037577554278,0.03533443789547164,0.35329466724851954,1.0010785836202558,4.260896003755988
1,24,male,427,45,355,change,valid,anti,4,0,2,0.3412804708696058,1,f,change,1.043218714179602,0.010327286136830094,0.5055571270868313,0.035320005465109716,0.35332096634465415,1.0010647926319507,4.6969337179407376
1,24,male,428,45,45,same,valid,anti,2,1,4,0.3481711545109647,1,f,change,0.815251101836111,0.2878655501849108,0.5053659775667256,0.03530942168254114,0.35330140238329477,1.0010930160506177,4.731721968531929
1,24,male,429,165,115,change,catch,anti,1,1,3,0.16379429232620168,1,f,change,1.742363159713932,0,0.5058669432564784,0.035323854112903064,0.3532805555396408,1.0010888466822507,5.320968909980365
1,24,male,430,165,165,same,catch,clock,4,1,3,0.1428842666618948,1,j,same,0.6450577906580293,0,0.5061642513192055,0.03534726672205579,0.3533309086851659,1.001056133172824,4.014074826698561
1,24,male,431,45,45,same,valid,clock,1,1,4,0.11727728675487015,1,f,change,3.706592541705504,0.2867955213756902,0.5061392351071845,0.035376131582779635,0.35329049788015254,1.0010715277658164,7.1592737344517445
1,24,male,432,105,155,change,valid,clock,5,2,3,0.9499922706318102,1,f,change,2.129848574942116,0.539245299683166,0.5048723884519859,0.035302365828101756,0.35332096634374466,1.0010381728152424,6.262613142234841
1,24,male,433,165,215,change,catch,clock,4,0,1,0.33057256978736405,0,j,same,0.5380794861284812,0,0.5055478261874669,0.03535688834199391,0.3533058924722354,1.0010397764190202,4.060939814199628
1,24,male,434,15,325,change,valid,anti,3,2,2,0.49163143550049426,1,j,same,1.6906398954706674,0.5382647859074099,0.5057906117363018,0.03531166672746622,0.3533074960760132,1.0010792250623126,5.427164656068271
1,24,male,435,15,325,change,valid,anti,1,1,2,0.07912563847457932,1,j,same,1.039777381366548,0.28575605474312715,0.5050282586989852,0.0353228919511821,0.35332738075703674,1.0010493980389583,4.366258838260364
1,24,male,436,15,15,same,valid,anti,3,0,2,0.1051011264353292,1,j,same,0.8035473630670822,0.008499899006183198,0.5058284567758164,0.035282160425595066,0.3533886384057041,1.0010744142509793,4.119848183662725
1,24,male,437,105,105,same,valid,anti,3,2,2,0.1817180878124418,1,f,change,1.7774981093516544,0.537319263116466,0.5057540495799913,0.03531102528631891,0.35333828526108846,1.0010647926319507,5.179851814220456
1,24,male,438,45,45,same,valid,anti,4,1,2,0.2508853494155119,1,f,change,1.1175479750017985,0.28473609986775394,0.5055487883500973,0.0353270613204586,0.3533129483266748,1.001052925966178,4.6258546404114895
1,24,male,439,105,155,change,valid,clock,1,0,1,0.36734159124898724,0,j,same,1.4913418247342634,0.00677998146925507,0.5057954225467256,0.035354001855921524,0.3532937050867986,1.001083073710106,5.085791496924685
1,24,male,440,75,125,change,valid,clock,4,1,2,0.19941962387110834,1,j,same,1.843374456138008,0.28367698646232953,0.5054840027733007,0.03532802348217956,0.35331262760701065,1.0010805079446072,5.261871956761752
1,24,male,441,45,45,same,valid,clock,4,0,1,0.0742346482238645,0,j,same,0.38437731119302043,0.008437530798370452,0.5058406441612533,0.035340852308763715,0.35329113932129985,1.001051001642736,3.6729075702269256
1,24,male,442,135,135,same,valid,anti,1,2,4,0.8589913078285463,1,f,change,0.8555862164521386,0.5364017977971327,0.5051100424698234,0.03532449555405037,0.35331262760701065,1.0010570953354545,5.014841669825728
1,24,male,443,15,15,same,catch,clock,5,1,4,0.6555180953810122,1,f,change,1.4187505492345736,0,0.5045718731817033,0.035348549605259905,0.3535053807308941,1.0008441368090644,5.367390982232791
1,24,male,444,105,55,change,valid,anti,3,0,1,1.2808955034324754,0,f,change,0.3570878306381928,0.01012740671576573,0.5055641829412707,0.03530910096196749,0.3533212870652278,1.001059019659806,4.885056918297778
1,24,male,445,135,135,same,catch,anti,1,0,1,0.1932605040829003,0,j,same,0.37114437625950814,0,0.5058470585745454,0.035325778437254485,0.35328151770136174,1.0010824322680492,3.7429382118789363
1,24,male,446,15,15,same,catch,clock,4,1,2,0.6438233367907742,1,f,change,3.303963658499015,0,0.5061023522293908,0.03534694600148214,0.3532638780643538,1.0010907710056927,7.229263644579987
1,24,male,447,105,105,same,valid,anti,4,0,1,0.03154287810866663,0,j,same,0.8028145163307272,0.011829919078579665,0.506106842319241,0.035310063124597946,0.3532664438298525,1.0010936574926745,4.1081396340832725
1,24,male,448,15,65,change,valid,clock,2,0,2,0.04624246867660986,1,f,change,0.7872990123723866,0.013442116478627142,0.5058810549653572,0.03535175681190594,0.35330076094123797,1.0010724899275374,4.131818441310315
1,24,male,449,165,215,change,valid,clock,4,1,2,0.26323758538455877,1,j,same,1.0530988352065833,0.28261537191849084,0.5054304424211296,0.035299800062603026,0.3533270600364631,1.001076017854757,4.6026800060808455
1,24,male,450,105,155,change,catch,clock,4,2,1,0.1491623738211274,0,f,change,3.3288570349113797,0,0.5054140856673257,0.03532674059897545,0.3532991573383697,1.0010734520892584,6.781006472784611
1,24,male,451,165,115,change,catch,anti,5,2,1,0.8076724723523512,0,j,same,2.2623616972277887,0,0.5032976499514916,0.035313270331243984,0.35329562941115,1.001089488123398,6.33214121459514
1,24,male,452,75,75,same,valid,anti,4,2,1,0.3315132435191117,0,j,same,4.542796645775525,0.5355060038189148,0.5047004821717564,0.03533732438154402,0.35332096634374466,1.0010362484918005,8.217654839128954
1,24,male,453,135,135,same,catch,clock,5,0,1,0.07648578662247019,0,j,same,0.67117054706614,0,0.5047835488248893,0.035310063124597946,0.35330653391429223,1.0010657547936717,3.9662755798790386
1,24,male,454,75,25,change,valid,anti,1,0,2,0.10318931050824176,1,f,change,2.3074755498601007,0.011710775669694307,0.5053329433376348,0.0353479081632031,0.3533103825620856,1.001072810648111,5.603154993395947
1,24,male,455,75,125,change,catch,clock,5,2,2,0.1408762345345167,1,j,same,1.021683924645913,0,0.5054371775559048,0.035344059515409754,0.35330717535543954,1.0010737728107415,4.355412385846648
1,24,male,456,165,115,change,catch,anti,2,0,2,0.06239396172804845,1,j,same,0.7771151688684768,0,0.5054291595388349,0.03532994780562149,0.3532811969807881,1.0010503602015888,4.013879187088605
1,24,male,457,15,325,change,valid,anti,1,0,2,0.10535770297337876,1,j,same,0.8056237086984765,0.00994178266064022,0.5055000388074404,0.03532770276069641,0.35331391048930527,1.001076980016478,4.108091846703246
1,24,male,458,165,165,same,valid,clock,5,0,2,0.1394544797940398,1,f,change,1.810552543988706,0.008263281869429873,0.5053999739575374,0.0353437387948361,0.3533068546348659,1.0010747349724625,5.155935673696149
1,24,male,459,105,155,change,valid,clock,2,2,3,0.6498522439860608,1,j,same,1.274239266602308,0.5390281151501647,0.505657512657308,0.035316156816406874,0.3533177591380081,1.0010689620003177,5.061872790635789
1,24,male,460,165,165,same,valid,clock,4,0,3,0.0980937004687803,1,j,same,1.415149497526727,0.006670423597068376,0.5057774621882345,0.03532192978946114,0.35333219156746054,1.0010320791234335,4.708958818823703
1,24,male,461,15,15,same,catch,anti,5,1,2,1.1252837576148522,1,j,same,2.030023624284695,0,0.5055234514165932,0.035345663118278026,0.35328408346686047,1.0010766592959044,6.393008545923294
1,24,male,462,15,325,change,catch,anti,3,2,2,0.5646556839083132,1,j,same,1.2402845690376125,0,0.5055119054713941,0.03530781807967287,0.35326965103649854,1.001018288134219,5.074047026630069
1,24,male,463,165,215,change,catch,clock,5,0,3,0.7511509061314428,1,j,same,2.1170319354405365,0,0.5054429505280496,0.035346625280908484,0.3532754240095528,1.0011003926265403,6.063244192228922
1,24,male,464,135,135,same,catch,clock,1,2,1,0.4416981133290392,0,j,same,1.5622416194082689,0,0.5053752784660901,0.035303007269249065,0.3532706131982195,1.0010747349724625,5.27402919456199
1,24,male,465,45,355,change,valid,anti,1,2,4,0.8291485700019621,1,j,same,0.9903107077725508,0.5381074456432918,0.5052255019118093,0.03532225051003479,0.35325361500326835,1.0010959025366901,5.049844161825604
1,24,male,466,165,165,same,valid,clock,1,0,1,0.022680403774756996,0,j,same,0.9264808795951467,0.005131312050889181,0.505333264057299,0.03527350096737791,0.3533260978747421,1.001084998033548,4.178638207196855
1,24,male,467,135,135,same,valid,anti,2,1,4,0.12288284266287519,1,f,change,1.3485226643679198,0.28154004165931634,0.5053961253097441,0.0353395694255596,0.3533033267076462,1.001040417861077,4.743946557673553
1,24,male,468,45,45,same,valid,clock,2,0,1,0.3379090551634363,0,j,same,1.212871290304065,0.006645231602479207,0.5053832964822504,0.035337645102117676,0.3532664438298525,1.0010965439778374,4.790812507336341
1,24,male,469,45,45,same,valid,clock,1,0,2,0.48904899264834967,1,f,change,1.901535867154962,0.008156755373728841,0.5057088279645541,0.03532930636447418,0.35328921499694843,1.0010731313686847,5.651034420383439
1,24,male,470,165,215,change,valid,clock,5,1,2,0.09806387344633549,1,j,same,0.6796978682987174,0.2804397705016587,0.505543977538764,0.035322571230608446,0.3533158348136567,1.00102374038579,3.966921832033222
1,24,male,471,105,105,same,catch,anti,4,0,1,0.4356275124455351,0,j,same,0.8790437264151478,0,0.5049814334797702,0.03532481627553352,0.3532808762602144,1.0010840358727364,4.507557461919532
1,24,male,472,15,325,change,valid,anti,2,1,2,0.05188811466905463,1,j,same,1.33412006114213,0.27934057610013746,0.5059772711674668,0.035325778437254485,0.35332513571211166,1.0010667169553926,4.615020696104693
1,24,male,473,135,185,change,valid,clock,5,0,2,0.3030743000745133,1,f,change,1.0839274683785334,0.006620834300676892,0.5052777793807763,0.03534470095655706,0.35331326904815796,1.0010195710165135,4.613796826020007
1,24,male,474,45,45,same,catch,anti,4,1,2,0.06545363694021944,1,j,same,1.5985734985943054,0,0.5058739991109178,0.03534053158819006,0.35332577715416846,1.001065434073098,4.873876916386507
1,24,male,475,75,25,change,valid,anti,5,0,2,0.0992925543405363,1,f,change,0.9071411023423934,0.005135169054813538,0.505680604545887,0.0352770288955071,0.3533219285054656,1.0010888466822507,4.213997982024921
1,24,male,476,45,95,change,valid,clock,1,1,2,0.0329620670827353,1,j,same,0.6837553055220269,0.27829969541488825,0.5056671342772461,0.03532962708504783,0.35332224922694877,1.0010384935367256,3.9078604788101075
1,24,male,477,165,215,change,valid,clock,1,2,2,0.14522648973161267,1,j,same,1.0486690412826647,0.5372181633914452,0.5054917000697969,0.0353014036654713,0.3533296258028713,1.0010708863246691,4.449793423815208
1,24,male,478,15,15,same,valid,anti,5,0,1,0.11386064943417296,0,f,change,0.9571048929783501,0.0036727496038125307,0.5050147884303442,0.03534502167713072,0.3532645195055011,1.001064151189894,4.26065289748658
1,24,male,479,15,325,change,valid,anti,4,1,1,0.13273025018133922,0,j,same,1.4942324801522773,0.27730157325669724,0.5053088892864253,0.03534951176698087,0.3533033267067367,1.0010327205645808,4.837725923659491
1,24,male,480,105,55,change,valid,anti,5,0,3,0.2966688668102506,1,j,same,1.220907908907975,0.005024843075326801,0.5057797072331596,0.0353437387948361,0.3532824798639922,1.0010840358727364,4.673908539443801
