subject,age,gender,ntrial,memory_ori,test_ori,type,trial_type,which_change,trial,quest,pas,pas_rt,vis,test_key,test,test_rt,contrast,fix_dur,target_dur,mask_dur,retention_dur,trial_dur
20,23,female,1,105,105,same,catch,clock,1,0,1,2.5674276726775815,0,j,change,1.6818101346449907,0,0.503814330954242,0.03528793339785352,0.3533264185956,1.0010423421845758,9.529275382956541
20,23,female,2,75,75,same,catch,anti,4,0,1,0.6031325429493108,0,j,change,1.042544238605899,0,0.499816547775481,0.03533283429197809,0.35326933031598173,1.001072810648452,6.945701348758689
20,23,female,3,45,45,same,catch,clock,1,0,1,0.28114470339437503,0,j,change,0.9395922613949779,0,0.500242785548835,0.035341173029451056,0.3533260978749695,1.0010247025476247,6.439798484787275
20,23,female,4,75,125,change,valid,clock,5,2,1,0.4499502562237012,0,j,change,0.6748075194885814,0.2,0.5002142414090258,0.03532834420252584,0.35327285824337196,1.0010901295647727,4.90869980480943
20,23,female,5,135,135,same,catch,clock,1,0,1,0.3266084622790686,0,j,change,1.484801368066087,0,0.4995971748357988,0.03533058924722354,0.35331166544472126,1.0010715277657027,7.075240428251959
20,23,female,6,15,65,change,valid,clock,2,2,2,1.8258890858113546,1,j,change,2.8374863453174157,0.3670372117912738,0.49968473157923654,0.03536137843173037,0.3532629159025191,1.0010750556931498,8.335480878954286
20,23,female,7,15,15,same,catch,clock,3,1,1,0.4806708065290195,0,j,change,1.4877635441943085,0,0.499591401863654,0.035319684744422375,0.35324431410356283,1.0011225223527163,7.216285361859605
20,23,female,8,15,325,change,valid,anti,4,0,2,1.637966977316637,1,j,change,2.1569937311937792,0.2,0.5006331026067983,0.035368434286624506,0.3532702924779869,1.0010763385757855,7.512137994559339
20,23,female,9,165,115,change,catch,anti,2,2,1,0.7223245321166587,0,j,change,2.982164402699482,0,0.49950801448881066,0.03535175681167857,0.3532731789640593,1.0011064863190313,9.030463653046922
20,23,female,10,105,155,change,catch,clock,1,2,1,0.5875801561139724,0,j,change,0.569257704833035,0,0.4994361730583705,0.035321609068432736,0.3533187212995017,1.0010773007378475,6.415373681276719
20,23,female,11,45,95,change,valid,clock,2,2,2,1.1336741311196192,1,j,change,1.350893752297111,0.3227502669243441,0.5004637620920676,0.035368113565937165,0.35329562941115,1.0010388142571855,6.1690521870262955
20,23,female,12,45,45,same,valid,clock,2,2,2,2.4400852090681155,1,f,same,3.3756902710667873,0.29077319917223154,0.49978992795968225,0.03527542529161565,0.3533540005735176,1.0010413800225706,9.478351033907302
20,23,female,13,135,185,change,valid,clock,3,0,1,0.8771033663482513,0,j,change,1.5195187393881042,0.0723357464867447,0.4991674091351115,0.03534181447071205,0.35326836815397655,1.001093657492106,6.132273543944166
20,23,female,14,135,185,change,valid,clock,3,1,2,2.5051308893134774,1,f,same,1.8215227945802326,0.2,0.5002312396046591,0.03530300726947644,0.35317888708641476,1.001195967386593,7.94764074666341
20,23,female,15,45,95,change,valid,clock,1,0,2,1.5863774535932862,1,j,change,1.9801153183249198,0.15406686854268764,0.570429297448527,0.03531551537571431,0.35331775913755337,1.0010481151566637,7.404754619820892
20,23,female,16,165,165,same,catch,anti,1,1,1,1.2207257395658644,0,j,change,0.3020909704943051,0,0.5000362414359643,0.03531679825834999,0.3532901771595789,1.0010750556931498,6.7693402583340685
20,23,female,17,135,85,change,valid,anti,2,1,1,0.28031756478083025,0,j,change,1.0150296121396423,0.09338226537841544,0.5005073801033859,0.03533796582269133,0.3532529735616663,1.0009910268770454,5.0740473473514385
20,23,female,18,105,105,same,catch,clock,1,1,1,0.425838476089325,0,j,change,0.4423103690917287,0,0.5001090450284664,0.03532994780596255,0.35326965103661223,1.0009759530055362,6.180880044695641
20,23,female,19,135,135,same,valid,anti,3,1,2,1.3735882677812015,1,f,same,1.7721632416905777,0.19541626699530124,0.5002665188785613,0.03532225050980742,0.353335719495135,1.001051001642736,6.793211818684995
20,23,female,20,105,105,same,valid,anti,5,2,1,0.6192163639383352,0,j,change,0.6245351955658407,0.2661670952893518,0.49964913158464697,0.035308138800246525,0.35332866364035453,1.0010689620003177,4.9432997923653375
20,23,female,21,165,115,change,valid,anti,2,0,2,1.055289357397669,1,f,same,1.4273102632539576,0.09412333650666384,0.5001067999838824,0.03527382168829263,0.35336971588640154,1.00102406110625,6.062455219376147
20,23,female,22,45,45,same,valid,anti,5,2,2,0.8685593676414101,1,f,same,3.579423587979136,0.32791426086480197,0.5006080863944362,0.03535015320824186,0.35332353210958445,1.001069603441806,8.053988835072005
20,23,female,23,105,155,change,valid,clock,5,0,1,0.7993571474846703,0,j,change,0.6579254247465087,0.05063924580022716,0.4994233442314453,0.03534181447082574,0.3533126276066696,1.0010535674081211,5.155297118837893
20,23,female,24,165,215,change,valid,clock,2,2,2,0.5163493777056374,1,j,change,3.1280159770209366,0.3126833262282618,0.5001715855596558,0.03539409194036125,0.3532888942770569,1.0009082809436904,7.311913361800521
20,23,female,25,135,185,change,valid,clock,1,2,1,0.8817881332068964,0,j,change,0.17348582959846226,0.29922636746565767,0.4993992901810316,0.0353251369958798,0.35330108166249374,1.001044907949904,4.672537137850213
20,23,female,26,165,165,same,valid,clock,1,2,2,0.497151038268953,1,f,same,1.4439258391175827,0.3372510981242039,0.5000904432295101,0.03534213519139939,0.3532805555395271,1.0011177115425198,5.532885735563241
20,23,female,27,135,135,same,valid,clock,5,1,2,0.7532019148306972,1,f,same,0.4552716536165917,0.15097428254442063,0.49987652254128534,0.03533123068871191,0.3532568222098007,1.0010917331680957,4.802493795658506
20,23,female,28,15,15,same,valid,anti,3,0,2,0.35004993620862024,1,j,change,3.435768950261945,0.08384725221099756,0.5000076972961551,0.03530749735887184,0.353256822209687,1.0010840358720543,7.440768023379178
20,23,female,29,15,15,same,valid,clock,4,0,1,0.1433323134415332,0,j,change,1.3644660097024826,0.05366849446467606,0.49995413694387025,0.035319684744422375,0.35330204382455577,1.0010266268717487,5.167632998051886
20,23,female,30,75,75,same,valid,clock,1,0,1,0.559969313446004,0,j,change,0.24553027635215585,0.07697055224402233,0.5001064792630814,0.035306855917610847,0.353256822209687,1.0011199565873312,4.519700908729874
20,23,female,31,15,15,same,catch,clock,1,2,1,0.2641740897466889,0,j,change,0.4175763908533554,0,0.5002334846493568,0.03531455321365229,0.35332866364035453,1.0010477944359764,5.980588702037039
20,23,female,32,135,85,change,valid,anti,2,0,2,1.4737175823562438,1,j,change,1.7622391819313634,0.09978450644197583,0.5000048108100827,0.03527189736428227,0.35332192850626143,1.0010654340729843,6.934725325194677
20,23,female,33,15,15,same,catch,anti,5,2,1,0.28942923907732165,0,j,change,0.3241020302260722,0,0.4991212253581807,0.03532128834785908,0.353276386170819,1.0010907710060337,5.885227862416059
20,23,female,34,105,155,change,valid,clock,5,1,1,0.7483189425967112,0,f,same,1.3280343863876851,0.11732462428755351,0.5000981405256653,0.03533956942601435,0.3532577843718627,1.0011013547882612,5.685767507018909
20,23,female,35,75,25,change,valid,anti,4,0,1,0.45356125027171856,0,j,change,0.880470612685599,0.07817760178246838,0.4998284144403442,0.03528344330845812,0.35332449427164647,1.0010923746093567,5.061203446592685
20,23,female,36,165,165,same,valid,anti,3,2,2,0.3747223360780936,1,f,same,0.9553752463937144,0.32735222499846484,0.49977421264679833,0.03530685591749716,0.35333828526052,1.0010657547936717,4.932145768828491
20,23,female,37,135,135,same,valid,clock,4,1,2,0.6348245561707699,1,j,change,0.2848522343647346,0.16255925515413544,0.4999127639771359,0.035311987448267246,0.35333924742258205,1.001052605246059,4.7557612657947175
20,23,female,38,105,105,same,catch,anti,5,2,2,0.6527355228291754,1,f,same,1.693015473489595,0,0.4997014090541825,0.03532257123049476,0.353335078053874,1.0010721692070774,7.463809879351288
20,23,female,39,15,65,change,valid,clock,5,0,1,2.585799835662783,0,j,change,1.9890573313858795,0.09621041157677036,0.5000991026877273,0.035362340593792396,0.35329049788026623,1.0010679998383694,8.288711786933732
20,23,female,40,75,125,change,valid,clock,2,0,1,0.47786385920619523,0,j,change,2.1666724396387735,0.11386491561033064,0.4997408576967928,0.03534245591220042,0.35326323662320647,1.0010891674027107,6.427311546136593
20,23,female,41,45,95,change,valid,clock,1,2,1,0.2992285384951856,0,j,change,0.6067069748406766,0.3185110189390006,0.4997649117473202,0.035303969431424775,0.3533507933667579,1.0010542088493821,4.6851475539596095
20,23,female,42,75,75,same,valid,clock,4,0,1,0.27986759367763625,0,j,change,1.458627995450911,0.13005745937752816,0.49956157484109553,0.035329627085275206,0.35333539877444764,1.0010340034472165,5.531809076266768
20,23,female,43,15,325,change,valid,anti,1,0,2,0.9092184101363046,1,j,change,2.1930199635789904,0.14637572114958994,0.5007322052945256,0.03529980006271671,0.3533446996740395,1.0010644719109223,6.85284758263208
20,23,female,44,135,135,same,valid,clock,5,0,1,0.3069729805662291,0,j,change,1.1921655637082722,0.13017764861214015,0.49984765768078887,0.035302045107414415,0.3533559248974143,1.0011000719056256,5.296797475800076
20,23,female,45,45,95,change,valid,clock,4,1,2,2.149585083666352,1,j,change,1.5288449758144225,0.13960881741287956,0.5003704323763714,0.03529723429733167,0.3533305879643649,1.001045870111966,7.499780947780891
20,23,female,46,75,125,change,valid,clock,4,1,1,2.0065799053104456,0,j,change,0.3743717883834279,0.1208326958351777,0.4998284144403442,0.03534951176698087,0.35330108166249374,1.0010821115479303,6.098359898626654
20,23,female,47,135,135,same,valid,clock,3,2,2,1.340974182627292,1,f,same,1.0695498813654467,0.3464623521940506,0.49934476766679836,0.035352398252939565,0.3533090996793362,1.0010638304696613,6.003450954432651
20,23,female,48,105,105,same,valid,clock,2,0,2,0.5507299923219762,1,f,same,1.8295927681336934,0.14393046706406873,0.49919018030266216,0.035319684744422375,0.35322795734919055,1.001358252046657,6.0152682283196555
20,23,female,49,75,75,same,catch,clock,3,0,2,1.445142011906455,1,f,same,1.8512135108072698,0,0.49991821622859334,0.03533860726406601,0.35330653391395117,1.0010769800172739,8.55890420009382
20,23,female,50,75,75,same,valid,anti,3,0,2,0.6928246446896082,1,f,same,1.443293698672619,0.12982454475020833,0.5005904467574283,0.03530300726947644,0.3533267393163442,1.0010737728104004,5.780654642207196
20,23,female,51,135,135,same,catch,anti,4,2,1,0.4059156286542702,0,j,change,1.8527407826481976,0,0.5007517692555439,0.035323533392443096,0.3533289843610419,1.0010564538940798,7.629713872259458
20,23,female,52,165,115,change,valid,anti,1,1,2,0.47900979416795053,1,f,same,1.380633859507725,0.14814201876856137,0.49994804325115183,0.03532225050969373,0.3532776690535684,1.001071207045129,5.4744382417065935
20,23,female,53,75,25,change,catch,anti,2,0,1,0.527276010286073,0,j,change,0.8136609687431928,0,0.4989214163794031,0.035313911772277606,0.3533119861654086,1.0010631890282866,6.638197575480035
20,23,female,54,135,135,same,valid,anti,5,0,2,0.301591929128449,1,f,same,1.5013662700634995,0.11757639751703705,0.5004118053431057,0.03532385411313044,0.35331679697549134,1.0010644719109223,5.427503657819329
20,23,female,55,105,105,same,valid,anti,2,0,2,0.44664426753490716,1,f,same,1.1669723134672267,0.1066903605550397,0.4994217406280086,0.03535303969431425,0.35328023481883974,1.0011074484810933,5.226377479251028
20,23,female,56,135,135,same,valid,clock,2,0,2,0.3287354817769028,1,f,same,1.0424986962705134,0.09685244479549115,0.4992742091188802,0.03534470095689812,0.3533238528302718,1.001041700743258,4.943273172549652
20,23,female,57,165,115,change,catch,anti,2,2,2,1.3814651674899778,1,j,change,2.1092268771620866,0,0.4998935207369186,0.03535592618038663,0.35323918257279274,1.0010888466820234,8.700784931773
20,23,female,58,45,95,change,valid,clock,4,0,2,1.1527489930973616,1,j,change,1.2355138490393074,0.08784377504279688,0.5001552288052835,0.03529755501801901,0.353294667249088,1.001102637670897,6.251778877208267
20,23,female,59,135,85,change,valid,anti,5,0,1,0.5492848249731423,0,j,change,0.9432693239016317,0.07951120622782654,0.49909396410112095,0.03529915862134203,0.35331326904815796,1.001084998033889,5.23717806860725
20,23,female,60,105,155,change,valid,clock,2,0,1,0.8755286278478707,0,j,change,1.6076883800976702,0.08700429164089425,0.5003091747279313,0.035313911772277606,0.3532969122937857,1.0010885259614497,6.216725390621718
20,23,female,61,165,165,same,catch,clock,1,0,1,0.263524951106092,0,j,change,1.0117345279536494,0,0.499569592857938,0.03529787573870635,0.3533260978749695,1.0010750556931498,6.544789283311161
20,23,female,62,15,325,change,valid,anti,5,1,1,0.24140709139066985,0,j,change,0.715758738515774,0.13346601163217658,0.5008604935634366,0.035340531588076374,0.35328568707029717,1.001090129564659,4.650111707010183
20,23,female,63,45,95,change,valid,clock,2,0,1,0.2727443875486415,0,j,change,0.4974201229130131,0.0945557032079092,0.4997934558871293,0.03532032618568337,0.3532962708525247,1.0010548502907568,4.555171332190298
20,23,female,64,45,45,same,valid,anti,1,1,1,0.02421729723550925,0,j,change,1.6698790049192667,0.1551628666649956,0.4993742739685558,0.0353414937501384,0.3533058924725765,1.0010574160561418,5.402132407605222
20,23,female,65,45,95,change,valid,clock,3,2,1,0.26966386549236177,0,j,change,1.318283515791336,0.3391674039713599,0.5001670954702604,0.0353459838395338,0.3533036474279925,1.0010461908326533,5.368357634338622
20,23,female,66,135,135,same,valid,clock,3,1,1,0.28474671726360157,0,j,change,0.49643230324261367,0.17698565640798555,0.4992777370462136,0.03530364871085112,0.3533337951711246,1.0010724899277648,4.554145667480611
20,23,female,67,165,165,same,valid,clock,3,0,1,0.23556259858150952,0,j,change,0.49412183152026046,0.10158600939545426,0.5006882665624062,0.03529755501801901,0.3533334744504373,1.001070244883067,4.50890833739038
20,23,female,68,75,125,change,valid,clock,5,1,1,0.23569473549844133,0,j,change,0.46086405997732527,0.19771113823063258,0.5001157801626732,0.03531455321365229,0.35329915733859707,1.0010538881286948,4.4968097914737655
20,23,female,69,135,135,same,catch,clock,3,1,1,0.21190078955021363,0,j,change,1.685873344840843,0,0.49972738742872025,0.035313270330902924,0.3533337951711246,1.001060943983589,7.1577682716169875
20,23,female,70,105,105,same,valid,anti,4,1,1,0.1998628598405503,0,j,change,0.41925953294082774,0.21774154979092328,0.4997062198643789,0.03533283429203493,0.35329146004232825,1.001051001642736,4.343294596690498
20,23,female,71,45,45,same,valid,clock,3,2,1,0.21577701959415663,0,j,change,0.4003924979585918,0.36291033430747777,0.49988389911663944,0.03529306492862361,0.3533402095845304,1.0010404178606223,4.319800845291411
20,23,female,72,15,15,same,valid,clock,5,1,2,0.6243860604532756,1,f,same,2.368488167652231,0.237319094451455,0.499425589276143,0.035320005465109716,0.35333860598120737,1.0010663962349327,6.557342611140939
20,23,female,73,135,135,same,valid,clock,1,1,1,0.28627527198716507,0,j,change,0.3704605997861563,0.2265418914940757,0.49949743070669683,0.03530845952082018,0.35331166544472126,1.0010638304696613,4.448576930305535
20,23,female,74,105,155,change,catch,clock,5,0,1,1.053597876572553,0,j,change,0.4122498619296948,0,0.4998774847032337,0.03532545771645346,0.35332224922694877,1.0010548502907568,6.722428445614355
20,23,female,75,105,55,change,valid,anti,2,0,2,0.44963274275835374,1,f,same,0.926517441752253,0.10868749105325608,0.5000314306258815,0.03533764510200399,0.35332000418225107,1.0010651133524107,5.167921325936277
20,23,female,76,135,135,same,valid,anti,5,1,2,0.3098270738280462,1,f,same,0.960620312266542,0.24378224726278303,0.4999320072174669,0.03532257123049476,0.35331615553423035,1.001047473715289,4.837702511050452
20,23,female,77,135,185,change,valid,clock,2,2,2,0.39720613808049166,1,j,change,1.4872619370630673,0.3848572682664039,0.49986241083161076,0.035369717169260184,0.3532805555395271,1.001066075514359,5.497422047237023
20,23,female,78,135,85,change,valid,anti,1,1,1,0.5154314751418951,0,j,change,1.6307122757119714,0.23407741723027586,0.4999618342400254,0.0353228919511821,0.353295308690349,1.0010487565980384,5.909749523569417
20,23,female,79,45,45,same,valid,anti,2,1,2,0.271873951644352,1,f,same,1.0134279331027756,0.24850149424892753,0.5000554846762952,0.03532866492332687,0.3532741411261213,1.001031758402405,4.8377791632910885
20,23,female,80,45,355,change,valid,anti,3,1,2,0.32322646279101264,1,j,change,2.7759313888680026,0.24009380464432292,0.5001116107938515,0.03533604149868097,0.35330268526593045,1.0010923746093567,6.828644717826705
20,23,female,81,45,355,change,catch,anti,2,1,2,0.24640071225655902,1,f,same,2.5181130206819944,0,0.4996270018582436,0.035331551409285566,0.3533379645398327,1.0010638304696613,7.840598618720151
20,23,female,82,105,105,same,catch,clock,4,2,1,1.2046393528113413,0,j,change,0.43054312762944846,0,0.5004551026338504,0.03531743969972467,0.3533402095845304,1.0010744142517751,6.911016049503928
20,23,female,83,75,125,change,catch,clock,4,2,1,0.9822093035935495,0,j,change,0.6779031154164841,0,0.5001661333081984,0.03528023610169839,0.35335624561810164,1.0010429836260073,6.875629654859722
20,23,female,84,45,45,same,valid,clock,5,1,1,0.7354105769829857,0,j,change,1.4464290639638193,0.23239646649980805,0.5000625405310757,0.03534021086738903,0.35330044022123275,1.0010628683075993,5.862871386520396
20,23,female,85,165,165,same,valid,anti,5,0,1,0.3196908381007688,0,j,change,0.715740457437505,0.10128213285111506,0.4997710054401523,0.03533636221936831,0.35334437895335213,1.0010586989387775,4.802649665905392
20,23,female,86,75,75,same,valid,clock,2,1,1,0.479715700367251,0,j,change,0.6731888422561951,0.24446780246904642,0.49927228479486985,0.03533892798486704,0.35330108166249374,1.0010779421791085,4.978171751051605
20,23,female,87,165,215,change,valid,clock,3,1,1,1.063104358016517,0,j,change,0.889554384283656,0.25618202421181746,0.4999448360442784,0.035346625280908484,0.35328632851155817,1.0010516430841108,5.792267296305454
20,23,female,88,165,115,change,valid,anti,1,0,1,0.2353281517700907,0,j,change,1.03999899935161,0.10785653885028135,0.4997491964343226,0.03530300726947644,0.3533014023830674,1.001094298933367,5.084825486260797
20,23,female,89,75,75,same,valid,anti,5,0,1,0.2649672319689671,0,j,change,0.5012722989065423,0.11459362097674229,0.49969082527218234,0.03531391177216392,0.3532904978803799,1.0010904502853464,4.578120179167399
20,23,female,90,45,45,same,catch,clock,2,2,1,0.3697332053015998,0,j,change,0.6539164163441455,0,0.5005567710870764,0.0353123081688409,0.353334436612613,1.001039134977873,6.463881400061155
20,23,female,91,135,135,same,catch,anti,1,1,1,0.37327428224330106,0,j,change,0.98953616734957,0,0.5003409260746139,0.03528023610169839,0.3533148726512536,1.0011084106431554,6.722160643853158
20,23,female,92,75,75,same,valid,clock,3,1,1,0.268836726878817,0,j,change,2.643090490054874,0.2684909848892858,0.5002174486157855,0.03534341807403507,0.35331551409285566,1.0010516430841108,6.722452178943968
20,23,female,93,135,135,same,valid,clock,1,0,1,0.2785625812625767,0,j,change,0.5836689675165871,0.12091457147953089,0.4994945442208518,0.035342135191285706,0.35331904202007536,1.0010397764192476,4.731078602863818
20,23,female,94,15,65,change,valid,clock,5,2,2,0.24187983366141452,1,j,change,1.28836316356319,0.37842825026110527,0.5006173872939144,0.0353228919511821,0.35327253752257093,1.0010971854196669,5.321898999928635
20,23,female,95,165,115,change,valid,anti,1,2,2,0.3140785470584433,1,j,change,1.188949376807841,0.3728109641053023,0.49954746313164833,0.035317439699610986,0.3533036474279925,1.001059981821527,5.296698373112349
20,23,female,96,135,85,change,valid,anti,3,2,2,0.7592029193278904,1,j,change,0.33444944127245435,0.36737361309981387,0.5000792180060216,0.03530364871085112,0.35332513571302115,1.0010625475867982,4.790596983044907
20,23,female,97,165,115,change,valid,anti,4,2,2,0.691601095325268,1,f,same,0.9940297846874273,0.3625288360080249,0.500265556716613,0.03529595141480968,0.353316155534003,1.0010939782127934,5.238633819738197
20,23,female,98,165,115,change,valid,anti,5,2,2,0.37130986812621813,1,f,same,0.8926429243567782,0.357743952083862,0.49965939464618714,0.03530717663829819,0.3532754240088707,1.0010942989335945,4.955313026583326
20,23,female,99,45,45,same,valid,clock,1,2,2,0.8944921997524489,1,j,change,0.3420620671472534,0.35342611402143354,0.5002001296993512,0.035317439699610986,0.3533126276067833,1.0010583782182039,4.967762120194493
20,23,female,100,105,105,same,valid,anti,2,2,2,0.7033506971504266,1,j,change,0.5626887040255042,0.3490996842545619,0.5001154594419859,0.035330268526422515,0.35327125464004894,1.0010805079443799,4.955813671552505
20,23,female,101,135,135,same,valid,clock,5,2,2,0.40125684017016283,1,f,same,1.45572611480884,0.34514433768216113,0.5082325789342121,0.035354643297750954,0.3532472005895215,1.0011029583918116,5.623868096567776
20,23,female,102,45,95,change,catch,clock,3,0,1,0.15700271137257005,0,j,change,0.9018803211567956,0,0.4991228289616174,0.03535368113557524,0.35329659157309834,1.0010619061454236,6.3092068000480594
20,23,female,103,45,45,same,valid,anti,4,1,1,0.16292385642213958,0,j,change,1.3212261279584254,0.28048538651548444,0.5003425296779369,0.03536105771104303,0.35326002941656043,1.0010846773132016,5.215010817908251
20,23,female,104,15,15,same,valid,clock,3,2,2,0.26597493632107216,1,f,same,1.0865512841976397,0.3414793674874167,0.4997607423786121,0.035312949610442956,0.35330557175188915,1.0010298340785084,4.896221525616966
20,23,female,105,15,15,same,catch,anti,1,2,2,0.2633543277086119,1,j,change,0.4014325950986404,0,0.4999647207259841,0.03529081988403959,0.35333828526040634,1.001060302542328,5.9452914677397075
20,23,female,106,165,215,change,valid,clock,1,2,1,0.5317657789760233,0,j,change,1.1665803928058267,0.33774705101889546,0.4994935820586761,0.03534021086738903,0.35330557175188915,1.0010487565980384,5.461500369790883
20,23,female,107,135,135,same,valid,anti,5,2,1,0.200027710266113,0,j,change,0.4998508648875486,0.3504343296111675,0.49973348112143867,0.035317760420412014,0.35332417355084544,1.0010449079500177,4.425245784287199
20,23,female,108,45,45,same,valid,clock,3,0,1,0.21322504520549046,0,j,change,0.44408908593959495,0.12737126056504877,0.499754007244519,0.03533219285054656,0.35328023481883974,1.001058698939005,4.4141190220072986
20,23,female,109,75,125,change,valid,clock,3,2,1,0.19090288642178166,0,j,change,0.4850925824364367,0.36231998290399203,0.4991516938221139,0.03522827935285022,0.35327734833276736,1.0010933367714188,4.4481221483924855
20,23,female,110,135,85,change,valid,anti,4,0,2,0.08998171250732412,1,j,change,1.4287785224912568,0.13400163312405416,0.5000234126089254,0.0352975550181327,0.3533424546292281,1.0010705656036407,5.297472592814984
20,23,female,111,15,325,change,valid,anti,1,1,2,0.3813089765226323,1,j,change,0.3855514695740112,0.2922093822998739,0.4999291207313945,0.03532802348195219,0.35331326904815796,1.001061906145651,4.5077251988307125
20,23,female,112,75,75,same,catch,clock,5,1,2,0.24016494022725965,1,j,change,0.8901053823983602,0,0.5005660719862135,0.03529114060461325,0.35330845823796153,1.001079545782659,6.404898302681886
20,23,female,113,75,75,same,catch,anti,4,1,1,0.12775619327658205,0,j,change,1.934262845985586,0,0.5002107134816924,0.03534662528068111,0.35329915733859707,1.0010224575028133,7.429009441375001
20,23,female,114,15,15,same,valid,clock,2,2,1,0.24501551967318846,0,j,change,0.8399876458397557,0.37362445202409844,0.5000144324303619,0.03533732438154402,0.3532985158972224,1.001067037676421,4.83846486408811
20,23,female,115,75,75,same,valid,anti,4,1,1,0.22878095996838965,0,j,change,0.395052498766745,0.28541527366181063,0.4990272542013372,0.03530589375554882,0.35313911772300344,1.0012334917050794,4.354184346393822
20,23,female,116,165,115,change,valid,anti,5,1,2,0.3648066150562954,1,j,change,0.6696121653199043,0.29657668092426853,0.4999849261282634,0.035362661314593424,0.353296912293672,1.0010805079446072,4.896777013821065
20,23,female,117,75,75,same,valid,anti,2,0,2,0.12820905086550738,1,j,change,2.1079035836685307,0.12717780343004997,0.5001254017829524,0.035337645102117676,0.35326933031615226,1.0010657547936717,5.933717620842799
20,23,female,118,15,325,change,valid,anti,4,2,2,0.769081436751776,1,j,change,0.8816752395300682,0.3845101727977005,0.4993691424378994,0.035339248705440696,0.3533334744504373,1.0010381728156972,5.390450157121222
20,23,female,119,135,185,change,valid,clock,4,1,2,0.27108113014264745,1,f,same,1.7231343518139965,0.29050259197518463,0.5000166774748322,0.03530332799027747,0.35332064562362575,1.001052284525258,5.7212655124569665
20,23,female,120,135,185,change,valid,clock,4,0,2,0.40288866695027536,1,f,same,1.062757017528611,0.12095077277901349,0.4996023063665689,0.03533732438131665,0.3532693303159249,1.0010705656036407,5.355262288572931
20,23,female,121,165,115,change,valid,anti,5,0,1,0.2012236776527061,0,j,change,0.38674038110616493,0.11501431725522249,0.5003345116610944,0.035326419878401794,0.35329915733859707,1.0010795457824315,4.3204881496919825
20,23,female,122,165,115,change,valid,anti,4,1,1,0.21861026601209232,0,j,change,0.5086017284277204,0.2847475981483597,0.4997581766131134,0.035304931593600486,0.35332577715416846,1.001067037676421,4.401786991441213
20,23,female,123,105,155,change,valid,clock,4,0,1,0.25123204846227054,0,j,change,0.4628929389496079,0.12055971200462062,0.5000076972960414,0.03531679825846368,0.3532940258075996,1.001087884520075,4.484529396936068
20,23,female,124,15,15,same,valid,clock,5,2,2,0.22145217188835886,1,f,same,0.9558816643350383,0.3813588065625946,0.5001144972798102,0.03531423249296495,0.35331775913755337,1.001049718760214,4.979632633713209
20,23,female,125,135,85,change,valid,anti,3,1,2,0.7191596605234736,1,j,change,0.7888282085377796,0.2937759067427905,0.49969980545074577,0.03535624690107397,0.3532895357184316,1.0010766592963591,5.332644746050164
20,23,female,126,135,135,same,catch,clock,2,0,2,0.3060948473657845,1,j,change,0.24280960289001996,0,0.49974534778630186,0.03537100005200955,0.3533119861654086,1.0010712070452428,5.873798019100832
20,23,female,127,165,215,change,valid,clock,4,2,2,0.10941834740333434,1,j,change,1.017685500025891,0.37836541303503013,0.5005545260423787,0.035265482950762816,0.35335560417684064,1.001065434073098,4.885899772224093
20,23,female,128,15,15,same,valid,anti,5,0,2,0.2410174157739675,1,f,same,0.9180834502358266,0.12585182589180038,0.49925368299591355,0.03531262888964193,0.35332577715439584,1.0010817908271292,4.884174615728625
20,23,female,129,15,325,change,valid,anti,1,2,2,0.1373345161512134,1,j,change,2.1321099764013525,0.37559606308882487,0.4999967927931266,0.03533475861604529,0.3532770276121937,1.0010641511901213,5.98054155609816
20,23,female,130,15,15,same,catch,anti,2,0,1,0.13151985036438418,0,j,change,2.3547860183748526,0,0.4997100685125133,0.03532802348172481,0.35325425644441566,1.001104882715481,7.769699465486838
20,23,female,131,135,185,change,valid,clock,1,1,1,0.18627328351908545,0,j,change,0.37602317912433136,0.28830398323841994,0.5005724863999603,0.035323212671755755,0.3532805555394134,1.001089808844199,4.249676553202107
20,23,female,132,135,185,change,valid,clock,2,0,2,0.15383046320403082,1,j,change,1.648240622608455,0.12038259170525922,0.49973829193140773,0.03533347573329593,0.3532904978803799,1.0010128358826478,5.650476366414296
20,23,female,133,75,75,same,valid,anti,5,2,1,1.1830330425680131,0,j,change,0.3523289773052056,0.3729886390559705,0.4992376469622286,0.035352718973626907,0.35330845823796153,1.0010497187599867,5.167065322462122
20,23,female,134,165,215,change,valid,clock,1,1,1,0.21086389961715213,0,j,change,0.2832736472162196,0.2971489543210373,0.4994432289129236,0.035361699152417714,0.35328568707041086,1.001049077318612,4.2481906543278
20,23,female,135,165,165,same,valid,clock,4,1,2,2.015318260744607,1,j,change,0.2781154966455688,0.3060076174477107,0.5003354738232701,0.03530621447612248,0.35333155012631323,1.0010538881288085,6.074675959868955
20,23,female,136,135,85,change,valid,anti,1,2,2,0.8125281833290501,1,j,change,1.455700777876018,0.38224020344069365,0.49990282163639677,0.035280877543073075,0.3533626600315074,1.0010500394805604,6.074373520275003
20,23,female,137,45,95,change,valid,clock,2,1,2,0.3498081128218473,1,f,same,1.7315086892851923,0.30115211326707136,0.5001898666378111,0.0353184018617867,0.3532911393217546,1.0010609439834752,5.662745856449419
20,23,female,138,15,15,same,valid,anti,4,1,2,0.5008527962672815,1,f,same,1.0924002670960817,0.2964280613798567,0.49958113880234123,0.03533956942601435,0.35331006184128455,1.0010580574976302,5.143480486392264
20,23,female,139,15,15,same,valid,anti,3,1,2,0.30032476175256306,1,f,same,0.9579993829333944,0.2920849580968803,0.5000259783744241,0.035319364023735034,0.3532824798637648,1.001086280916752,4.86141659755117
20,23,female,140,45,95,change,valid,clock,3,0,1,0.9155215335067624,0,j,change,2.0773340927999016,0.1151415374341267,0.5002229008671293,0.03533187212997291,0.35330717535543954,1.0010352863296248,6.722852438343125
20,23,female,141,135,135,same,catch,anti,4,2,2,0.19211232407678835,1,j,change,2.2429590587232724,0,0.49940666675661305,0.03535239825305325,0.35332353210947076,1.0010356070504258,7.56951075344341
20,23,female,142,105,105,same,valid,anti,5,1,2,0.29572594803426,1,f,same,1.2475719841511363,0.28778373834966253,0.5003239278787532,0.03533187212997291,0.35329210148370294,1.0010538881288085,5.1327491727010965
20,23,female,143,45,355,change,catch,anti,4,0,2,1.0893935107944799,1,j,change,0.4438418103013646,0,0.500042014408109,0.03527414240897997,0.35328023481883974,1.0010782628999095,6.780806022364686
20,23,female,144,15,65,change,valid,clock,1,2,2,0.35893550243122263,1,j,change,1.5369127043231856,0.3795914990142294,0.5002046197887466,0.03532802348195219,0.3532962708525247,1.0010545295701831,5.603483411364778
20,23,female,145,105,155,change,valid,clock,3,0,1,0.14411904125040564,0,j,change,1.853888962654537,0.12006348712653131,0.49964816942269863,0.03532192978900639,0.3532879321148812,1.0010904502853464,5.791147018997663
20,23,female,146,105,105,same,valid,clock,3,1,1,0.3569653153422223,0,j,change,0.49747881479606804,0.28383058917310544,0.5001808864590203,0.03534181447071205,0.3532904978803799,1.0010612647040489,4.614418061961942
20,23,female,147,165,165,same,valid,clock,3,1,2,0.2733521532222767,1,f,same,1.158656667879086,0.2903014282844529,0.4997726090434753,0.03527157664348124,0.35332417355084544,1.0010747349724625,5.038477821203287
20,23,female,148,75,75,same,valid,anti,1,0,1,0.6089157781100312,0,j,change,0.7446335413528686,0.12481398407559234,0.49916099472147835,0.035306535196923505,0.35332866364024085,1.0010612647042763,5.167330879178735
20,23,female,149,75,125,change,valid,clock,1,2,1,0.15854922645371516,0,j,change,1.190654648621603,0.37710698249396435,0.4996561874393137,0.035320646906257025,0.3533309086851659,1.0010417007431442,5.155833043081202
20,23,female,150,45,355,change,valid,anti,3,0,1,0.2376953910516022,0,j,change,1.0771461504859872,0.12932656922687316,0.4996305297854633,0.03534983248755452,0.3533123068862096,1.001064792631496,5.049533704214809
20,23,female,151,75,75,same,catch,clock,3,2,1,0.26153006852518956,0,j,change,1.091923034735828,0,0.5115683946453373,0.035299800062603026,0.3533100618415119,1.00104779443609,6.639751787857222
20,23,female,152,75,125,change,valid,clock,3,1,1,0.20460984650935643,0,j,change,0.5369970538599773,0.28646845671018756,0.4996866559033606,0.035348870325606185,0.3533090996793362,1.0010606232629016,4.5904156475767195
20,23,female,153,105,105,same,valid,anti,3,0,1,0.11609126170856143,0,j,change,0.44057623241747024,0.13407874319093893,0.4993248829850927,0.03536298203516708,0.35326259518205916,1.0010330412851545,4.33106647962245
20,23,female,154,75,25,change,catch,anti,5,1,1,0.01978557898746658,0,j,change,0.5899749773730036,0,0.4999515711785989,0.03534854960480516,0.3533126276067833,1.0010333620057281,5.979844630077423
20,23,female,155,105,105,same,valid,anti,1,0,1,0.19486571104744144,0,j,change,0.45071742007166904,0.13857528118149315,0.5006472143165865,0.03535496401832461,0.35328632851178554,1.001071527765589,4.402866537223645
20,23,female,156,15,15,same,valid,anti,2,0,1,0.2274041061225489,0,j,change,0.4472266962757203,0.14332702803557512,0.49956093339960717,0.035324174833931465,0.35328472490823515,1.0010452286705913,4.460212034850883
20,23,female,157,105,55,change,valid,anti,3,2,1,0.2244675876479505,0,j,change,0.32405071491825765,0.38597086148615667,0.5004294449802273,0.035354322576949926,0.35327959337746506,1.0010417007431442,4.320628304625416
20,23,female,158,75,25,change,valid,anti,3,0,1,0.6310846324122394,0,j,change,1.2958680272920446,0.1478179963039766,0.4992190451632723,0.03530717663829819,0.35331391048930527,1.0010942989335945,5.767370071244841
20,23,female,159,15,325,change,valid,anti,2,1,2,0.42617651567775283,1,j,change,1.1574344013972677,0.29302469470374215,0.5002713296887578,0.03531711897903733,0.3533103825620856,1.0010433043464673,5.379757650631291
20,23,female,160,15,15,same,catch,anti,1,0,1,0.6808130140750563,0,j,change,4.079048024071881,0,0.4996760721210194,0.03534309735346142,0.3532805555396408,1.0010449079500177,10.06627981339193
20,23,female,161,165,215,change,catch,clock,4,2,1,0.1852620512397607,0,j,change,0.880925073877961,0,0.5001093657492675,0.03531134600689256,0.35330942040013724,1.001040738581196,6.286315682791837
20,23,female,162,75,75,same,valid,clock,5,1,1,0.22884606626485038,0,j,change,0.36187586955384177,0.28929812653111514,0.5000506738660988,0.035308138800246525,0.35333988886372936,1.0010599818217543,4.3664095769759115
20,23,female,163,15,65,change,valid,clock,3,0,1,0.22310163830547936,0,j,change,0.7771812373275679,0.1525665117908829,0.5001234774588283,0.03532706132000385,0.353297233014473,1.0010433043466946,4.814260074958611
20,23,female,164,165,165,same,valid,clock,2,0,1,0.24231665521688228,0,j,change,0.46684838699957254,0.1570616386070508,0.5004390666001655,0.03532802348172481,0.3533078167968142,1.0010381728159246,4.42580031032935
20,23,female,165,135,85,change,valid,anti,2,2,1,0.239120032277242,0,j,change,0.4007674204244722,0.3947335873479782,0.5004515747064033,0.03530172438695445,0.35332289066832345,1.0010731313691394,4.449707149954293
20,23,female,166,105,105,same,valid,clock,2,1,1,0.25214546093639,0,j,change,0.05606999151382297,0.29540453150482554,0.5000728035925022,0.035372282934758914,0.353235975366033,1.001110655687853,4.119710273773535
20,23,female,167,15,15,same,valid,anti,4,2,1,0.14423417997181787,0,j,change,0.3362647202768585,0.40282423503519016,0.4998470162393005,0.03532449555450512,0.3532917807629019,1.001072169207191,4.190557790978801
20,23,female,168,105,55,change,valid,anti,1,2,1,0.09422580916225343,0,j,change,0.19403921387515766,0.4108804897767706,0.49911930103417035,0.03534919104640721,0.3533087789585352,1.001068320558943,4.048277762062526
20,23,female,169,75,125,change,valid,clock,4,0,1,0.037339262817113195,0,j,change,0.06411045876529897,0.16180308421133158,0.4994169298181532,0.03535528473889826,0.35331904202030273,1.0010551710113305,3.871317565422032
20,23,female,170,75,75,same,valid,clock,1,2,1,0.20352067910675942,0,j,change,0.562104350960908,0.41892473710652395,0.5004717801086827,0.03530589375554882,0.35331551409285566,1.0010679998383694,4.520775964423137
20,23,female,171,165,165,same,valid,anti,3,1,2,0.501905401513568,1,f,same,1.21988705500803,0.30164807725132053,0.49965875320481246,0.035361699152417714,0.35332577715439584,1.00107184848639,5.27372867929148
20,23,female,172,15,325,change,valid,anti,5,2,2,0.199084791489895,1,j,change,0.828953571834063,0.42702903842448936,0.4996286054615666,0.03537549014140495,0.3532895357184316,1.0010785836204832,4.77857444792744
20,23,female,173,165,165,same,catch,clock,2,2,1,0.8853378696067011,0,j,change,0.21843964261461224,0,0.5002742161748301,0.035320646906257025,0.353334436612613,1.0010705656036407,6.298884084493238
20,23,female,174,15,65,change,catch,clock,4,0,1,0.31570684591110876,0,j,change,0.37823422743849733,0,0.5000060936929458,0.03529947934202937,0.3533424546292281,1.0010606232629016,5.991998019228959
20,23,female,175,75,25,change,valid,anti,3,1,2,0.24974614958796337,1,j,change,1.4262752976449065,0.2981374555451499,0.50042944498,0.035312949610442956,0.3533267393163442,1.0010500394807877,5.473953953491446
20,23,female,176,15,325,change,valid,anti,2,0,1,0.3381268244997955,0,j,change,0.6987287915437719,0.16631133497353218,0.4999618342399117,0.03532609915805551,0.35329595013172366,1.001051322363537,4.814220947036802
20,23,female,177,75,25,change,valid,anti,1,1,1,0.23383872496856384,0,j,change,1.7332072259650886,0.2948863520614809,0.49971006851228594,0.03534534239815912,0.35329434652840064,1.0010384935364982,5.685264296284231
20,23,female,178,75,75,same,valid,anti,4,2,1,0.29393440235958224,0,j,change,0.48787932435698167,0.42490248815258036,0.5004252756114056,0.03533411717467061,0.3533142312101063,1.0010792250618579,4.66174135930396
20,23,female,179,45,95,change,valid,clock,5,0,1,0.2628767746275571,0,j,change,0.4739321444858433,0.17104127276398476,0.5000891603467608,0.0353206469064844,0.35327510328806966,1.0010644719109223,4.543729622210321
20,23,female,180,105,105,same,valid,clock,4,0,1,0.2513093421441681,0,j,change,0.48580778953555637,0.17557084631199013,0.49986850452455656,0.035438351392940604,0.353193960957924,1.0010192502961672,4.543648159159602
20,23,female,181,15,15,same,valid,anti,4,0,2,0.23796126848856147,1,j,change,1.6429057549476056,0.18028455862506618,0.49917606859321495,0.03535015320812818,0.3533068546346385,1.0010676791177957,5.67311796298759
20,23,female,182,165,215,change,catch,clock,4,2,1,0.22148680972077273,0,j,change,0.48838349725383523,0,0.5004079566949713,0.035320326185910744,0.3532866492321318,1.0010837151512533,5.968913507407706
20,23,female,183,45,355,change,catch,anti,1,1,1,0.19748279173245464,0,j,change,0.7096823646606936,0,0.5003659422870896,0.03532770276115116,0.3532648402265295,1.0010933367714188,6.22797017810899
20,23,female,184,135,135,same,valid,clock,2,1,1,0.17270166755497485,0,j,change,0.44212210605724067,0.3002057603553369,0.49981173696551195,0.03531262888964193,0.3532991573383697,1.0010872430787003,4.366391295897529
20,23,female,185,45,95,change,catch,clock,2,1,1,0.25840272125083175,0,j,change,0.21421414775863923,0,0.4997889657977339,0.03534021086738903,0.35332192850614774,1.0010417007433716,5.721227025976532
20,23,female,186,45,45,same,valid,anti,1,2,1,0.7627167350124182,0,j,change,0.5756307453100362,0.43237737944962484,0.500104554939071,0.03532834420252584,0.35331968346145004,1.0010593403803796,5.108947850177401
20,23,female,187,15,325,change,catch,anti,5,1,1,0.2229316563489192,0,j,change,0.19022327931747895,0,0.49944002170627755,0.03536201987321874,0.3532196186117744,1.0010628683075993,5.709178191764067
20,23,female,188,45,355,change,valid,anti,4,2,1,0.23003016698635292,0,j,change,0.29136286400989775,0.4398634454518155,0.49951763610897615,0.03531262888964193,0.3533209663441994,1.0010503602013614,4.272377803820291
20,23,female,189,105,155,change,valid,clock,2,1,1,0.8408907952525624,0,j,change,0.5473925730073006,0.30570288559290615,0.49954585952809794,0.035335400057419974,0.35330942039990987,1.0010461908325397,5.096463477291991
20,23,female,190,15,15,same,valid,anti,2,1,2,0.34312718049977775,1,f,same,1.8637604242235284,0.3113777720383816,0.49976042165803847,0.035289537001062854,0.3533331537298636,1.0010516430841108,5.70930583859149
20,23,female,191,45,355,change,valid,anti,3,2,2,1.3764818096856288,1,j,change,0.5788863808534188,0.44745134107094453,0.49982584867507285,0.035312308169068274,0.3533475861599982,1.0010570953356819,5.638598797040913
20,23,female,192,105,55,change,valid,anti,5,2,1,0.05410910532395974,0,j,change,0.32772938102834814,0.44543329149907684,0.5001632468220123,0.035339248705440696,0.35328023481883974,1.001073452089713,4.143753419684344
20,23,female,193,75,125,change,valid,clock,4,2,1,0.04234186386179317,0,j,change,0.28834905185340176,0.45302577590557785,0.4995487460141703,0.03530845952082018,0.3533126276067833,1.0010186088547925,4.0836497242764835
20,23,female,194,105,105,same,catch,anti,4,2,1,0.21560575475518817,0,j,change,0.21686650771744098,0,0.5003005152698279,0.035238542414390395,0.35329306364587865,1.0010952610955428,5.744840085465739
20,23,female,195,165,165,same,valid,anti,1,0,1,0.18986278928196043,0,j,change,2.5639500984291317,0.17551976592784888,0.50047178010891,0.03535015320812818,0.35329595013195103,1.0010785836204832,6.617030011116185
20,23,female,196,105,105,same,catch,clock,5,1,1,0.09584352423257769,0,j,change,2.6903268720946016,0,0.49941115684600845,0.03532160906866011,0.35328119698101546,1.001094298933367,8.0993887705431
20,23,female,197,45,355,change,valid,anti,5,0,1,3.5757397903385026,0,j,change,0.1348466858971733,0.17999108443621128,0.5001677369116351,0.03532930636447418,0.35331904202030273,1.001065113352297,7.429640940378704
20,23,female,198,105,105,same,valid,clock,1,2,1,0.22049353779902958,0,j,change,0.23627620207707878,0.46010646005119316,0.49949326133810246,0.03532898564390052,0.353335719495135,1.0010372106539762,4.330665899502719
20,23,female,199,135,185,change,valid,clock,4,2,1,0.12791944009859435,0,j,change,0.2665717974916788,0.4673079949080239,0.4999223855973014,0.03534117302933737,0.35330268526581676,1.0010824322687313,4.249206055975947
20,23,female,200,75,75,same,valid,clock,2,0,2,1.254377676815011,1,j,change,0.5508460932051094,0.18434302529333244,0.49995413694387025,0.03534951176698087,0.3533074960760132,1.0010500394807877,5.544835787808552
20,23,female,201,45,45,same,catch,anti,4,0,1,0.13090085946737418,0,j,change,0.7671240784893598,0,0.5016353547073322,0.03532385411313044,0.35331904202007536,1.001045870111966,6.123486759688376
20,23,female,202,75,75,same,valid,clock,2,2,1,0.06796808701028567,0,j,change,0.5330627733742404,0.47466457354510366,0.4994842811590843,0.035323212671755755,0.35332930508161553,1.0010352863298522,4.3193021246461285
20,23,female,203,15,15,same,catch,anti,2,0,1,0.14017321482060652,0,j,change,0.4589984278272823,0,0.49938421630940866,0.03532353339255678,0.3534187861491773,1.000989743994296,5.709173701674445
20,23,female,204,15,65,change,catch,clock,2,2,1,1.0653660801967817,0,j,change,0.1682462159772058,0,0.5001177044866836,0.03533155140917188,0.35333988886395673,1.0010503602013614,6.451135960548754
20,23,female,205,135,85,change,valid,anti,5,2,2,0.05745069400745706,1,j,change,1.2193870514799983,0.4815856143093941,0.5002450305935326,0.03529178204598793,0.3533119861654086,1.0010907710061474,4.956470828209831
20,23,female,206,165,165,same,valid,anti,4,2,2,0.255876725236476,1,f,same,1.1353277669054478,0.47955842304351654,0.4990859460842785,0.03529947934202937,0.35332962580241656,1.0010564538940798,4.978236536627264
20,23,female,207,15,15,same,valid,anti,1,0,2,0.23149361541368307,1,f,same,1.321547169351561,0.17972989812752516,0.49955580186906445,0.03532930636470155,0.3533107032828866,1.0010503602013614,5.108110448502202
20,23,female,208,45,45,same,valid,anti,3,1,1,1.036509879158757,0,j,change,0.1901796613060469,0.3081788768073821,0.5003742810245058,0.035354322576949926,0.3532837627462868,1.001081149385982,4.897776379435527
20,23,female,209,75,75,same,valid,clock,5,0,1,0.06680643673553277,0,j,change,0.2857120864866829,0.1754338945470797,0.4995262955671933,0.03531006312437057,0.35330877895876256,1.0010590196595786,4.036677616070392
20,23,female,210,15,15,same,valid,anti,1,1,1,0.2541233453218865,0,f,same,1.1786404522417797,0.31355037076672443,0.5001003855702493,0.035320005465109716,0.35327510328829703,1.0011077692015533,4.967838130993869
20,23,female,211,105,55,change,catch,anti,4,0,1,0.1290021930878993,0,j,change,0.2240977967130675,0,0.4997058991434642,0.035324816275078774,0.35328985643900523,1.0010936574919924,5.614634227694978
20,23,female,212,45,45,same,valid,clock,4,0,2,0.2997477852634347,1,j,change,0.45793331447475794,0.179493225141437,0.5006238017074338,0.035274463129553624,0.35334437895335213,1.001044266508643,4.543958937490743
20,23,female,213,165,215,change,valid,clock,3,2,2,0.09272900578525878,1,j,change,0.7319872045279681,0.47765044139949236,0.49991981983203004,0.03530461087279946,0.35333700237788435,1.0010606232629016,4.5553647267554425
20,23,female,214,165,215,change,valid,clock,5,0,2,0.13366226445464235,1,j,change,0.7441264819699427,0.17539753277715228,0.4993717082031708,0.0353123081688409,0.3533209663444268,1.0010545295701831,4.460194074493074
20,23,female,215,15,15,same,valid,clock,1,2,2,0.6668956612268175,1,j,change,0.5967906123776174,0.47584982837929796,0.5001741513251545,0.035324816275078774,0.35331679697560503,1.0010692827211187,4.932556612009421
20,23,female,216,105,105,same,valid,clock,5,2,2,0.15688693120978314,1,j,change,2.9721062816993253,0.4741286875767284,0.4999105189324382,0.03530332799005009,0.35334662399782246,1.0010580574976302,6.9108537648437505
20,23,female,217,165,165,same,valid,clock,4,2,2,0.3116295240056388,1,f,same,1.6579109923161468,0.472325414062099,0.49962956762351496,0.035352077532252224,0.3533155140926283,1.00107184848639,5.579533915890352
20,23,female,218,15,15,same,valid,clock,3,0,2,0.2752254826684748,1,f,same,1.0588111910988118,0.17151605249571034,0.5002001296993512,0.03533989014681538,0.3532895357182042,1.0010583782182039,4.849805547056349
20,23,female,219,105,55,change,valid,anti,4,2,2,0.1538570830198296,1,j,change,1.5875881741308149,0.47055583299198334,0.5000991026877273,0.03536201987321874,0.3532709339192479,1.0010952610955428,5.320680261374491
20,23,female,220,45,45,same,valid,anti,4,2,2,0.25438858131792585,1,f,same,1.1144850925822993,0.46883463653996676,0.5004108431810437,0.0352914613251869,0.3533119861654086,1.0010484358772374,4.885787840709554
20,23,female,221,135,85,change,catch,anti,5,2,1,0.19622492525604684,0,j,change,1.07575871285826,0,0.4996359820370344,0.03534694600148214,0.3533030059866178,1.0010750556930361,6.486698110121324
20,23,female,222,165,215,change,catch,clock,2,2,1,0.25074583592322597,0,j,change,0.48608232643096017,0,0.4999252720833738,0.03538382887882108,0.3532792726568914,1.0011023169502096,6.07395626268044
20,23,female,223,105,105,same,valid,clock,5,0,1,0.9763901477174386,0,j,change,0.3749561414481377,0.16765960546528766,0.5001991675374029,0.03534758744285682,0.3532718960814236,1.0010882052406487,4.979293631962719
20,23,female,224,75,75,same,catch,anti,5,1,1,0.11685682195320624,0,j,change,0.31427354522702444,0,0.4998909549715336,0.035317760420412014,0.35331519337205464,1.0010487565980384,5.697333015178401
20,23,female,225,105,105,same,valid,clock,5,1,2,0.3184134076634564,1,f,same,1.1602852874520977,0.31859045935824964,0.49992655496612315,0.035311987448267246,0.35332128706477306,1.0010449079500177,5.19138076022341
20,23,female,226,135,135,same,valid,clock,4,0,1,0.015562329175963896,0,j,change,0.20459188615177482,0.17124033208643638,0.49972289733932485,0.03530140366615342,0.35331070328265923,1.0010740935310878,3.977517480880124
20,23,female,227,135,135,same,valid,anti,2,0,2,0.9718500258820768,1,j,change,0.3527808727321826,0.17467309957041133,0.49999069910063554,0.03531423249296495,0.35331166544460757,1.0010853187545763,4.991280246364795
20,23,female,228,45,45,same,valid,clock,4,1,1,0.34303994447691366,0,j,change,0.4135805319986048,0.31563656213286145,0.4998822955133164,0.03532353339255678,0.35329595013172366,1.0010497187599867,4.437742023837245
20,23,female,229,45,45,same,valid,clock,4,2,2,0.7356873589230872,1,f,same,1.5659494710996569,0.4672133803226931,0.49939447937094883,0.03532353339255678,0.353355283456267,1.0010375313745499,5.956489430008787
20,23,female,230,165,215,change,valid,clock,5,1,2,0.20489272214240373,1,j,change,0.8078921660128344,0.32084660036035206,0.4997209730152008,0.035318722582587725,0.3533216077853467,1.0010683205591704,4.707602170381051
20,23,female,231,105,55,change,valid,anti,1,0,2,0.15243949764885656,1,j,change,0.8057638636321371,0.17098511744580153,0.5004387458793644,0.035361057711270405,0.35331006184128455,1.001060302542328,4.53260253920962
20,23,female,232,135,135,same,valid,clock,1,2,2,0.2489876451982127,1,f,same,0.907357268075657,0.4656696725142792,0.49925496587843554,0.035337645102117676,0.35327638617059165,1.0010866016373257,4.696313764882234
20,23,female,233,135,135,same,valid,anti,4,1,2,0.2081316802107267,1,j,change,0.2105547248891071,0.3179159662022233,0.4996828072551125,0.03541493878401525,0.3532090348294332,1.0010381728159246,4.142758864879852
20,23,female,234,105,105,same,valid,clock,4,1,2,0.16085007655601657,1,j,change,1.7631176358524954,0.3151858465672166,0.5000429765700574,0.03538447032019576,0.35324142761760413,1.0011205980285922,5.662783380767905
20,23,female,235,105,155,change,valid,clock,4,2,2,0.2312287001382174,1,f,same,1.109327262732677,0.4641837857632444,0.4996051928524139,0.035414618063441594,0.3532847249080078,1.001087884520075,4.884643509351463
20,23,female,236,45,45,same,valid,anti,3,2,1,0.9199699292298646,0,j,change,0.4382859660968279,0.4626185979167415,0.5002578594203442,0.035338286543264985,0.3532770276124211,1.0010705656040955,5.038828368898066
20,23,female,237,165,165,same,valid,clock,4,0,2,0.2662443416857059,1,f,same,0.9855201030927674,0.16743267994624733,0.4996642054561562,0.03534983248755452,0.35329402580737224,1.0010567746148809,4.790739062302691
20,23,female,238,105,55,change,valid,anti,4,0,2,0.22234505823962536,1,j,change,0.5612335943355902,0.1641181499206153,0.49987235317212253,0.03532706132000385,0.35334502039449944,1.0010343241679038,4.6137538494499495
20,23,female,239,45,45,same,valid,anti,5,1,2,0.2726263623412706,1,f,same,1.2910992316174088,0.31257427905992213,0.50032521076173,0.03533187212997291,0.3533254564335948,1.0010519638049118,5.061671378053688
20,23,female,240,45,45,same,valid,clock,3,1,2,0.3349022988613797,1,f,same,0.9847654473510374,0.30988242892689766,0.5004749873155561,0.03532609915782814,0.3533116654443802,1.0010708863242144,4.88571728216175
20,23,female,241,135,135,same,catch,anti,5,2,1,0.11496553214919913,0,j,change,0.9825220062489279,0,0.49974021625575915,0.03532866492287212,0.35329562941115,1.0011058448776566,6.356699437905263
20,23,female,242,45,95,change,valid,clock,5,1,2,0.12799480945659525,1,j,change,1.2173886409718762,0.30732946444862963,0.500408598136346,0.0353309099677972,0.3533065339138375,1.0010898088444264,5.014806069831138
20,23,female,243,105,55,change,valid,anti,2,1,2,0.08874405143342301,1,j,change,1.1649020615282097,0.30492555790710274,0.4997864000320078,0.03532192978946114,0.3532847249080078,1.0010885259612223,5.06117522317345
20,23,female,244,165,165,same,valid,clock,5,1,2,0.31880789409024146,1,f,same,1.3918619695200505,0.302494141269827,0.4998717117309752,0.035322571230608446,0.35333155012631323,1.0010513223633097,5.226264264853398
20,23,female,245,135,185,change,catch,clock,5,0,1,0.21262369394526104,0,j,change,2.0825150145383304,0,0.5002864035604944,0.03529659285595699,0.3533604149865823,1.0010679998385967,7.581853688512183
20,23,female,246,135,85,change,catch,anti,2,0,2,1.4941388297156664,1,j,change,2.3517988260341554,0,0.5007694088926655,0.035319684744081314,0.35330076094214746,1.001069603441465,9.031048968273353
20,23,female,247,105,105,same,valid,anti,4,0,1,0.3825572213786472,0,j,change,1.253314167066037,0.16080197075076597,0.5001497765538261,0.035307176638070814,0.35332353210969814,1.0010327205645808,5.309424890104765
20,23,female,248,135,135,same,catch,clock,2,2,1,0.22214717358474445,0,j,change,0.44217694929193385,0,0.49930467758304076,0.035341493749911024,0.3533238528302718,1.0010641511903486,5.944242069700067
20,23,female,249,45,45,same,valid,anti,2,2,2,0.5383973203147434,1,j,change,0.8816967278153243,0.4679027387915999,0.4998377153401634,0.035319043302934006,0.3533030059866178,1.0010763385757855,5.16743158547024
20,23,female,250,75,25,change,valid,anti,5,2,2,0.6425827892308007,1,j,change,0.37854179856321934,0.46645331405848606,0.5000772936823523,0.03536234059356502,0.3532786312157441,1.0010712070452428,4.661623654817049
20,23,female,251,105,55,change,catch,anti,3,1,1,0.6829310533944408,0,j,change,1.8455505458987318,0,0.5077149357693997,0.03534309735368879,0.35332256994797717,1.0010256647096867,7.766167368723927
20,23,female,252,75,125,change,valid,clock,2,2,1,0.04486721843431951,0,j,change,0.526434439242621,0.4650619917157001,0.5006103314390202,0.035256823492545664,0.3534046744398438,1.0010311169612578,4.378925701207663
20,23,female,253,75,75,same,valid,anti,5,1,2,0.2894914588878237,1,f,same,1.0889618207697822,0.300091629782775,0.49985984506611203,0.03529274420816364,0.3533453411150731,1.0010558124527051,4.920216242705919
20,23,female,254,105,105,same,valid,clock,1,1,1,0.3198909677998927,0,j,change,0.2591050995229125,0.297787020483354,0.49949133701375104,0.03534149375036577,0.3533129483275843,1.0010766592963591,4.390162470678206
20,23,female,255,165,115,change,catch,anti,3,0,1,0.1611614963289867,0,j,change,0.25833216270257253,0,0.4999618342399117,0.03532834420229847,0.3533135897687316,1.00107184848639,5.697846168253818
20,23,female,256,15,15,same,valid,clock,1,1,2,0.21258360386127606,1,f,same,0.9290328539841539,0.3017701691075117,0.4997126342777847,0.03530525231417414,0.35330140238284,1.0010888466822507,4.708577802665786
20,23,female,257,165,115,change,valid,anti,3,0,2,0.8272187937186573,1,j,change,1.6771513461608265,0.16380148773494208,0.4989958235755694,0.03534534239815912,0.35328696995293285,1.001091091726721,6.215178554819431
20,23,female,258,45,355,change,valid,anti,1,1,1,0.13375783921492257,0,j,change,1.4652197674263334,0.29949067435961424,0.4998008324623697,0.03536715140398883,0.35331391048930527,1.0010766592963591,5.296754819950365
20,23,female,259,165,165,same,valid,anti,1,2,2,0.241910302125234,1,f,same,0.8256735615195794,0.4704595177311506,0.5002354089733672,0.03531679825846368,0.3533264185957705,1.001044587229444,4.590530465577558
20,23,female,260,105,55,change,valid,anti,1,1,2,0.24604695735479254,1,j,change,0.9613576490919513,0.303297468541148,0.5002924972532128,0.03530685591749716,0.3533562456177606,1.0010603025425553,4.838661465860241
20,23,female,261,15,325,change,valid,anti,2,2,2,0.0757150948470553,1,j,change,0.8447763261960972,0.4689967511748205,0.49917542715184027,0.035335720778221,0.3533395681433831,1.0010667169553926,4.613266354028383
20,23,female,262,165,215,change,valid,clock,3,0,2,0.05464470884635375,1,j,change,0.6252224999661848,0.16059422959402958,0.5001930738444571,0.03533315501272227,0.35329691229389937,1.0010516430838834,4.472705387915084
20,23,female,263,75,75,same,valid,clock,3,2,2,0.30735688321101406,1,f,same,2.0182509305709573,0.467611812479059,0.5002610666269902,0.03530364871085112,0.3533209663441994,1.0010554917321315,5.992601615534113
20,23,female,264,75,125,change,valid,clock,1,0,2,0.44036808470127653,1,j,change,1.2313313307536191,0.15749761055597614,0.4999512504582526,0.03533123068837085,0.35331904202030273,1.0010737728102868,5.391857158709627
20,23,female,265,75,75,same,valid,clock,3,0,2,0.16487127234358923,1,j,change,0.4684519903603359,0.15459758558315329,0.49965490455679173,0.03530685591749716,0.35332353210969814,1.0010651133525243,4.3426986976819535
20,23,female,266,15,15,same,valid,clock,2,1,2,0.3078735642138781,1,f,same,1.259754558883742,0.3011142325079643,0.5002559350964475,0.03530781807967287,0.35333219156746054,1.0010474737155164,5.120655116873877
20,23,female,267,15,15,same,valid,anti,5,2,2,0.2980476449802154,1,f,same,0.8756575575580428,0.4662895509425438,0.5001330990789938,0.03533860726383864,0.35329819517664873,1.001045549391165,4.838612074876892
20,23,female,268,15,65,change,valid,clock,1,1,2,0.2804108944960717,1,f,same,1.528506936226222,0.29895504676130796,0.49945509557801415,0.0353225712301537,0.353310703283114,1.0010445872289893,5.367652369580355
20,23,female,269,15,65,change,valid,clock,3,2,1,0.8751184261082017,0,j,change,1.6497711016563699,0.46501558830072554,0.4998409225463547,0.03535303969420056,0.3532921014839303,1.0010843565924006,6.203843644823792
20,23,female,270,75,25,change,valid,anti,2,1,1,0.6066171730522001,0,j,change,0.43698223656519986,0.2969232594318987,0.5000086594582172,0.03534117302933737,0.35333604021570864,1.0010388142572992,4.767589444184523
20,23,female,271,135,185,change,valid,clock,2,1,2,0.1834692226821062,1,j,change,1.4305354303332933,0.3005152833459389,0.4992097442636805,0.03533443789501689,0.353314872651481,1.0010583782182039,5.355084930041357
20,23,female,272,15,15,same,valid,anti,1,2,2,0.23421781680281129,1,f,same,1.024634234109726,0.46997305675468626,0.5000724828719285,0.0353312306888256,0.35330108166226637,1.0010612647038215,4.802465572239271
20,23,female,273,75,75,same,valid,anti,1,2,2,0.20090359842151884,1,f,same,3.4126914942949043,0.4686386297969741,0.5001651711463637,0.03530942168299589,0.3533058924722354,1.001084677313429,7.299703205089827
20,23,female,274,15,15,same,valid,anti,3,2,2,1.355017899421,1,f,same,3.0320246005580884,0.46737046749447886,0.4998056432723388,0.035310704565745255,0.3532969122934446,1.0010667169553926,8.288718522067938
20,23,female,275,75,75,same,catch,anti,2,1,1,0.06042281247664505,0,j,change,0.5617502753384542,0,0.4995516325002427,0.03534951176698087,0.35332032490259735,1.0010490773188394,5.838466788412461
20,23,female,276,105,155,change,catch,clock,2,2,1,0.16275676095210656,0,j,change,0.6586303687836335,0,0.5004166161529611,0.035325136996107176,0.35328215914250904,1.0010657547936717,6.134009604942548
20,23,female,277,45,355,change,valid,anti,1,2,2,0.037717392489412305,1,j,change,0.7929523556613276,0.4661550585802798,0.4997354054457901,0.0353562469008466,0.35328696995293285,1.0010808286651809,4.555544009611367
20,23,female,278,75,25,change,valid,anti,4,2,2,0.1081947980392215,1,j,change,0.6257882512318247,0.4649804277656232,0.49905387401713597,0.035306535196923505,0.3533046095899408,1.0010853187545763,4.531174370056306
20,23,female,279,165,165,same,catch,clock,3,2,1,0.0658824404790721,0,j,change,0.3083700398142355,0,0.4990420073522728,0.03536586852123946,0.35328985643900523,1.001067037676421,5.5790916420837675
20,23,female,280,135,85,change,valid,anti,5,1,1,0.1686984321249838,0,j,change,0.2682818801158646,0.29847407624902383,0.5002924972532128,0.03529274420816364,0.3533228906680961,1.001070244883067,4.108056888149804
20,23,female,281,45,45,same,valid,anti,1,0,1,0.002599120327431592,0,j,change,0.3437282110394335,0.15169829453100825,0.49999390630682683,0.03532096762728543,0.3532837627462868,1.0010433043466946,4.154648942359472
20,23,female,282,105,105,same,valid,anti,4,2,1,0.09719055105597363,0,j,change,0.32264916558096957,0.46374159958393635,0.4998082090378375,0.035329947806076234,0.3532991573383697,1.0010657547936717,4.143197610759216
20,23,female,283,45,45,same,catch,clock,2,0,1,0.07974687441674178,0,j,change,0.029462363108450518,0,0.499259776688632,0.035324816275078774,0.3533337951712383,1.0010516430838834,5.367275843511379
20,23,female,284,15,65,change,catch,clock,2,1,1,0.09901320663584556,0,j,change,0.4129576924533467,0,0.5002174486157855,0.035324816275078774,0.35332000418247844,1.0010715277658164,5.77999203329864
20,23,female,285,135,185,change,valid,clock,1,0,1,0.11788024161796784,0,j,change,0.3483825094340318,0.15430664095069538,0.500017639637008,0.0353145532135386,0.3532911393217546,1.0011019962294085,4.237250551479519
20,23,female,286,105,155,change,valid,clock,3,1,1,0.02473590256249736,0,j,change,0.2567917413143732,0.3019659101023522,0.49954233160087824,0.035322250509580044,0.35331358976918636,1.0010689620007724,4.048126702625723
20,23,female,287,15,15,same,valid,anti,2,2,2,0.8552946813611015,1,j,change,0.44126610258308574,0.4679193401010612,0.4997703639987776,0.03532545771622608,0.35333058796459227,1.0010442665084156,5.144165225027336
20,23,female,288,165,165,same,catch,anti,3,0,1,0.11069641928179408,0,j,change,0.39780620645842646,0,0.49987620182082537,0.0353434180738077,0.353318079858127,1.0010612647042763,5.756761593571355
20,23,female,289,15,15,same,valid,anti,5,1,1,0.278334869585251,0,j,change,0.08465678718721392,0.30524076840102676,0.4997479135518006,0.03534854960480516,0.3532901771595789,1.0010580574976302,4.107716282795991
20,23,female,290,45,45,same,valid,anti,3,0,1,0.11824105237428739,0,j,change,0.4501962489794096,0.15682730162949107,0.49989352073680493,0.03535464329752358,0.3532892149978579,1.0010949403749692,4.2377544036553445
20,23,female,291,45,355,change,catch,anti,2,1,1,0.15045872677728767,0,j,change,0.20442928077090983,0,0.498992937089497,0.03530076222477874,0.3533074960760132,1.0010914124477495,5.602212395340757
20,23,female,292,165,165,same,valid,clock,2,2,1,0.17756443438656788,0,j,change,0.23541891572040186,0.4667609081043025,0.5004339350698501,0.035335079336618946,0.3532856870701835,1.0010558124527051,4.166795596377142
20,23,female,293,105,105,same,catch,clock,3,2,1,0.09450772263335239,0,j,change,0.20433723393807668,0,0.49980115318339813,0.03534983248755452,0.3532911393217546,1.0010773007379612,5.556247350045396
20,23,female,294,135,135,same,valid,anti,1,0,1,0.32637305330536037,0,j,change,0.03584534592573618,0.15953905476126312,0.49975496940624,0.035235335207744356,0.3534271248868208,1.0010202124581156,4.060451677336914
20,23,female,295,15,15,same,catch,clock,2,1,1,0.2006954507055525,0,j,change,0.2139460252765275,0,0.4996635640150089,0.03532128834785908,0.35330140238329477,1.0010333620057281,5.685352815190072
20,23,female,296,15,325,change,valid,anti,5,0,1,0.31493679557706855,0,j,change,0.0784662367727833,0.16224244081607161,0.500040090083985,0.03535143609133229,0.3533081375171605,1.001067999838142,4.084508293516137
20,23,female,297,105,105,same,catch,clock,3,1,1,0.1367248261531131,0,j,change,0.21335269203336793,0,0.49992944145196816,0.035355926180272945,0.3533174384169797,1.0010756971346382,5.591858249159941
20,23,female,298,75,125,change,valid,clock,2,1,1,0.23910592056790847,0,j,change,0.0026517185174270708,0.30867650388237267,0.5001783206939763,0.03535881266680008,0.3533248149924475,1.001052605246059,4.049018306094695
20,23,female,299,165,165,same,valid,anti,5,1,1,0.08003199509403203,0,j,change,0.33651520312196226,0.31211938877383916,0.4995404072765268,0.035326740599430195,0.3532776690535684,1.0010866016373257,4.072131682776671
20,23,female,300,45,45,same,valid,clock,5,2,2,0.08342810629210362,1,j,change,0.2394362628597264,0.4711975988656181,0.4993752361301631,0.03530685591795191,0.35333475733295927,1.0010458701117386,4.0831766612850515
20,23,female,301,15,65,change,valid,clock,4,1,1,0.7219791159523083,0,j,change,1.4948469809601193,0.31534690151785194,0.5072319304372286,0.03530461087302683,0.35334502039449944,1.001065434073098,5.940108300956581
20,23,female,302,135,135,same,valid,clock,3,0,1,0.4837885321835529,0,j,change,0.20777183161681023,0.16480848069300658,0.5002787062639982,0.03530108294535239,0.353335719495135,1.0010352863300795,4.473559787785689
20,23,female,303,105,105,same,valid,clock,4,2,1,0.07116470994969859,0,j,change,2.121943451813877,0.4699872103741994,0.4989586199776568,0.03531102528631891,0.3533193627408764,1.0010452286705913,5.956076341783046
20,23,female,304,15,65,change,catch,clock,2,0,1,0.09553563238705465,0,j,change,0.404816518910593,0,0.4998203964237291,0.03534566311873277,0.3533023645454705,1.0010603025421005,5.779853481968075
20,23,female,305,15,15,same,valid,clock,2,0,1,0.5319739266919896,0,j,change,0.26287485030343305,0.16730274959199642,0.5001157801625595,0.035332513571574964,0.35328247986353745,1.0010789043412842,4.578644878187333
20,23,female,306,165,165,same,valid,anti,1,1,1,0.21987615050511522,0,j,change,0.24973845229169456,0.318742094840134,0.49984445047402914,0.03527927393997743,0.35336073570761073,1.001064792631496,4.272194351595772
20,23,female,307,135,85,change,valid,anti,1,0,1,0.5028226626359356,0,j,change,0.2042971438540917,0.17000130279424522,0.5003001945492542,0.03528183970502141,0.35331904202030273,1.0010984683021888,4.508613915813385
20,23,female,308,105,55,change,valid,anti,5,0,1,0.22508240917704825,0,j,change,0.24698859324826117,0.17266802436556306,0.499716482925578,0.03535303969465531,0.35331615553423035,1.0010580574971755,4.307488378686685
20,23,female,309,165,165,same,catch,anti,5,2,1,0.05031048968248797,0,j,change,0.45867931075827073,0,0.5002851206772903,0.03531134600689256,0.35334085102613244,1.0010372106535215,5.850799460419694
20,23,female,310,45,95,change,valid,clock,5,2,2,0.3031730820421217,1,j,change,0.5613205096378806,0.4741791257958398,0.5006898701658429,0.035313270331243984,0.35332192850592037,1.001046190832767,4.650039224138254
20,23,female,311,45,45,same,catch,anti,1,0,1,0.3211424198630084,0,j,change,0.9021933445333161,0,0.49956317844453224,0.03531102528631891,0.3533110240032329,1.0010468322739143,6.4271191137336245
20,23,female,312,75,25,change,valid,anti,3,2,1,0.1518025463938102,0,j,change,0.25729944213844647,0.4730315246433578,0.5001330990789938,0.03534598383930643,0.35330428886936716,1.001064792631496,4.2134550019272865
20,23,female,313,105,55,change,catch,anti,5,0,1,0.00760364569578087,0,j,change,0.30115959766226297,0,0.5000426558494837,0.03529883790088206,0.35332321138866973,1.001046190832767,5.615263481653983
20,23,female,314,165,115,change,catch,anti,2,2,1,0.059878228775232856,0,j,change,0.7921309900198139,0,0.4997995495800751,0.03532064690671177,0.3532411068968031,1.0011035998327316,6.227491021424612
20,23,female,315,45,45,same,valid,clock,1,1,1,0.21188924360603778,0,j,change,0.3299917446497602,0.32214736222893803,0.5000728035925022,0.03530685591795191,0.35330460958948606,1.0010375313745499,4.354727326491684
20,23,female,316,165,165,same,valid,anti,4,0,1,0.2567593485264297,0,j,change,0.6366853775102754,0.1752018946203562,0.49991083965323924,0.035304931593600486,0.3533353987745613,1.0010538881288085,4.6851700044067
20,23,female,317,75,75,same,valid,anti,2,1,1,0.6137297953991947,0,j,change,0.274543309798446,0.32534060145645777,0.49921583795685365,0.03534951176698087,0.3532946672489743,1.0010731313691394,4.707255792054639
20,23,female,318,105,55,change,valid,anti,2,2,1,0.3071012688351402,0,j,change,0.40580337641904407,0.47692732809588273,0.5005173224444661,0.03531679825800893,0.3532994780593981,1.0010882052406487,4.5797936996345925
20,23,female,319,15,325,change,catch,anti,1,1,1,0.41614341088961737,0,j,change,0.22699614942757762,0,0.49966324329443523,0.03530012078317668,0.3533017231038684,1.001094298933367,5.897790491145315
20,23,female,320,135,135,same,valid,anti,4,2,2,0.3000261708070866,1,j,change,0.4208377993686554,0.48113166451756634,0.5002078269953927,0.03528697123601887,0.35335560417661327,1.0010715277658164,4.555066456530312
20,23,female,321,75,125,change,valid,clock,1,1,1,0.07461790942716107,0,j,change,0.5407183758193241,0.3287017979706979,0.499918216228707,0.035356567621875,0.35329659157287097,1.0010458701117386,4.390148358968418
20,23,female,322,75,125,change,catch,clock,1,0,1,0.2269736989806006,0,j,change,1.0130084304632874,0,0.5003415675159886,0.035340852308763715,0.3533203249030521,1.0010657547936717,6.48685814973669
20,23,female,323,75,25,change,valid,anti,4,1,2,0.22924055269140808,1,f,same,1.1177516326283694,0.33207860674147527,0.5003803747172242,0.03533283429214862,0.35328536634960983,1.001092695330044,4.908734442641617
20,23,female,324,75,75,same,valid,clock,4,1,1,0.41946030408143997,0,j,change,0.24147348056976625,0.33014184622643794,0.5003912792203664,0.035286329794416815,0.35337901678622075,1.0010574160560282,4.578861364640943
20,23,female,325,15,65,change,valid,clock,2,0,2,1.1579337634839248,1,j,change,1.2962051047184104,0.17788042450519728,0.4999028216361694,0.03528697123601887,0.3533411717467061,1.001046190832767,6.29819998729954
20,23,female,326,75,25,change,valid,anti,5,0,2,0.3209191982750781,1,j,change,0.19898055727117026,0.17518676473824998,0.499531427097736,0.03532545771668083,0.35328408346686047,1.0010673583969947,4.319114823773361
20,23,female,327,165,115,change,valid,anti,3,1,2,0.33776569302290227,1,j,change,0.5929907138533963,0.3333649728353338,0.5002783855434245,0.03529659285595699,0.3533142312103337,1.0010869223578993,4.743755728873111
20,23,female,328,165,165,same,valid,clock,5,0,2,0.5153403904710103,1,j,change,0.8067298742967068,0.17258752093917432,0.5004454810136849,0.035322571230608446,0.35327734833254,1.0010869223578993,5.226873313410124
20,23,female,329,105,155,change,catch,clock,5,1,1,0.4290120071404999,0,j,change,0.24356618295587396,0,0.5002309188839718,0.035329306364928925,0.3533260978747421,1.001042983626121,6.0278048786744876
20,23,female,330,45,355,change,valid,anti,2,0,1,0.25844120773126633,0,j,change,0.4292073260298821,0.16991957412171532,0.4996686955455516,0.035344380236438155,0.3532818384219354,1.0011061655982303,4.496405362706355
20,23,female,331,165,215,change,catch,clock,3,0,1,0.2147000395766554,0,j,change,0.2927560746097697,0,0.4990615713131774,0.03534053158773531,0.35331326904815796,1.0010769800169328,5.79107485684608
20,23,female,332,45,355,change,valid,anti,1,0,1,0.7044135654582533,0,j,change,0.138641773611198,0.17237428768937116,0.49998620901124013,0.03532930636447418,0.3532821591429638,1.001059981821527,4.5557303483219584
20,23,female,333,165,215,change,catch,clock,1,1,1,1.0637310462102505,0,j,change,0.029579746874333068,0,0.4991927460682746,0.03534053158773531,0.35328632851178554,1.001040738581196,6.332372774920259
20,23,female,334,165,165,same,catch,anti,2,0,1,0.6901540036524239,0,j,change,0.1235499416611674,0,0.5004368215554678,0.03532353339278416,0.35330845823773416,1.0011084106431554,6.0396532624668
20,23,female,335,165,165,same,valid,anti,3,0,1,0.8088748541522364,0,j,change,0.21881873444908706,0.17470575760651477,0.5002941008565358,0.03533347573329593,0.35325938797495837,1.0010657547936717,4.767870395493446
20,23,female,336,105,55,change,catch,anti,2,1,1,0.33411974042155634,0,j,change,0.09512510992726675,0,0.49932809019173874,0.03534470095701181,0.35330942039990987,1.001073452089713,5.638348634916838
20,23,female,337,165,115,change,valid,anti,2,1,1,0.2081137198529177,0,j,change,0.18726142390960376,0.33150687831077696,0.4994906955726037,0.03531519465514066,0.3533491897633212,1.001066396234819,4.189344504675773
20,23,female,338,135,135,same,valid,anti,3,0,1,0.17593421121000574,0,j,change,0.21413460903204395,0.17697528379678532,0.500494230555887,0.03531391177239129,0.353318079858127,1.0010696034419198,4.214734035967922
20,23,female,339,165,165,same,catch,anti,3,0,1,0.28005489455017596,0,j,change,0.09797343021682536,0,0.49915746679425865,0.03532802348172481,0.35332064562362575,1.0010484358772374,5.661384397195889
20,23,female,340,105,105,same,valid,anti,1,2,1,0.3652630005726678,0,j,change,0.829563261831936,0.47998223904413084,0.5004336143488217,0.03531551537571431,0.3533030059866178,1.0010513223633097,4.955923678742693
20,23,female,341,135,185,change,valid,clock,5,1,1,0.02406944500580721,0,j,change,0.9479319610336461,0.33456317219806864,0.4997267459871182,0.03530781807967287,0.3533142312098789,1.0010808286656356,4.555158503363145
20,23,female,342,105,105,same,valid,anti,2,1,1,0.21142323646927252,0,j,change,0.24337150550763909,0.33750527816933745,0.4993874235160547,0.035334117174443236,0.35326708527145456,1.0010968646988658,4.201154722707997
20,23,female,343,105,155,change,valid,clock,1,0,1,0.23050996511210542,0,j,change,1.3645016096970721,0.17942817904668476,0.500221938705181,0.035332513571574964,0.35329434652840064,1.0010561331732788,5.4387089966639905
20,23,female,344,135,135,same,valid,anti,3,2,1,0.0870108769208855,0,j,change,0.6531389894348649,0.4839673801995175,0.50025080356545,0.035329947806076234,0.3533113447242613,1.0010474737150616,4.520770512171566
20,23,female,345,15,15,same,valid,clock,4,2,1,0.47910152027998265,0,j,change,0.3014091183454184,0.48769971723255395,0.4994829982765623,0.03529274420770889,0.3533277014785199,1.0010789043412842,4.495654876333447
20,23,female,346,45,45,same,catch,clock,5,0,1,0.07109639644659183,0,j,change,0.2780417308908909,0,0.5003826197621493,0.035321288347404334,0.3533142312103337,1.001069282721346,5.626845667288308
20,23,female,347,75,25,change,valid,anti,1,2,1,0.313081105767651,0,j,change,0.08783769481351555,0.49176149375912037,0.5008630593288217,0.035337645102117676,0.3533209663441994,1.001059019659806,4.072954010579906
20,23,female,348,75,75,same,valid,anti,4,0,1,0.42108218852081336,0,j,change,0.1528692633492028,0.1818888527723511,0.5000542017937732,0.035288895559915545,0.3533309086851659,1.0010721692074185,4.3433173678581625
20,23,female,349,105,155,change,valid,clock,4,1,1,0.5342975479620691,0,j,change,0.1714325758553059,0.34071910023425406,0.49949871358967357,0.03536747212456248,0.3532414276178315,1.0011052034365093,4.578168928709147
20,23,female,350,165,115,change,valid,anti,2,2,1,0.2042881636753009,0,j,change,0.3838821184758672,0.49553048316207543,0.5003335494989187,0.03533956942601435,0.3533046095899408,1.0010959025371449,4.472796472585742
20,23,female,351,75,125,change,valid,clock,5,0,1,0.43015569705721646,0,j,change,0.6886998561249129,0.18422747868097739,0.49929537668322155,0.035310704565745255,0.3532991573383697,1.0010776214585348,4.942822239284851
20,23,female,352,75,75,same,valid,clock,4,2,1,0.5440647753125631,0,j,change,1.1354233416655006,0.4994969576670852,0.4999217441559267,0.035309742403569544,0.35331326904815796,1.0010866016373257,5.450202342672128
20,23,female,353,45,45,same,catch,anti,5,2,1,0.26236330083156645,0,j,change,0.2521518753496821,0,0.5001619639392629,0.03533475861604529,0.35329370508725333,1.0010340034468754,5.815725126989491
20,23,female,354,135,135,same,valid,clock,2,2,2,0.19311425545674865,1,f,same,0.9183204628125168,0.5034146014898893,0.5002363711355429,0.03534630456033483,0.35329883661779604,1.001073452089713,4.697031217026051
20,23,female,355,165,165,same,valid,anti,5,2,2,0.21709037074697335,1,f,same,0.7764294680719104,0.502353680369487,0.49919563255434696,0.03533636221936831,0.3533264185957705,1.0010404178606223,4.531017537647585
20,23,female,356,105,155,change,valid,clock,3,2,2,0.37397505691160404,1,f,same,1.5612823438777923,0.5012969924793433,0.5000622198103883,0.03535015320812818,0.3532828005841111,1.0010657547936717,5.673807512433086
20,23,female,357,45,355,change,valid,anti,5,1,1,0.07473048238307456,0,j,change,0.7327620656719773,0.34380347069766853,0.5003534341808518,0.03532545771668083,0.35331070328265923,1.0010484358772374,4.508613915813385
20,23,female,358,165,165,same,valid,anti,2,0,2,0.22961130578869415,1,f,same,0.7748954610970031,0.18649276879381044,0.5000670306208121,0.03530493159314574,0.35327349968474664,1.001104561995362,4.637745680052831
20,23,female,359,75,75,same,catch,anti,2,0,1,0.23623835703801888,0,j,change,0.3549598489789787,0,0.4998351495746647,0.0353312306888256,0.35328536634960983,1.0010789043412842,6.062501082432391
20,23,female,360,15,325,change,valid,anti,3,2,2,0.1346378967396049,1,j,change,1.391569792987866,0.5002365268625268,0.49997787027359664,0.03529787573870635,0.353359773545435,1.001069282721346,5.238571279207008
20,23,female,361,45,45,same,catch,anti,3,1,1,0.1271009609436078,0,j,change,0.7516932447883846,0,0.4993130163202295,0.03530108294535239,0.3533074960760132,1.0011003926260855,6.038192379804968
20,23,female,362,165,215,change,valid,clock,1,0,1,0.47381379855778505,0,j,change,0.6113410678331093,0.1840561849571033,0.500204299068173,0.03527061448130553,0.35336073570761073,1.0010689620003177,4.850501831635938
20,23,female,363,45,45,same,catch,anti,3,1,1,0.1731349611832229,0,j,change,0.6105623580410793,0,0.4993720289239718,0.035285367632241105,0.35335143480824627,1.0010468322739143,6.03865806622116
20,23,female,364,45,95,change,catch,clock,4,0,1,0.0831994324526022,0,j,change,0.5299408783512263,0,0.4997921730046073,0.035286971235564124,0.35334822760160023,1.001023098944188,5.932512031836268
20,23,female,365,45,45,same,catch,anti,4,2,1,0.08509649522829932,0,j,change,0.3707931871231267,0,0.500264273834091,0.03529498925263397,0.3533520762493936,1.001064792631496,5.82746446575311
20,23,female,366,105,55,change,valid,anti,3,0,1,0.45006411206259145,0,j,change,2.301407835462669,0.1862627217523286,0.49983386669146057,0.035328344202753215,0.35333315372963625,1.0010689620003177,6.580544186007501
20,23,female,367,45,45,same,valid,anti,5,0,1,0.4960615501454413,0,j,change,0.7285872446818757,0.18863083727354082,0.5000153945925376,0.03527061448130553,0.35335143480824627,1.001069603441465,4.932326655287397
20,23,female,368,45,355,change,valid,anti,4,0,1,0.11745304168289294,0,j,change,1.3866018297753726,0.19102956609292937,0.4998960865018489,0.035332513571574964,0.35330396814833875,1.0010660755147,5.17974308991279
20,23,female,369,135,135,same,catch,anti,3,1,1,0.11575899509261944,0,j,change,0.20549760133008022,0,0.4995198811539012,0.035364264917916444,0.3532757447296717,1.0010923746094704,5.697583177302931
20,23,female,370,165,165,same,valid,clock,1,0,1,0.6298761569196358,0,j,change,0.25420352549008385,0.19333495823591648,0.4997671567921316,0.0353482288842315,0.3533363609362823,1.001068641279744,4.707822826203028
20,23,female,371,165,215,change,valid,clock,2,0,1,0.18393170189165176,0,j,change,0.7491319695009224,0.19554855191971293,0.49988325767526476,0.03529883790088206,0.35332641859531577,1.0010307962406841,4.661126858496118
20,23,female,372,45,45,same,valid,clock,2,0,1,0.17878702158895976,0,j,change,0.618668252309817,0.19790572429949216,0.4996353405958871,0.03531102528631891,0.3532722168019973,1.0010933367716461,4.62522827293833
20,23,female,373,75,125,change,valid,clock,3,0,1,0.009432715689399629,0,j,change,0.2694643772342715,0.2002866919531449,0.5002129585263901,0.03529242348713524,0.35332160778580146,1.0010522845254854,4.1554921170068155
20,23,female,374,75,75,same,valid,clock,5,2,2,0.37950524346206294,1,j,change,0.615343661821953,0.4991904229522778,0.4992094235431068,0.03530685591749716,0.3533119861654086,1.0010740935313152,4.7782415398696685
20,23,female,375,15,325,change,valid,anti,4,1,1,0.3619999884540448,0,j,change,0.2868878484709967,0.3467373419780304,0.4999464396478288,0.035325778437254485,0.35328857355625587,1.0010227782236143,4.449585276098787
20,23,female,376,45,45,same,valid,clock,2,1,2,0.3642232241536476,1,j,change,0.42134165154448056,0.3499078701788666,0.4993114127169065,0.03538831896821648,0.35329883661779604,1.0010769800169328,4.554346438621451
20,23,female,377,135,85,change,catch,anti,4,1,1,0.47775673850173916,0,j,change,1.3493927795511809,0,0.5003579242702472,0.03530332799027747,0.35330845823773416,1.0010795457828863,7.052793188406213
20,23,female,378,15,325,change,valid,anti,3,0,1,0.07337832402890854,0,j,change,3.8231870141480613,0.20262320677770881,0.4999518918993999,0.03535945410749264,0.35329081860118094,1.0010875637995014,7.652113324725178
20,23,female,379,15,15,same,catch,clock,2,1,1,0.08297653158570029,0,j,change,0.2311542929423922,0,0.5004121260635657,0.03530781807967287,0.35333636093673704,1.001081470106783,5.580481324755965
20,23,female,380,105,105,same,valid,clock,2,2,1,0.8475111113675666,0,j,change,0.548154605324271,0.49819356855345076,0.4996953153618051,0.035309742403569544,0.3533100618410572,1.0010227782236143,5.155513605291617
20,23,female,381,105,155,change,valid,clock,2,2,1,0.4989400181784731,0,j,change,0.6921084754285403,0.5019061978773925,0.4995189189917255,0.0353520775324796,0.3533042888689124,1.0010388142572992,4.908094925621754
20,23,female,382,165,165,same,valid,clock,5,2,1,0.36093808230862123,0,j,change,0.396472970623563,0.5053362294767549,0.5000715207102076,0.03533604149879466,0.3533030059866178,1.0010651133525243,4.496660335640627
20,23,female,383,75,25,change,catch,anti,2,0,1,0.7062548228368541,0,j,change,0.8106397800111154,0,0.49979409732804925,0.03533956942601435,0.353294025807827,1.0010394556984465,6.816687930447188
20,23,female,384,105,105,same,valid,anti,3,2,1,0.3879244818276675,0,j,change,1.573194230363697,0.5089405941116013,0.49986978740707855,0.035381904554469656,0.35327959337746506,1.0010817908273566,5.885975462302667
20,23,female,385,105,155,change,catch,clock,1,1,1,0.32034446683064743,0,j,change,1.2196032172132618,0,0.4995628577239586,0.035317439700065734,0.35332481499199275,1.0010506809221624,6.80418463504202
20,23,female,386,165,165,same,valid,clock,3,2,1,0.16048670003465304,0,j,change,0.4264343750983244,0.5125738415140129,0.500494230555887,0.03529530997320762,0.3533187212997291,1.0010827529890776,4.367002589498952
20,23,female,387,105,155,change,valid,clock,1,1,1,0.8457051332629817,0,j,change,1.7004645318215807,0.3481120434952951,0.5,0.03529178204553318,0.3533001195005454,1.0010837151512533,6.428363509941391
20,23,female,388,75,125,change,catch,clock,3,1,1,0.3232152375676378,0,j,change,0.535092293787784,0,0.4995352757459841,0.03530429015245318,0.3533065339138375,1.0010699241624934,6.238711754861924
20,23,female,389,165,165,same,valid,clock,2,1,1,0.08595185726107957,0,j,change,0.8240702788798444,0.35123739379930924,0.5005513188357327,0.0353437387948361,0.3532991573383697,1.0010773007379612,4.767962121605706
20,23,female,390,135,135,same,valid,clock,4,2,1,0.2615890811284771,0,j,change,0.2968372451637151,0.5159210286917104,0.4998909549713062,0.035327382040577504,0.3532985158972224,1.0010965439782922,4.3666353643293405
20,23,female,391,105,105,same,valid,clock,1,0,1,0.81158462311123,0,j,change,0.26330782321110746,0.20485012785109377,0.49967029914932937,0.035337324381089275,0.35326002941656043,1.0010875637995014,4.8262159001760665
20,23,female,392,135,85,change,valid,anti,4,2,1,0.26643196327859187,0,j,change,0.270273876210922,0.5194959001331545,0.49918729381670346,0.03531391177239129,0.3533103825620856,1.0010952610955428,4.331223312030943
20,23,female,393,15,15,same,valid,clock,1,0,2,1.1027864853440406,1,j,change,0.405781888133788,0.20702409822508291,0.49927901992896295,0.035337324381089275,0.35328985643900523,1.0010660755147,5.273439068524567
20,23,female,394,135,185,change,valid,clock,5,2,1,0.2046278068673928,0,j,change,0.3902926832711273,0.5230524198249298,0.49944162530982794,0.03533604149879466,0.35329787445562033,1.0010801872240336,4.460519285254577
20,23,female,395,135,185,change,valid,clock,5,0,1,0.34154570686541774,0,j,change,0.22217796276936497,0.20466939456519537,0.4996055135734423,0.03532994780562149,0.353237258248555,1.0010333620057281,4.284272050668733
20,23,female,396,165,115,change,valid,anti,3,2,2,0.7889853616670734,1,j,change,1.9480987357833328,0.5263410378355927,0.4998422054295588,0.03529595141480968,0.35332449427187385,1.0010789043408295,6.462832002021514
20,23,female,397,75,25,change,valid,anti,1,0,1,0.2397165727279571,0,j,change,0.2365510596932836,0.20678796901885801,0.5002453513138789,0.03533475861604529,0.3532375789695834,1.0011109764081993,4.284595016385538
20,23,female,398,135,185,change,valid,clock,3,2,1,0.20072784349349604,0,j,change,0.4810797253862802,0.5254532917675119,0.49986337299378647,0.035359454107947386,0.35325233212006424,1.0011029583915843,4.5554859591698005
20,23,female,399,15,15,same,catch,anti,2,1,1,0.1851542890935889,0,j,change,0.40750223381928663,0,0.4995535568245941,0.03533026852619514,0.3533151933725094,1.001070244883067,5.873558761479217
20,23,female,400,45,45,same,catch,clock,2,2,1,0.303968148588865,0,j,change,0.21320163259679248,0,0.5006645332327935,0.03528697123601887,0.35333636093673704,1.0010683205591704,5.850977139672068
20,23,female,401,135,135,same,valid,anti,2,1,1,0.008704679763923195,0,j,change,0.20416115828902548,0.3542006382497718,0.5061453287999029,0.03532802348172481,0.3533010816627211,1.0010721692069637,3.984052164576042
20,23,female,402,105,55,change,catch,anti,1,0,1,0.44989413010625867,0,j,change,0.22655259273824413,0,0.4998236036299204,0.0353023658285565,0.35331455193090733,1.0010673583969947,5.909226428153033
20,23,female,403,45,95,change,valid,clock,3,1,1,0.32626946052869243,0,j,change,0.6971091521490962,0.35704068278696655,0.5000022450449251,0.03534566311873277,0.35329691229389937,1.0010933367716461,4.743415444239872
20,23,female,404,105,105,same,valid,clock,3,0,1,0.11643282922477738,0,j,change,0.359835123917037,0.20907735383514595,0.49993168649689324,0.03529210276701633,0.3533726023724739,1.0010202124581156,4.16620867754682
20,23,female,405,165,215,change,valid,clock,5,2,1,0.11275769104213396,0,j,change,0.6976803556663072,0.5289233054858276,0.4999265549658958,0.03533379645432433,0.35332866364024085,1.001059981821527,4.496222872643557
20,23,female,406,75,25,change,valid,anti,2,2,1,0.6282741571621955,0,j,change,0.7058978607287827,0.5324376917296678,0.4999326486586142,0.0353270613195491,0.353255539327165,1.0010965439782922,5.10846195835893
20,23,female,407,75,75,same,valid,anti,3,1,1,0.3019379867337193,0,j,change,0.29747291353578476,0.360129812748873,0.5003499062531773,0.03530525231417414,0.35334726543896977,1.0010612647042763,4.367670009217363
20,23,female,408,105,105,same,valid,clock,3,2,1,0.19069922879498336,0,j,change,0.11814227040713376,0.5356753009188088,0.49966901626658,0.03531936402350766,0.3532856870701835,1.0010849980340026,3.977760266428959
20,23,female,409,45,45,same,valid,anti,2,0,1,0.3181084023040057,0,j,change,0.3139457687002505,0.21139317516625644,0.5001744720457282,0.03532160906888748,0.35329819517664873,1.0010660755142453,4.3556833948155145
20,23,female,410,165,165,same,valid,anti,4,1,2,0.32938205465234205,1,j,change,0.3175853068878496,0.3631545988608835,0.4996151351933804,0.035323212671755755,0.3533238528302718,1.0010651133525243,4.295738456140498
20,23,female,411,105,155,change,valid,clock,5,2,1,0.23902670256165948,0,j,change,1.0348674685965307,0.5391174688252834,0.5000525981904502,0.0353354000571926,0.35329498796954795,1.0010417007433716,5.061613006891093
20,23,female,412,45,355,change,valid,anti,2,1,2,0.3629156459733167,1,j,change,0.5989907561888685,0.36141217537861736,0.5002825549117915,0.03535977482806629,0.35328183842239014,1.0010638304693202,4.814799206408679
20,23,female,413,75,25,change,catch,anti,1,2,1,0.21363075685576405,0,j,change,0.10975799059542624,0,0.5000057729721448,0.0353228919511821,0.3533196834619048,1.0010821115479303,5.5918078960148705
20,23,female,414,45,355,change,catch,anti,5,2,1,0.13741694136388105,0,j,change,0.4315460211714708,0,0.5002222594262093,0.03533443789501689,0.35328280058456585,1.0010773007375064,5.89801275057107
20,23,female,415,75,125,change,catch,clock,1,2,1,0.26127252982541904,0,j,change,0.07995245636766413,0,0.4999509297372242,0.03536522707963741,0.35330332670719145,1.0010554917321315,5.485531649036602
20,23,female,416,135,85,change,valid,anti,4,1,1,0.23917712055708762,0,j,change,0.19436827328490835,0.3596632852118973,0.4998120576860856,0.03536650996238677,0.3532693303159249,1.0010362484918005,4.202345237843474
20,23,female,417,15,65,change,valid,clock,4,0,1,0.156034134942729,0,j,change,0.20904926205412266,0.21360424433153702,0.49892334070364086,0.03535464329752358,0.3532802348190671,1.0010609439832479,4.107078690100025
20,23,female,418,135,85,change,catch,anti,1,1,1,0.22173087815235704,0,j,change,0.18458340629695158,0,0.49903431005623133,0.03533636221936831,0.3533039681487935,1.0010776214585348,5.638127658373833
20,23,female,419,135,85,change,catch,anti,5,2,1,0.2709031301696996,0,j,change,0.06962557144424864,0,0.499813340568835,0.03533026852619514,0.35334213390842706,1.001069603441465,5.602789692550687
20,23,female,420,165,215,change,valid,clock,4,0,1,0.15674132402500618,0,j,change,0.647937220852782,0.2157354038795873,0.5006340647692014,0.035323212671755755,0.3533068546348659,1.0010561331732788,4.555753760930656
20,23,female,421,15,15,same,valid,clock,5,0,1,0.1815192409953852,0,j,change,0.20506302481908278,0.21801173931737144,0.4996545838362181,0.035308138800246525,0.35329883661779604,1.001087884520075,4.060094394508269
20,23,female,422,75,25,change,catch,anti,3,0,1,0.22879346807440015,0,j,change,0.10998698515504657,0,0.49969018383080765,0.03534983248755452,0.3533030059866178,1.0010461908323123,5.591211997005757
20,23,female,423,135,135,same,catch,anti,1,1,1,0.25468685154282866,0,j,change,0.7061528336630545,0,0.5004820431699954,0.03533636221936831,0.3532933843666797,1.0010400971400486,6.215962396142913
20,23,female,424,75,75,same,catch,anti,3,1,1,0.18863122190077775,0,j,change,0.423605298048642,0,0.5005458665841616,0.03530525231417414,0.3533299465229902,1.0010808286651809,5.8508238351905675
20,23,female,425,45,45,same,catch,clock,4,0,1,0.1185476613368337,0,j,change,0.1317013782650065,0,0.5003678666112137,0.035272218085083296,0.3533812618302363,1.001064792631496,5.521551146287493
20,23,female,426,135,135,same,valid,anti,1,2,2,0.25964711745882596,1,f,same,0.9679978498888886,0.5425920411810041,0.49971552076385706,0.03532994780562149,0.3533203249030521,1.0010603025421005,4.814525952396252
20,23,female,427,135,85,change,valid,anti,3,0,1,0.2632674124060941,0,j,change,0.1790715008251027,0.22031608733210295,0.49924919290651815,0.03531391177239129,0.3533103825620856,1.001067999838142,4.236272353429285
20,23,female,428,45,95,change,valid,clock,1,1,1,0.259874508415578,0,j,change,0.4507866957369515,0.3625982791703217,0.49989352073680493,0.035323212671755755,0.35329691229389937,1.001064151189894,4.414250517482742
20,23,female,429,165,215,change,catch,clock,5,1,1,0.24349241720119608,0,j,change,0.5088265536192011,0,0.4995962126736231,0.035323854112903064,0.3532930636456513,1.0010378520955783,5.967685467953743
20,23,female,430,165,215,change,valid,clock,4,1,1,0.177900870371559,0,j,change,0.3226427511676775,0.3653495877323309,0.5005827494615005,0.035297234297104296,0.35333058796459227,1.0010849980340026,4.167767700734203
20,23,female,431,105,55,change,catch,anti,5,0,2,0.837850042559694,1,j,change,0.6432684900278218,0,0.49894226322294344,0.0353228919511821,0.35330140238329477,1.0010991097433362,6.627226042005532
20,23,female,432,135,135,same,valid,anti,2,2,2,0.2958442939620909,1,f,same,2.0636806930647253,0.5416581853047996,0.5000532396315975,0.03533475861604529,0.35329434652840064,1.0010667169558474,5.944876455189842
20,23,female,433,75,75,same,valid,clock,1,1,1,0.17699387231095898,0,j,change,0.23496605813124916,0.36826123594287175,0.49959813699751976,0.0353312306888256,0.35333475733295927,1.001040738581196,4.119068190987946
20,23,female,434,105,105,same,valid,anti,5,0,1,0.4085962120325348,0,j,change,0.02303961092729878,0.22257630728243036,0.4996982018478775,0.0353309099677972,0.35328761139408016,1.0010904502855738,4.237261455982207
20,23,female,435,105,55,change,valid,anti,3,1,2,1.432872521871559,1,j,change,0.8334625837642307,0.3712248632762789,0.49954970817634603,0.03533860726429339,0.3533299465229902,1.0010782628996822,5.991513089572891
20,23,female,436,15,65,change,valid,clock,2,1,2,1.3297143212685114,1,j,change,1.4320418553306808,0.3695195422141053,0.500326814365053,0.03529819645928001,0.35330493031051446,1.0010907710061474,6.616864839970276
20,23,female,437,45,45,same,valid,clock,5,0,2,0.2740285531203881,1,f,same,1.1974455881340873,0.22473134471613085,0.49977806129481905,0.03534919104640721,0.35331872129927433,1.001042342184519,5.002666150947789
20,23,female,438,75,125,change,catch,clock,5,1,1,0.20789755411988153,0,j,change,0.08494671867492798,0,0.5000561261176699,0.035322571230608446,0.35329242220450396,1.0010532466876612,5.556777180595873
20,23,female,439,75,75,same,valid,anti,2,2,2,0.2731314973998451,1,f,same,1.0645373379798002,0.5407212322672078,0.4995432937625992,0.03535111537030389,0.35329979877997175,1.0010849980340026,4.931611768909079
20,23,female,440,45,355,change,catch,anti,3,2,1,0.20838376665915348,0,j,change,0.4792535418787338,0,0.5002431062694086,0.035337645102117676,0.3533020438248968,1.0010490773183847,5.8857910479164275
20,23,female,441,135,135,same,valid,anti,4,0,1,0.10678138203684284,0,j,change,0.4662508843875912,0.22238362673668388,0.5003486233708827,0.03531391177239129,0.35333315372963625,1.001040738581196,4.32041374249593
20,23,female,442,165,115,change,catch,anti,5,2,1,0.1960231919533726,0,j,change,0.2749862250470869,0,0.4997793441775684,0.03532513699565243,0.35333860598120737,1.0010574160560282,5.744796146733279
20,23,female,443,105,155,change,catch,clock,3,2,1,0.7191259848527807,0,j,change,0.28063828545282377,0,0.49959011898090466,0.03532609915782814,0.35333828526017896,1.0010660755142453,6.227491662865759
20,23,female,444,165,215,change,valid,clock,2,1,1,0.1726022441466739,0,j,change,0.2802046711044568,0.36789914680666613,0.49954040727698157,0.0353100631241432,0.3533463032772488,1.0010186088547925,4.248405537178314
20,23,female,445,105,55,change,catch,anti,1,0,1,0.20665508223601137,0,j,change,0.2484639083404545,0,0.5003620936390689,0.03533315501272227,0.3533058924722354,1.0010455493916197,5.732858281874087
20,23,female,446,15,65,change,valid,clock,3,1,1,0.108635788963511,0,j,change,0.5426648295783707,0.3707467407166384,0.5008325908647748,0.03533443789547164,0.35332641859531577,1.001062226866452,4.402909834514503
20,23,female,447,45,45,same,catch,anti,5,2,1,0.13682360812026673,0,j,change,0.2561211143888613,0,0.49961930456220216,0.03533155140939925,0.35332481499199275,1.001059019659806,5.603208874469146
20,23,female,448,165,115,change,valid,anti,4,0,1,0.34499826490127816,0,j,change,0.23529832474787327,0.2244906986142854,0.5003107783313681,0.035299800062603026,0.35332000418247844,1.0010089872343997,4.2960441029408685
20,23,female,449,165,165,same,valid,anti,2,2,1,0.7157779817562187,0,j,change,0.32673546766500294,0.5397782406788774,0.500513473796218,0.03531647753789002,0.3533116654443802,1.0010721692069637,4.838719837022381
20,23,female,450,15,325,change,valid,anti,3,1,2,1.1141618061451481,1,j,change,0.44210382497885803,0.3734774188672307,0.4997219351776039,0.03536715140398883,0.35328857355625587,1.0010570953354545,5.367688931737121
20,23,female,451,45,45,same,valid,anti,4,0,1,0.03531294961021558,0,j,change,0.32282010969947805,0.22654259684674227,0.504821073144285,0.03535464329752358,0.3533167969758324,1.0010375313745499,4.100595000990779
20,23,female,452,135,185,change,catch,clock,5,0,1,0.12631102592786192,0,j,change,0.2657841075210854,0,0.5003848648066196,0.03533636221936831,0.35329627085275206,1.0010750556930361,5.626888323137337
20,23,female,453,75,25,change,valid,anti,5,1,1,0.04205032877052872,0,j,change,0.08620201938583705,0.3718921799133816,0.5001808864590203,0.03532545771622608,0.3532892149978579,1.0010939782127934,3.825273302120422
20,23,female,454,45,95,change,valid,clock,4,2,1,0.08123630121826864,0,j,change,0.4183025024553899,0.5430716897663691,0.49957312078549876,0.03533732438154402,0.3531769627625181,1.0011610088336056,4.2251834361882175
20,23,female,455,75,75,same,valid,anti,1,1,1,0.14130022726294555,0,j,change,0.24050362125717584,0.37449991030939667,0.4993040361414387,0.03531872258236035,0.35332417355084544,1.0010394556984465,4.0360483621116146
20,23,female,456,105,55,change,valid,anti,4,1,1,0.18165683016331968,0,j,change,0.06504600096604918,0.37702012694446274,0.500434255789969,0.03534983248755452,0.35331775913755337,1.0010750556930361,4.025723722232669
20,23,female,457,165,165,same,valid,clock,1,1,1,0.168995419467592,0,j,change,0.4415358286682931,0.37976925180353494,0.4996853730208386,0.03533443789547164,0.3532879321146538,1.0010795457824315,4.378249301310007
20,23,female,458,105,105,same,catch,clock,2,1,1,0.2547917272027007,0,j,change,0.8670497354373765,0,0.49993713874846435,0.035322250509580044,0.3533001195005454,1.0010474737150616,6.404543906339313
20,23,female,459,45,355,change,valid,anti,4,1,1,0.21533699083192914,0,j,change,0.2527929959737776,0.38250492022299143,0.4999342522619372,0.03535368113580262,0.35327734833299473,1.0010837151512533,4.236906418198032
20,23,female,460,45,355,change,valid,anti,2,2,1,0.20550401574382704,0,j,change,0.21897300109230855,0.5461192794685363,0.5005439422602649,0.03529851717985366,0.3533074960760132,1.0010737728102868,4.119796226913877
20,23,female,461,135,135,same,valid,anti,1,1,1,0.3171568240700253,0,j,change,0.19844078438018187,0.3850688963302729,0.49979473877010605,0.03531936402350766,0.3532911393217546,1.001110334967052,4.225155854210698
20,23,female,462,105,155,change,valid,clock,1,2,2,0.2815388691001317,1,j,change,0.40286525434112264,0.5494027895951945,0.500326814365053,0.035287291956592526,0.353359773545435,1.0010705656036407,4.378814411134044
20,23,female,463,45,45,same,valid,clock,1,0,1,0.226712311632582,0,j,change,0.24967462887843794,0.2287557840952508,0.5002225801463283,0.03533379645432433,0.3532776690535684,1.0010898088439717,4.284703099252056
20,23,female,464,15,15,same,valid,clock,3,1,2,0.29368231591115546,1,f,same,0.7435539955699824,0.38777516842726795,0.5000343171118402,0.03535368113580262,0.35329883661779604,1.0010817908269019,4.614766364612024
20,23,female,465,105,105,same,valid,anti,1,1,1,0.11249951090121613,0,j,change,0.7001771660989107,0.38628688993988114,0.4995917225842277,0.03530268654867541,0.3533113447242613,1.001087884520075,4.460772333864952
20,23,female,466,165,115,change,catch,anti,4,1,1,0.21327732267491228,0,j,change,0.31130367180276153,0,0.499980756759669,0.03533636221936831,0.35330493031051446,1.001013477323795,5.815790554006526
20,23,female,467,15,65,change,valid,clock,1,0,1,0.17024815441300234,0,j,change,0.22458016060409136,0.23100379857560355,0.49969274959585164,0.03533956942601435,0.35335752850050994,1.0010734520901678,4.154730084689618
20,23,female,468,15,65,change,valid,clock,5,1,2,1.1874544977545156,1,j,change,0.5357712594509394,0.38895105232384153,0.49948684692435563,0.03533604149879466,0.353294025807827,1.0010660755142453,5.403227027259163
20,23,female,469,165,165,same,valid,anti,2,1,1,0.09571170803610585,0,j,change,1.0543294404255903,0.3874564437217577,0.4994191748623962,0.03533892798486704,0.3532879321146538,1.0010766592963591,4.790599548810405
20,23,female,470,105,55,change,valid,anti,5,1,1,0.0769351162834937,0,j,change,0.23833843599913962,0.3901051969976955,0.49981173696551195,0.03534309735323404,0.35332353210969814,1.0010574160560282,4.0717878702162125
20,23,female,471,75,25,change,valid,anti,2,0,1,0.0906844115002059,0,j,change,0.22671519811865437,0.23316503418753798,0.5005615818968181,0.035306535196923505,0.35331968346145004,1.0010609439837026,4.002707844635097
20,23,female,472,15,65,change,valid,clock,4,2,2,0.23366361148146098,1,j,change,0.5475292000137415,0.5485127951398334,0.49956670637175193,0.03535977482852104,0.35329947805894335,1.0010378520955783,4.460595616774754
20,23,female,473,105,105,same,valid,anti,3,1,2,0.7831729409253967,1,j,change,0.24999246306424538,0.39270891211571646,0.5000715207097528,0.03533315501272227,0.3532715753603952,1.0010753764140645,4.6616849124657165
20,23,female,474,75,125,change,catch,clock,2,0,1,0.19904373924418906,0,j,change,0.06622015934726733,0,0.49979281444575463,0.035339248705440696,0.3533074960760132,1.0010667169553926,5.5207887932497215
20,23,female,475,75,75,same,valid,anti,3,2,2,0.20548092385524797,1,j,change,0.4480759646153274,0.5476596439336381,0.5003297008511254,0.03532353339278416,0.35325842581278266,1.0010888466822507,4.355915596582236
20,23,female,476,75,75,same,catch,anti,1,2,1,0.2433359055130495,0,j,change,0.22413083094215835,0,0.49917671003458963,0.0353100631241432,0.35334566183564675,1.0010548502909842,5.720413678351633
20,23,female,477,165,165,same,catch,anti,1,2,1,0.15359056414126826,0,j,change,0.48379687092074164,0,0.4998046811106178,0.03533315501272227,0.3532722168019973,1.0010760178552118,5.909483004690628
20,23,female,478,165,215,change,catch,clock,3,1,1,0.16121922604952488,0,j,change,0.3312204255448705,0,0.4999008973122727,0.03536811356616454,0.35330460958948606,1.0010641511903486,5.756592894497317
20,23,female,479,45,355,change,valid,anti,5,2,2,0.10168673415910234,1,j,change,0.8050980475163669,0.5468372734471452,0.49968601446153116,0.03533475861604529,0.35331872129927433,1.0010619061454236,4.661409734129393
20,23,female,480,15,15,same,valid,clock,4,1,2,0.25749155382072786,1,j,change,0.4314122806508749,0.3912131908965914,0.49912443256471306,0.03528055682227205,0.3533434167911764,1.0010583782182039,4.437202892387631
