subject,age,gender,ntrial,memory_ori,test_ori,type,trial_type,which_change,trial,quest,pas,pas_rt,vis,test_key,test,test_rt,contrast,fix_dur,target_dur,mask_dur,retention_dur,trial_dur
21,24,female,1,45,45,same,valid,anti,5,2,2,0.37958516582784796,1,f,same,2.926409958637123,0.2,0.5077143581961536,0.035321808700700785,0.353321037056503,1.001069590062798,7.024173376860745
21,24,female,2,75,75,same,valid,clock,3,2,2,1.4541113791233329,1,f,same,6.03445811873371,0.11397766455402543,0.5001775166715561,0.0353089800341877,0.35327838174089266,1.0010711936465668,11.197672110190524
21,24,female,3,75,75,same,valid,anti,4,1,2,0.011708403128977807,1,f,same,8.428880920148913,0.2,0.4996127346321373,0.03538498988291394,0.35326843952407216,1.0010234068636237,12.139353634056533
21,24,female,4,75,125,change,valid,clock,1,1,1,2.121972394633758,0,j,change,10.747401633795107,0.09338226537841544,0.5000373634911739,0.03533367521731634,0.353278061023957,1.0010577235466371,16.591904726626126
21,24,female,5,75,25,change,valid,anti,3,0,2,0.13647872991077747,1,j,change,3.3241066357236377,0.2,0.499665652881049,0.0353609361332019,0.35330435979039976,1.0010311040637134,7.145719218336126
21,24,female,6,45,355,change,valid,anti,4,0,1,0.09404663284385606,0,j,change,16.192386378906576,0.0723357464867447,0.5002150405211978,0.03531892225100819,0.3533014733402524,1.0010477813302714,19.960006632420573
21,24,female,7,135,85,change,valid,anti,2,0,1,0.009999945478284644,0,j,change,6.574472493254234,0.15406686854268764,0.4997169675471014,0.0353314302005856,0.35327164669070044,1.0010503470639378,10.290473400241353
21,24,female,8,135,185,change,valid,clock,1,2,1,0.025105379476826784,0,j,change,7.051041415104464,0.056143516159837065,0.49989785174375356,0.03533912740067535,0.35328543750711106,1.0010606099967845,10.773702644982677
21,24,female,9,45,355,change,valid,anti,2,2,2,0.025843669229288935,1,j,change,3.4735910676558888,0.16391670208980944,0.4999414692092614,0.03529486850129615,0.35335310872233094,1.0010420084304315,7.181815557772552
21,24,female,10,105,105,same,catch,anti,2,2,1,0.0215002034947247,0,j,change,8.820460889084188,0,0.4996399955484776,0.03532309156753399,0.3533094912568231,1.0010432912972647,14.070787619182738
21,24,female,11,135,185,change,valid,clock,3,2,2,0.05287174508657699,1,f,same,10.998463446479036,0.1384402033061635,0.4997480770630318,0.03533816525032307,0.35329602115734815,1.0010631757299961,14.895572089568759
21,24,female,12,135,85,change,catch,anti,2,2,2,0.633360241461105,1,j,change,5.139463319154402,0,0.4998503856777461,0.03532694016757887,0.3533466943890744,1.0010522713637329,10.996821056460249
21,24,female,13,165,165,same,catch,clock,2,0,1,5.775069860106669,0,j,change,3.5161508099540697,0,0.5008256850424004,0.035328223034412076,0.3533322621397019,1.0010516299303163,14.51930794476084
21,24,female,14,165,165,same,valid,anti,5,2,1,0.002843473912889749,0,j,change,2.848250346293753,0.11872024934161819,0.5004757831657116,0.035313790784130106,0.3533226406398171,1.0010381598303866,6.6518704035288465
21,24,female,15,15,15,same,valid,clock,1,2,1,0.06314429972644575,0,j,change,2.615427048665879,0.17115777198944546,0.49967719868118365,0.035313790784130106,0.35327292955753364,1.0010772872628877,6.427121789265584
21,24,female,16,105,55,change,valid,anti,3,1,1,0.08366599668988783,0,j,change,4.45141767989071,0.19541626699530124,0.500491498282372,0.03529166133466788,0.3533239235066503,1.001050347063483,8.324792007227643
21,24,female,17,75,125,change,valid,clock,4,0,1,0.0300973342996258,0,j,change,6.049186069222742,0.21311075128297638,0.4995655892830655,0.03535227678366937,0.35332841353965705,1.0010525920802138,9.830700409908331
21,24,female,18,135,135,same,valid,clock,2,2,2,3.960508874711195,1,f,same,1.6660258747788248,0.21496010985162897,0.5002910503694693,0.035311225051373185,0.3533415629231058,1.0010028809974756,9.336697971820286
21,24,female,19,135,185,change,valid,clock,5,1,1,1.3189562468710392,0,j,change,4.267159864747555,0.27218349559473376,0.5005030440820519,0.03531731866769405,0.35331205699003476,1.0010458570300216,9.301841522993527
21,24,female,20,165,165,same,valid,clock,1,0,2,0.8389521288690958,1,f,same,3.0908061117052057,0.26426607632977905,0.5000607758074693,0.03534618316689375,0.35329473829051494,1.0010253311643282,7.6056471148167475
21,24,female,21,75,25,change,catch,anti,4,0,1,1.2664369693943627,0,j,change,2.875222617451982,0,0.5001047139899129,0.035321808700700785,0.3533014733402524,1.0010137853641936,9.265856472238283
21,24,female,22,135,135,same,valid,anti,1,1,2,0.40388811221964716,1,f,same,1.666774748181524,0.33572746045018725,0.5006752689291716,0.03530641430143078,0.35331558487314396,1.0010368769635534,5.68696674841749
21,24,female,23,45,45,same,valid,anti,4,1,2,0.24432740424435906,1,f,same,1.553511093749421,0.3022517382324341,0.49974679419665335,0.03531763938417498,0.35330660480667575,1.001050667779964,5.414732825382089
21,24,female,24,15,15,same,valid,anti,5,1,2,0.40165945214539533,1,j,change,3.30036750922136,0.2764665340801947,0.4998340291281238,0.03533014733375239,0.3533165470230415,1.0010089746142512,7.287574763062821
21,24,female,25,45,45,same,valid,clock,1,2,3,2.3785300080148772,1,f,same,2.3217461611016006,0.20231629922864494,0.4993135059880842,0.035362860433451715,0.3533069255231567,1.001010898914501,8.300200415841118
21,24,female,26,45,355,change,valid,anti,5,2,3,1.4513833632081514,1,j,change,1.5951025924487112,0.19159791029155238,0.4996473720316317,0.03532309156753399,0.35328319249083506,1.0010349526637583,6.6397553316737685
21,24,female,27,15,325,change,valid,anti,1,2,2,0.23433996671565183,1,j,change,3.5996022471972537,0.18217151777060492,0.4997862423456354,0.035302565700931154,0.3533287342565927,1.0010477813302714,7.416760716827412
21,24,female,28,45,355,change,valid,anti,1,0,2,0.4147344289654029,1,j,change,1.6935699837431457,0.2177820111252288,0.5002246620206279,0.035337844533842144,0.35327357099095025,1.0010625342965795,5.685748987257284
21,24,female,29,15,65,change,valid,clock,3,0,2,0.10605009530127063,1,f,same,3.1759666480329543,0.18486159551776588,0.5004433907834027,0.03529615136812936,0.3533274513897595,1.0010516299298615,6.887763601032475
21,24,female,30,135,85,change,valid,anti,3,1,2,0.14971406506128915,1,j,change,1.2288585982691984,0.2563374454500586,0.4998478199445344,0.03533046805068807,0.3533062840901948,1.0010461777469573,4.955652903752707
21,24,female,31,135,135,same,valid,anti,5,0,2,0.3966726287894744,1,f,same,1.3106176136948307,0.15850990239866825,0.5000325527407767,0.03534169313388702,0.3533094912568231,1.001042649863848,5.308813261762225
21,24,female,32,135,185,change,valid,clock,2,1,2,0.21049404156565288,1,j,change,1.3406347688292044,0.2394291706100298,0.5003728331180355,0.03534618316689375,0.353278061023957,1.0010631757299961,5.132750078014396
21,24,female,33,105,155,change,catch,clock,2,1,1,1.7802106274598373,0,j,change,11.501320550849869,0,0.5000428156740782,0.035353559650502575,0.35329954904045735,1.0010147475140911,18.37004865592462
21,24,female,34,45,45,same,valid,anti,5,0,2,0.48461089211514263,1,f,same,1.6146432171472043,0.13720557466136166,0.5000941303396758,0.03530160355148837,0.3533027562066309,1.0010756836795736,5.720843407845223
21,24,female,35,165,215,change,valid,clock,3,2,2,1.1541059590117584,1,j,change,3.5483639120634507,0.17364710595428645,0.5006059941301828,0.035304810717661894,0.35328575822404673,1.0010695900632527,8.335864108502392
21,24,female,36,165,165,same,valid,clock,2,2,2,0.18568981503312898,1,f,same,1.421671851051542,0.16577357956357727,0.5005957311968814,0.035296792801091215,0.3532828717738994,1.001065100030246,5.215726533883753
21,24,female,37,15,15,same,catch,clock,4,0,1,0.006683414490453288,0,j,change,1.6075515303477914,0,0.49969323451387027,0.035346824600310356,0.35330211477321427,1.0010574028297015,6.780780220248744
21,24,female,38,15,15,same,catch,clock,5,1,1,0.01491428686904328,0,j,change,1.755674520055436,0,0.5002634687366481,0.03533495808414955,0.3532738917074312,1.0010545163800089,6.934839354628366
21,24,female,39,165,215,change,valid,clock,1,1,1,0.584860505891811,0,j,change,5.220962874801899,0.22455311734249506,0.4998195968782966,0.0353532389335669,0.3532787024573736,1.0010330283639632,9.442902652551311
21,24,female,40,45,45,same,valid,anti,2,2,2,0.44846067227990716,1,f,same,2.295116415337361,0.15892531467475662,0.49912909390832283,0.03537344408323406,0.35326876024100784,1.0010067295979752,6.368060533345215
21,24,female,41,45,45,same,valid,anti,5,1,2,0.300955703577074,1,f,same,1.768320377983855,0.24641986576771974,0.49951267103415375,0.035346824600310356,0.35323444355844913,1.0010779286963043,5.685137059868794
21,24,female,42,135,185,change,catch,clock,1,0,1,0.18950345684424974,0,j,change,2.3751599173447175,0,0.500106317573227,0.03530994218453998,0.3533040390734641,1.0010660621796887,7.688566162404186
21,24,female,43,165,165,same,valid,clock,5,1,2,0.35044164287728563,1,f,same,1.7455658516296353,0.2343912187683162,0.499561099249604,0.03533816525032307,0.3532992283235217,1.0010192375475526,5.767680227529127
21,24,female,44,105,155,change,valid,clock,4,0,1,1.515507131616232,0,f,same,5.880533043918604,0.11902851889602863,0.4996630871482921,0.03535067320035523,0.35330435979039976,1.001023727581014,11.020214450402364
21,24,female,45,75,125,change,valid,clock,5,1,2,0.4413378759641091,1,j,change,2.079926119709853,0.22317172080010372,0.5004279963832232,0.03533624095052801,0.3533268099563429,1.0010423291469124,6.110765913078922
21,24,female,46,105,105,same,valid,anti,4,2,2,0.2706123795987878,1,f,same,1.2344692155302255,0.15240848791373504,0.4996441648650034,0.03533367521731634,0.3532918518403676,1.001037197680489,5.143704796991187
21,24,female,47,75,75,same,catch,clock,3,1,1,0.1212078061153079,0,j,change,2.4058646889993724,0,0.5002204927041021,0.03533303378389974,0.3532671566576937,1.0010516299303163,7.652830308494231
21,24,female,48,135,185,change,valid,clock,5,0,1,0.1043567113329118,0,j,change,1.431712527545642,0.13473251545040466,0.5003244049021305,0.03535067320035523,0.35323797144155833,1.0010772872633424,5.1679496936676514
21,24,female,49,75,25,change,catch,anti,3,1,2,0.04213960347260581,1,f,same,2.125548064683244,0,0.49950369096768554,0.03532694016712412,0.3532636287745845,1.0010676657630029,7.310124672187158
21,24,female,50,165,115,change,valid,anti,5,1,2,0.018942488126413082,1,j,change,1.9051201452721216,0.21301215697973636,0.5004084326674274,0.03531892225100819,0.3533280928231761,1.001029821197335,5.544579776184946
21,24,female,51,75,125,change,valid,clock,5,2,1,0.17370784059221478,0,j,change,2.324834983260189,0.14609848070778214,0.500558848781111,0.035352918216631224,0.3532790231738545,1.0010760043960545,6.122554495373151
21,24,female,52,105,105,same,valid,clock,1,0,2,0.08116216171993074,1,f,same,2.8301417214852336,0.14902905874693795,0.4990505183263849,0.03536478473324678,0.3533216784899196,1.0010400841301816,6.615074581055978
21,24,female,53,165,165,same,valid,anti,2,0,2,0.04723033902610041,1,f,same,1.24603906906259,0.13432200669608704,0.4997993917286294,0.035350352483419556,0.353298907606586,1.001022444714181,4.932197611494757
21,24,female,54,45,45,same,valid,clock,4,0,2,0.06877544285362092,1,f,same,1.1439873483691372,0.12102509786344924,0.4997775829956481,0.03534265528378455,0.3533046805068807,1.0010548370969445,4.849657651000598
21,24,female,55,105,55,change,valid,anti,5,0,2,0.05434191025915425,1,j,change,1.481165753746609,0.10914373403759693,0.4998407641778613,0.03534297600026548,0.35331686773997717,1.0010227654306618,5.2146421908541924
21,24,female,56,135,185,change,valid,clock,1,1,2,0.05840122103245449,1,j,change,1.3598694298334522,0.2036603789695378,0.5001210705395351,0.03532116726773893,0.3532735709904955,1.0010625342970343,5.0387422518865606
21,24,female,57,165,215,change,valid,clock,2,2,2,0.04599814561652238,1,j,change,1.2394130628540552,0.16668846082613667,0.4994289639857925,0.03529037846828942,0.3533377143226062,1.0010311040637134,4.896561821182786
21,24,female,58,75,125,change,valid,clock,4,2,2,0.06643838054742446,1,j,change,1.1920015189139122,0.16157090658954756,0.4992548148388778,0.03534169313343227,0.35330917054034217,1.0010525920802138,4.87224861185814
21,24,female,59,135,135,same,valid,anti,5,2,2,0.02682442077775704,1,f,same,1.2686861553352173,0.15651543287946165,0.5002586579867057,0.03530384856821911,0.3533232820732337,1.0010500263465474,4.9206184571798985
21,24,female,60,45,355,change,valid,anti,2,0,2,0.043442354547551076,1,j,change,1.4571950698154978,0.09836406026337237,0.5000046503914746,0.035343296717201156,0.3532742124239121,1.0010455363135407,5.1206237810761195
21,24,female,61,165,165,same,valid,clock,4,2,2,0.04376627837518754,1,f,same,1.2543167660728614,0.1519318963818656,0.5001162597895927,0.035342013850822696,0.3533101326902397,1.00102789689754,4.931809223618984
21,24,female,62,75,75,same,valid,anti,5,0,2,0.045387180377929326,1,f,same,1.4345521528584868,0.08843709364041914,0.5002313970703653,0.03530994218408523,0.3532803060406877,1.0010413669970148,5.132372594504886
21,24,female,63,165,115,change,valid,anti,5,0,2,0.038356109026608465,1,j,change,1.5929865039220203,0.07919012528681482,0.5001707816213639,0.03535291821708597,0.3533056426567782,1.00102597259729,5.238643022151791
21,24,female,64,135,135,same,catch,clock,3,2,2,0.011738229778984532,1,f,same,1.1068692056524014,0,0.49992222620994653,0.03532694016712412,0.3533219992064005,1.001024048297495,6.274667521056017
21,24,female,65,135,135,same,valid,clock,1,2,2,0.013387354847964161,1,f,same,1.4592810109761558,0.14733123500481585,0.5002551301035965,0.03530320713434776,0.3533271306732786,1.0009955045143215,5.132906587744856
21,24,female,66,105,105,same,valid,anti,1,1,2,0.005767126991486293,1,f,same,2.1885958286948153,0.19493200734246405,0.4991781635571897,0.035365105450182455,0.3533027562066309,1.0010522713637329,5.826188247209757
21,24,female,67,45,45,same,catch,anti,5,1,2,0.1366188830916144,1,f,same,2.061065735048942,0,0.5001974011047423,0.03531763938417498,0.35328607894052766,1.0010574028301562,7.381665975522537
21,24,female,68,15,15,same,valid,anti,4,2,2,0.08790587094290458,1,f,same,1.7640731272472294,0.14312517431858543,0.5000572479239054,0.035316035800860845,0.3533322621397019,1.0010365562470724,5.568393950385598
21,24,female,69,45,45,same,valid,anti,3,2,1,0.3676766355029031,0,j,change,3.793632940423322,0.13885851225494963,0.4991781635571897,0.03534842818407924,0.3533114155570729,1.0010574028297015,7.7700968275671585
21,24,female,70,165,215,change,valid,clock,1,0,1,0.11318860673327436,0,j,change,1.2617333388498082,0.07049927578454787,0.49903993467660257,0.035329826617271465,0.35331782989032945,1.001030141913816,4.978167213328561
21,24,female,71,135,135,same,valid,clock,4,2,2,0.12248040982467501,1,f,same,1.1158072582670684,0.15299601895343606,0.5001669330217737,0.035316035800860845,0.3532896068240916,1.0010702314966693,4.885650398955477
21,24,female,72,135,135,same,valid,clock,5,2,1,0.5559517475371649,0,j,change,1.3138279874679029,0.14919468802891322,0.4996874616144851,0.0353025657013859,0.3533008319068358,1.001056119963323,5.473723202920155
21,24,female,73,165,115,change,valid,anti,4,0,1,0.00412986843912222,0,j,change,6.686383685528199,0.07831239115391657,0.49925962558927495,0.035332071634002205,0.3533191127567079,1.0010102574810844,10.360256855559328
21,24,female,74,45,45,same,valid,anti,1,2,2,0.16353214238415603,1,f,same,1.8984364100647326,0.16186273712391722,0.5006124084634394,0.03531667723427745,0.3533050012233616,1.0010535542301113,5.709814282603475
21,24,female,75,165,215,change,valid,clock,5,0,2,0.013828019539232628,1,j,change,1.8850622046002172,0.08601972485731485,0.5003635323350863,0.03532084655080325,0.3533123777065157,1.0010365562470724,5.603802673301743
21,24,female,76,135,85,change,valid,anti,2,2,2,0.03214222372753284,1,j,change,1.2233393852566223,0.1584240600434026,0.5000729630405658,0.03532212941763646,0.353261383757399,1.0010599685633679,4.932703060952008
21,24,female,77,75,75,same,valid,clock,2,0,2,0.6009207133893142,1,f,same,1.9557106327515612,0.07835576896935147,0.4993465398038097,0.03529262348502016,0.3533248856560931,1.0010493849135855,6.238460534371825
21,24,female,78,75,25,change,valid,anti,4,2,1,0.10328359338654991,0,j,change,1.7391842315164467,0.15524166357344385,0.4999838038083908,0.03534393815016301,0.3532947382900602,1.0010365562470724,5.591385165635984
21,24,female,79,105,155,change,valid,clock,2,0,1,0.0039226854760272545,0,j,change,2.6981148595405102,0.07109275538545659,0.5002984268526234,0.035331750917521276,0.3532957004404125,1.0010359148136558,6.4167010635287625
21,24,female,80,45,45,same,valid,anti,3,0,1,0.02934749874702902,0,j,change,1.2138022339195231,0.07763742426932929,0.49939689231996454,0.03534906961658635,0.35333546930587545,1.0010278968970852,4.9313845947599475
21,24,female,81,165,165,same,valid,anti,4,0,1,0.16605842752005628,0,j,change,2.3872409932341725,0.0842422718484572,0.5002480743369233,0.03535452180040011,0.3532867203734895,1.0011369405619917,6.2517577678377165
21,24,female,82,75,75,same,valid,clock,5,0,2,2.5160972502717414,1,j,change,3.9771312985144505,0.09036235103208426,0.49981446541187324,0.03533335450083541,0.35330243549014995,1.0010554785303611,10.207896878047904
21,24,female,83,105,55,change,valid,anti,5,1,2,0.22405939415966714,1,j,change,1.3323936335177677,0.1866921668586642,0.5001916282044476,0.03532501586732906,0.3533293756895546,1.0010269347476424,5.250614092225987
21,24,female,84,165,115,change,valid,anti,3,0,2,0.2441827610305154,1,j,change,1.2212149580968799,0.08384064978930568,0.4998086925120333,0.035320525834322325,0.3533178298898747,1.0010394426972198,5.214731029368977
21,24,female,85,165,115,change,valid,anti,4,2,2,0.1710821332917476,1,j,change,1.879147227228259,0.16672566417096535,0.49979682599541775,0.03531956368442479,0.35330852910692556,1.0010545163800089,5.67360056086909
21,24,female,86,15,325,change,catch,anti,3,0,1,0.012471708781504276,0,j,change,0.9215055594627302,0,0.5004055462172801,0.03527626693539787,0.35334348722244613,1.0010378391139056,6.062744045334057
21,24,female,87,165,115,change,catch,anti,3,1,2,0.0119159068085537,1,j,change,1.342728727906433,0,0.5007811054265403,0.035348107466688816,0.3532742124239121,1.001050347063483,6.535018891814616
21,24,female,88,165,165,same,catch,clock,2,0,2,1.4389745148923794,1,j,change,10.426321601196832,0,0.5000408913742831,0.03531154576785411,0.35334380793983655,1.001041046280534,17.109423072420668
21,24,female,89,15,325,change,valid,anti,1,0,1,0.015046422133309534,0,j,change,2.023400449708788,0.07754724102829103,0.5001201083891829,0.035344579583579616,0.353302114773669,1.001061892863163,5.662394720747216
21,24,female,90,135,85,change,catch,anti,5,1,1,0.01985941705879668,0,j,change,1.4373513678729068,0,0.49952453755031456,0.03532982661772621,0.3532735709904955,1.0010519506467972,6.580129293714435
21,24,female,91,45,95,change,valid,clock,3,0,2,0.2542324175910835,1,f,same,6.53291242478781,0.08330329170272362,0.5000117061581477,0.035332071634002205,0.3533280928231761,1.0010583649800537,10.36147878603606
21,24,female,92,15,15,same,valid,anti,4,1,1,0.08267594435847059,0,j,change,1.8925127733427871,0.17921710662835547,0.5001040725564962,0.035308980034642445,0.3533126984229966,1.0010192375470979,5.556738465505532
21,24,female,93,45,45,same,catch,clock,1,2,2,0.009535547753785067,1,j,change,1.26281222969601,0,0.49913230107449635,0.0353750476665482,0.3533046805068807,1.0010240482970403,6.391180676692784
21,24,female,94,105,155,change,valid,clock,5,1,2,0.010504112068701943,1,j,change,1.2829788933158852,0.19163686027419075,0.5008179878432202,0.03530994218408523,0.3532924932737842,1.0010769665464068,4.87396188025923
21,24,female,95,105,105,same,catch,anti,4,1,2,0.37230585978204545,1,f,same,1.3914407779047906,0,0.49962075254870797,0.03537729268282419,0.35323283997468025,1.0010711936465668,6.875186376469628
21,24,female,96,165,165,same,valid,clock,4,1,1,1.6690736452046622,0,j,change,5.9233926562937995,0.18483318008483093,0.499454300601883,0.03532854375043826,0.3533027562070856,1.0010545163804636,11.244464350258568
21,24,female,97,75,75,same,catch,clock,1,0,1,0.06697942955406688,0,j,change,1.038076444098806,0,0.4997471149131343,0.03535644610019517,0.35328928610715593,1.0010452155970597,6.203736862243204
21,24,female,98,135,85,change,valid,anti,4,2,1,0.0346880725792289,0,j,change,2.9620152808656712,0.16384000022690398,0.49993537559294055,0.0353574082500927,0.3532880032403227,1.0010477813302714,6.580496514291099
21,24,female,99,75,125,change,catch,clock,5,2,1,0.01999860808973608,0,j,change,2.6341325271800997,0,0.49979201524547534,0.03535291821708597,0.35325721444132796,1.0010651000297912,7.805179060922455
21,24,female,100,15,15,same,valid,clock,2,0,2,0.020579746678777155,1,j,change,1.2767906653489263,0.07741096951797236,0.5005113827155583,0.035313790784130106,0.3533268099563429,1.0010667036131053,4.897684008778469
21,24,female,101,105,55,change,valid,anti,5,2,2,0.5864650513453853,1,j,change,1.1780593242433497,0.1738768411162242,0.5049395176483813,0.03533239235048313,0.3533101326902397,1.0010227654306618,5.384649602616264
21,24,female,102,165,215,change,catch,clock,2,0,1,0.04791506909668897,0,j,change,0.9491814829743817,0,0.499441151218889,0.0353349580836948,0.35328736180736087,1.0010295004803993,6.168100109781335
21,24,female,103,105,55,change,valid,anti,1,1,2,0.8632027984453998,1,j,change,1.4140118543291464,0.19543756357504008,0.49990137962686276,0.03534746603372696,0.3532928139907199,1.0010705522131502,5.897501841715439
21,24,female,104,165,215,change,catch,clock,4,0,1,0.13848481262311907,0,j,change,1.3875803114606242,0,0.5003330642521178,0.03531860153452726,0.3532844753572135,1.0010628550130605,6.651737626831618
21,24,female,105,15,325,change,valid,anti,1,1,2,0.0010753629630926298,1,f,same,2.9093763760747606,0.18945995576851984,0.49991356685995925,0.0353314302005856,0.3533017940571881,1.001039121980284,6.52239933265264
21,24,female,106,105,105,same,catch,clock,3,0,1,0.14090718556053616,0,j,change,1.002562526118254,0,0.49971151536374236,0.035322129417181714,0.3533046805068807,1.0010490641971046,6.250784713489793
21,24,female,107,45,45,same,valid,anti,2,0,2,0.4543471058691466,1,f,same,3.6546163795769644,0.0719439727805267,0.49986353506119485,0.03535131463331709,0.35325304512480216,1.0010663828966244,7.735456862486444
21,24,female,108,105,105,same,valid,clock,4,1,2,0.176875238332741,1,f,same,1.346795735879823,0.18369126071435715,0.499461997801518,0.03531796010065591,0.3532793438907902,1.0010776079798234,5.143556946610261
21,24,female,109,165,215,change,valid,clock,4,2,2,0.26832342479201543,1,j,change,1.2850965854258902,0.17100784495817423,0.49949150373458906,0.03533463736721387,0.3532527244078665,1.001061892863163,5.167119037516386
21,24,female,110,45,95,change,valid,clock,1,0,1,0.18909903313533505,0,j,change,0.9954929687683034,0.06658127349024814,0.4996236389988553,0.03531090433443751,0.35329345542368173,1.0010756836795736,4.790175935538173
21,24,female,111,165,215,change,valid,clock,4,0,2,0.1873286771688072,1,j,change,1.0086882143359617,0.0715793403500308,0.5003301778019704,0.03531860153452726,0.3533101326902397,1.0010586856965347,4.802712429085659
21,24,female,112,165,115,change,valid,anti,2,2,2,0.15422077557650482,1,j,change,1.181846988005418,0.16826028520258254,0.5002961818358926,0.035330788767623744,0.3532742124239121,1.0010711936465668,4.932721021084944
21,24,female,113,135,135,same,valid,anti,5,1,2,0.19918332709539754,1,f,same,1.7180801130975851,0.1780301445812554,0.4995229339670004,0.03530673501745696,0.35333450715643266,1.001053874947047,5.508476060265366
21,24,female,114,45,45,same,valid,anti,1,1,2,0.17738998857294064,1,f,same,1.1874008384174886,0.1728009731709298,0.5001415964056832,0.03531154576785411,0.35329088969047007,1.0010756836795736,4.979496904603366
21,24,female,115,45,45,same,catch,anti,3,0,2,0.6053228702730848,1,j,change,2.367359446725459,0,0.49988341949392634,0.035369916199670115,0.35330788767350896,1.0010622135796439,8.076709331603979
21,24,female,116,105,55,change,catch,anti,2,1,1,0.030568787790343777,0,j,change,2.136423566645135,0,0.5002673173366929,0.03534169313388702,0.3533088498234065,1.0010580442635728,7.405142114363116
21,24,female,117,165,215,change,valid,clock,1,2,2,0.08299601958560743,1,j,change,1.0701093034449514,0.16569983872187022,0.5001480107389398,0.03531635651779652,0.3533033976400475,1.0010516299303163,4.790249058937206
21,24,female,118,105,105,same,valid,anti,3,0,2,0.6271716927776652,1,j,change,1.4302779619229113,0.0665144154356582,0.5001659708718762,0.03535195606673369,0.3533001904734192,1.001029500480854,5.651143980292545
21,24,female,119,75,25,change,valid,anti,3,2,2,0.2209500461353855,1,j,change,1.3359064431015213,0.16327624180706263,0.49919901014027346,0.035343296717201156,0.3532825510569637,1.001074400813195,5.214265028061163
21,24,female,120,15,65,change,valid,clock,4,2,2,0.401149833371619,1,f,same,2.0607902394372104,0.16074683187835753,0.49975384996287175,0.035374406233131594,0.3532924932737842,1.001032066213611,6.085693567418275
21,24,female,121,15,15,same,catch,anti,4,2,1,0.12424659647467706,0,j,change,1.2128590062206968,0,0.5005043269488851,0.03530513143459757,0.3533261685229263,1.0010192375475526,6.4758024090310755
21,24,female,122,105,155,change,valid,clock,3,1,2,0.0327214380163241,1,j,change,1.6401908648990684,0.16760234885499406,0.4999536564423579,0.03535516323381671,0.35333386572301606,1.0010413669970148,5.309008257491769
21,24,female,123,45,95,change,valid,clock,5,2,2,0.4021453378863953,1,j,change,3.1882289288355423,0.15830531285210903,0.49948124080128764,0.03535580466677857,0.3532578558742898,1.0010721557964644,7.275168801196287
21,24,female,124,75,75,same,valid,anti,3,2,2,0.24484023018476364,1,f,same,1.090556914859917,0.15601608011926138,0.5002297934870512,0.03536350186641357,0.35329281399026513,1.0010015981310971,5.061755275869018
21,24,female,125,45,45,same,catch,anti,3,2,2,0.877414715827399,1,j,change,2.6242515675826326,0,0.4995771350832001,0.03530865931770677,0.35329345542368173,1.0010384805468675,8.653100672639084
21,24,female,126,105,155,change,valid,clock,4,2,2,0.05859236816240809,1,j,change,1.5930817567705162,0.153840290914746,0.5002984268526234,0.03533303378389974,0.3533008319068358,1.001054195663528,5.2857726561464915
21,24,female,127,75,75,same,valid,anti,1,0,1,1.4193302987123388,0,f,same,10.13785620796807,0.061772651065219064,0.49948605155123005,0.0353279023174764,0.35327357099095025,1.0010663828966244,15.177365293389812
21,24,female,128,45,95,change,catch,clock,5,0,2,0.10113671605995478,1,j,change,1.6835841497977526,0,0.49995878790878123,0.035292944201501086,0.35331526415666303,1.0010423291473671,6.910250328975053
21,24,female,129,105,55,change,catch,anti,4,0,1,0.03058867222353001,0,j,change,2.330505895253282,0,0.5008606431588305,0.03528588843482794,0.3533239235066503,1.001024369013976,7.477119592356303
21,24,female,130,75,25,change,valid,anti,1,1,2,0.060962464283875306,1,j,change,1.1141257408153251,0.16276940395299733,0.4999732201590632,0.0353096214676043,0.3533216784899196,1.0010333490804442,4.7788835019177895
21,24,female,131,75,25,change,valid,anti,1,0,1,0.059570553977209784,0,j,change,1.141806475076919,0.06610332424389029,0.49961946968187476,0.035351635350252764,0.3532828717738994,1.001037839113451,4.779088119147218
21,24,female,132,135,135,same,valid,anti,2,0,2,0.3627799335281452,1,f,same,1.1404552957860687,0.07060637087099533,0.4988763691794702,0.035325336583809985,0.35327934389033544,1.0010590064134703,5.071974591543494
21,24,female,133,45,95,change,valid,clock,1,2,2,0.21289011573708194,1,j,change,0.9091384043126709,0.1515653066484847,0.5004206199005239,0.03529935853475763,0.353331941423221,1.0010388012638032,4.708684397807701
21,24,female,134,105,55,change,valid,anti,4,0,2,0.22275792595110033,1,j,change,1.4648188255546302,0.0660604422340357,0.49964256128168927,0.035331750917521276,0.35327292955753364,1.001059327130406,5.273133212551329
21,24,female,135,15,15,same,valid,anti,1,1,2,0.22209789106364042,1,f,same,1.0855360955374636,0.1579182378499564,0.5001800824052225,0.035341051700470416,0.3532851167906301,1.0010445741636431,4.9086756101714855
21,24,female,136,105,105,same,valid,anti,5,2,2,0.2723554746494301,1,f,same,1.356677978343214,0.14933669741200933,0.4999568636094409,0.03536221900003511,0.35329666259031,1.001001918847578,5.238528847020461
21,24,female,137,75,75,same,valid,anti,1,1,2,0.10341155933383561,1,f,same,1.2981215304471334,0.15337912671753826,0.4998442920609705,0.035326298734162265,0.35334605295611254,1.0010397634137007,5.037662398890006
21,24,female,138,45,355,change,valid,anti,5,1,2,0.48283861184836496,1,j,change,0.9699049107175597,0.148795303406792,0.4998250490616556,0.03533720310088029,0.35329153112388667,1.001037197680489,5.108174843177494
21,24,female,139,165,165,same,valid,clock,3,2,2,0.5205042179054544,1,f,same,1.110084710891897,0.1472196726563651,0.5004446736502359,0.0353279023174764,0.35326972239090537,1.0010420084304315,5.274572268207976
21,24,female,140,105,105,same,valid,anti,2,2,2,3.5564703463774094,1,f,same,2.203944686638806,0.145213518372599,0.4992548148388778,0.035325978017681336,0.35329602115734815,1.0010522713637329,9.394467701747544
21,24,female,141,15,65,change,valid,clock,2,1,2,0.7374985447481777,1,j,change,1.2250625958740784,0.14446226149971042,0.5001233155562659,0.03532084655080325,0.3533171884564581,1.0010314247801944,5.5913075522039435
21,24,female,142,15,325,change,catch,anti,2,0,1,0.4343764001287127,0,j,change,1.4720785678846369,0,0.500414847000684,0.035303527851283434,0.353321037056503,1.0010221239977,7.028574571594618
21,24,female,143,105,155,change,valid,clock,5,2,2,0.05887203309021061,1,j,change,1.7477913045377136,0.14328578220434215,0.5006156156300676,0.035337844533842144,0.3532992283235217,1.0010420084304315,5.43899985150847
21,24,female,144,135,85,change,valid,anti,5,0,1,0.07325938248550301,0,j,change,0.8958572066799206,0.06177724131983464,0.4997051010304858,0.03535003176693863,0.3532998697569383,1.0010282176140208,4.590200759007985
21,24,female,145,105,105,same,valid,clock,5,2,2,0.6721993497790208,1,f,same,1.5922979252518417,0.14125011305644397,0.4996217146986055,0.03532501586732906,0.35329826617362414,1.0010269347471876,5.86209568453296
21,24,female,146,75,125,change,catch,clock,2,2,1,0.2564068765500451,0,j,change,0.7252029094129284,0,0.5000652658404761,0.035391404216170486,0.35331943347318884,1.0013925517405369,6.1458426942508595
21,24,female,147,105,105,same,valid,clock,2,1,2,0.0717160939148016,1,f,same,1.1163377236234737,0.14010029660443282,0.49997674804171766,0.03533014733420714,0.3533053219402973,1.0010532335136304,4.897042896174298
21,24,female,148,165,115,change,valid,anti,1,0,1,0.22431115673862223,0,j,change,0.806804132241723,0.06570366011745113,0.4995020873843714,0.035335278800630476,0.3533062840901948,1.0010384805473223,4.6373942156187695
21,24,female,149,135,135,same,valid,anti,1,0,1,0.2483058944194454,0,j,change,1.021264476748911,0.06979058260834253,0.499446603402248,0.03534778675020789,0.35329762474020754,1.0010545163800089,4.861273687731682
21,24,female,150,75,75,same,catch,clock,2,1,1,0.20000051314673328,0,j,change,1.099569694456477,0,0.4995447426999817,0.0353497110504577,0.35331879203977223,1.0010548370969445,6.439593177330153
21,24,female,151,45,355,change,valid,anti,3,2,2,0.18331234242805294,1,j,change,1.0581010302380491,0.13924230918636848,0.5014013714485372,0.03532309156753399,0.3533479772559076,1.0010160303809243,4.910252573991784
21,24,female,152,45,355,change,catch,anti,4,2,2,0.47126619258324354,1,f,same,1.845805523189938,0,0.49922370532294735,0.03532084655080325,0.35328896539022026,1.001093323096029,7.4871060677351124
21,24,female,153,135,85,change,valid,anti,4,1,1,0.3343070291148251,0,j,change,1.3847236881642857,0.13588858566155718,0.49952004751730783,0.035349069617041096,0.3533139812898298,1.0010497056305212,5.355308197486011
21,24,female,154,15,65,change,valid,clock,1,0,2,0.2813442004967328,1,j,change,1.2509130001540143,0.07374347382164964,0.5002009289883063,0.03532661945064319,0.3533223199233362,1.0010413669970148,5.191542252655836
21,24,female,155,15,15,same,valid,clock,4,2,2,0.17680307708360488,1,f,same,1.1102870831045948,0.13732759113675264,0.49951716106761523,0.035330788767169,0.35332039562308637,1.0010362355305915,4.9431645177051
21,24,female,156,105,105,same,catch,clock,2,0,1,0.21355752710815068,0,j,change,0.7953013084916165,0,0.5003038790359824,0.035335278800630476,0.3533107741236563,1.001039442696765,6.121772267437791
21,24,female,157,45,355,change,catch,anti,2,1,1,0.12393838776415578,0,j,change,0.9786380253858624,0,0.5006499323130811,0.03531282863468732,0.35328896539022026,1.0010641378798937,6.205105039517093
21,24,female,158,15,15,same,valid,anti,2,0,2,0.11359206829229151,1,f,same,1.1084092870564746,0.06958312568692973,0.4993115816878344,0.03532950590079054,0.3533053219402973,1.0010452155970597,4.825305955676413
21,24,female,159,165,165,same,valid,clock,2,0,2,0.3514599182749407,1,f,same,2.6030640628323454,0.06565416140275573,0.4996541070818239,0.03533046805068807,0.3532953797234768,1.0010468191803739,6.5572179369132755
21,24,female,160,15,15,same,catch,anti,5,1,1,0.407579240267296,0,j,change,0.9105476333197657,0,0.49998604882512154,0.03535644610019517,0.3533139812902846,1.001070872930086,6.415846674344721
21,24,female,161,15,15,same,valid,anti,4,0,1,0.2887883549065009,0,j,change,1.009975571011637,0.06191536060613015,0.5001104868897528,0.03539910141626024,0.35323187782523746,1.0010586856965347,4.8965117893840215
21,24,female,162,75,125,change,valid,clock,2,2,2,0.16623321809993286,1,j,change,1.6460991072208344,0.13550601341134938,0.4998462163612203,0.035287492018142075,0.35333001712342593,1.0010602892803036,5.368064061228779
21,24,female,163,45,45,same,valid,clock,2,2,2,0.22273932438429256,1,f,same,0.8638657197825523,0.13375126794315342,0.4997150432473063,0.035335599517111405,0.35331269842345137,1.0010567613967396,4.660676320879702
21,24,female,164,45,45,same,valid,clock,1,0,2,0.7737978978302635,1,j,change,2.143838215122287,0.06535339784635821,0.5004706516992883,0.03529069918477035,0.3533056426567782,1.0010814565794135,6.498821526630763
21,24,female,165,45,95,change,valid,clock,5,1,2,0.10656484554101553,1,j,change,3.033045361843506,0.14317823614381314,0.4998734772775606,0.03533271306696406,0.35327485385778346,1.0010750422466117,6.734396893923076
21,24,female,166,165,115,change,valid,anti,2,1,2,0.28766905376096474,1,f,same,1.3520564512637065,0.13921661648281336,0.49940138235297127,0.03532341228401492,0.35329345542368173,1.0010570821136753,5.21451165917324
21,24,female,167,45,45,same,valid,anti,4,2,3,13.108765282549939,1,f,same,1.219027991187886,0.13189650131058545,0.4997605850126092,0.035344579583579616,0.35327838174089266,1.0010721557964644,17.95705539770961
21,24,female,168,15,15,same,valid,clock,5,1,2,0.5244147161479304,1,f,same,2.3412418854677526,0.13543288973264256,0.5003753988512472,0.03531571508437992,0.3532803060406877,1.0010651000297912,6.463627363160413
21,24,female,169,75,75,same,catch,anti,3,1,1,0.22761582120938328,0,j,change,0.9796614322499408,0,0.49997193729223,0.035356125383259496,0.3532876825238418,1.0010602892798488,6.309760979494513
21,24,female,170,105,105,same,valid,anti,5,0,3,0.1562332726216482,1,f,same,1.431734977711585,0.06176375880405066,0.500676872512031,0.03532597801722659,0.3533027562070856,1.0010452155970597,5.192010819696861
21,24,female,171,135,85,change,valid,anti,1,0,1,0.2714359799833801,0,j,change,2.029314464930394,0.058138308760543184,0.49937732860325923,0.0353538803669835,0.35329056897398914,1.0010525920802138,5.862146357765141
21,24,female,172,165,165,same,catch,anti,3,0,1,0.20640843202590986,0,j,change,1.0217587011234173,0,0.49988887167728535,0.03535580466677857,0.3533146227237012,1.0010545163800089,6.333782015941779
21,24,female,173,135,135,same,catch,clock,2,0,2,0.18599353371064353,1,f,same,1.4017550257103721,0,0.5001290884561058,0.03529935853430288,0.3533014733402524,1.0010702314962145,6.73407489439569
21,24,female,174,45,45,same,valid,clock,5,1,3,0.08333020634609056,1,f,same,1.456171021517548,0.13181660917442212,0.49981414469493757,0.035337844533842144,0.3532546487081163,1.0010724765129453,5.179304987753312
21,24,female,175,45,95,change,valid,clock,4,2,1,0.5794682966770779,0,j,change,1.3365289541397942,0.1300616350104623,0.4994600735021777,0.03535644610019517,0.3532809474741043,1.0010317454975848,5.4972981224927935
21,24,female,176,75,125,change,catch,clock,5,2,1,0.1120721920374308,0,j,change,0.8983815675155711,0,0.49947290216823603,0.03531154576785411,0.35332360278971464,1.0010250104473926,6.0973936319137465
21,24,female,177,105,105,same,valid,clock,3,2,3,1.2730876707855714,1,f,same,1.312429662827526,0.13636703177947967,0.5001855345881268,0.03533688238394461,0.35326010089102056,1.0010654207467269,6.204696446491198
21,24,female,178,15,15,same,valid,clock,5,2,2,0.7683344895167465,1,f,same,2.298343466376082,0.1347500987553209,0.4993119024047701,0.03532084655080325,0.3533033976405022,1.0010416877139505,6.651415948020713
21,24,female,179,165,215,change,catch,clock,4,1,1,0.07403038533811923,0,j,change,1.0137542547072371,0,0.4990190880935188,0.03531892225100819,0.3533033976400475,1.0010548370969445,6.191188502179557
21,24,female,180,135,135,same,valid,anti,2,1,3,0.35925205026160256,1,f,same,1.2882861126158787,0.12807685121967263,0.50052934284804,0.035333354500380665,0.3533207163395673,1.0010128232138413,5.262078109260074
21,24,female,181,75,75,same,catch,clock,5,0,1,0.11065334153090589,0,j,change,0.952616037693133,0,0.49986289362777825,0.03535420108346443,0.3532809474741043,1.0010590064130156,6.16917451059453
21,24,female,182,75,75,same,catch,clock,1,2,1,0.060908583885520784,0,j,change,0.8613682991467613,0,0.49912396244144475,0.03533688238394461,0.3532568937243923,1.0010769665464068,6.038318585177876
21,24,female,183,105,55,change,catch,anti,5,2,2,0.045767871054067655,1,f,same,1.3928631562944247,0,0.4997689236461156,0.03530416928470004,0.35329826617362414,1.0010586856965347,6.5574292891924415
21,24,female,184,135,135,same,valid,anti,3,1,3,0.042933697924127046,1,f,same,1.327879546519398,0.12451850203782022,0.4995752107829503,0.035302244984450226,0.3533155848735987,1.001078570129721,4.978515190905
21,24,female,185,75,125,change,valid,clock,2,1,1,0.06449515830126984,0,j,change,1.0996963775373843,0.1208956503184408,0.4998086925120333,0.03527562550198127,0.3533444493727984,1.001068948629836,4.731102171668681
21,24,female,186,105,105,same,valid,anti,1,2,1,0.06054104259237647,0,j,change,0.8399232589172243,0.1330498167435239,0.5001595565386197,0.0353314302005856,0.3532969833072457,1.0010760043960545,4.485165731938196
21,24,female,187,45,45,same,catch,clock,3,1,2,0.008579812104926532,1,f,same,1.1615953344703485,0,0.49968682018106847,0.03534522101699622,0.3532998697569383,1.001054195663528,6.285751168129991
21,24,female,188,165,165,same,valid,anti,1,2,2,0.8995399960936084,1,f,same,1.1280743498191441,0.13878475434271348,0.5006813625454924,0.03531860153407251,0.35330371835698315,1.0010102574810844,5.62786283718151
21,24,female,189,135,85,change,valid,anti,5,1,1,1.0128392500746486,0,j,change,1.3168674192602339,0.12685465228951565,0.4992949044217312,0.03531411150106578,0.35342334567121725,1.0009518870488137,5.921140583903252
21,24,female,190,165,115,change,valid,anti,1,2,2,0.33049723590374924,1,j,change,1.3695438479007862,0.13721063125440366,0.49958643586614926,0.03534297600072023,0.35330243549014995,1.001056119963323,5.296671249707742
21,24,female,191,105,105,same,valid,anti,3,2,2,0.19769135319029374,1,f,same,1.1446464211071543,0.1357040638153992,0.49985423427779097,0.035337844533842144,0.3532969833072457,1.0010250104473926,4.97931249252315
21,24,female,192,105,155,change,catch,clock,5,1,1,0.18529597497399664,0,j,change,0.809876597850689,0,0.49973139979647385,0.03530737645132831,0.35333129998934965,1.0010516299298615,6.121614474840953
21,24,female,193,75,25,change,valid,anti,5,2,2,0.6867807327539595,1,f,same,1.0387595705860804,0.13424725166654902,0.5001332577721769,0.035330788767169,0.3533082083899899,1.0010506677804187,5.3800473185360715
21,24,female,194,75,25,change,valid,anti,5,0,1,2.3240559624919115,0,f,same,2.4898071434504345,0.06151427914113508,0.4991919543736003,0.03530962146805905,0.35330756695702803,1.0010853051794584,8.44114095593477
21,24,female,195,45,45,same,catch,anti,4,0,2,0.8355509286834604,1,j,change,1.0990132510501098,0,0.4998250490616556,0.035353559650502575,0.3532899275401178,1.0010599685629131,7.0047068377116375
21,24,female,196,15,65,change,valid,clock,4,0,1,0.41515745424067063,0,j,change,1.0145477077257965,0.0647133029143313,0.5003263292019255,0.035306735017911706,0.35329858689010507,1.001074400813195,4.990920190621182
21,24,female,197,105,105,same,valid,clock,1,1,3,0.27008864929211995,1,f,same,1.0921797411624539,0.1327556515270347,0.4997220990135247,0.03528717130166115,0.35333835575647754,1.0010262933142258,4.9669036442073775
21,24,female,198,75,125,change,valid,clock,4,1,2,0.22877809838792018,1,j,change,1.3040708245016503,0.1295066895421779,0.500148010738485,0.035394932099279686,0.3532860789409824,1.0010647793133103,5.108589850536191
21,24,female,199,135,85,change,catch,anti,5,1,1,0.13069684995298303,0,j,change,0.9851809659789978,0,0.5003500622351567,0.03529775495098875,0.3533082083899899,1.0010631757299961,6.227550715727375
21,24,female,200,165,165,same,catch,clock,5,1,2,0.013542902428071102,1,j,change,1.5810770114467232,0,0.500783350443271,0.03529166133466788,0.3533239235066503,1.0010670243295863,6.73506622959394
21,24,female,201,105,105,same,valid,clock,2,2,1,0.20022084549236752,0,j,change,1.6428255522660038,0.13270548454300887,0.5032031576479312,0.03531571508437992,0.35331141555661816,1.0010439327302265,5.54738989556472
21,24,female,202,15,15,same,valid,anti,3,0,2,2.1841994447113393,1,f,same,1.8724984501368453,0.06778763064329982,0.4998327462612906,0.03530769716780924,0.35333739360612526,1.0010218032807643,7.746156611718106
21,24,female,203,165,165,same,valid,anti,5,1,3,0.26552164404483847,1,f,same,0.9179799212129183,0.1263731734261832,0.5000261384079749,0.035305772867559426,0.3533085291064708,1.0010676657630029,4.826107105894607
21,24,female,204,75,75,same,valid,clock,1,2,2,0.11142113721643909,1,f,same,5.779627885287482,0.1379311737400091,0.4995267825670453,0.03536350186686832,0.35327677815712377,1.0010436120137456,9.513225553292614
21,24,female,205,165,115,change,valid,anti,2,0,1,0.12187714178571696,0,j,change,0.9723333772712976,0.06447599388026665,0.49986770437772066,0.035332071634002205,0.35331654702349624,1.0010692693467718,4.766717756830531
21,24,female,206,75,75,same,valid,clock,2,2,3,0.032828236664499855,1,f,same,0.9641114849596306,0.13651589484502924,0.4999440349424731,0.03529775495098875,0.35332969640649026,1.0010362355301368,4.6851431534851145
21,24,female,207,75,75,same,valid,anti,4,0,2,0.02767143347819001,1,f,same,3.0715162874353155,0.06744259655917798,0.4993859879532465,0.035354842516881035,0.35332488565654785,1.0010246897304569,6.745494011097435
21,24,female,208,105,105,same,valid,clock,3,1,3,0.013751368257544527,1,f,same,1.2753881713920237,0.12338331398380971,0.499848461377951,0.035343296717201156,0.35331077412320155,1.001055799246842,4.8967584204960986
21,24,female,209,135,135,same,catch,anti,5,1,1,0.15589555797805588,0,j,change,0.8444341387489658,0,0.4998333876947072,0.03532950590079054,0.3532876825238418,1.0010772872633424,6.074565340727986
21,24,female,210,15,65,change,valid,clock,4,1,2,0.12644510918335072,1,j,change,1.0839549624010942,0.12029676225471132,0.500076490923675,0.03534522101699622,0.3532851167906301,1.0010657414636626,4.77890498993429
21,24,female,211,105,105,same,catch,clock,5,1,1,0.10178199798156129,0,j,change,0.6925661405948631,0,0.5003337056850796,0.0353574082500927,0.35327196740718136,1.0010737593797785,5.874806327226452
21,24,female,212,45,45,same,valid,anti,2,1,1,0.04710269379575038,0,j,change,1.3980539554468123,0.11725444150273304,0.4996066410158164,0.03533110948410467,0.35330756695702803,1.0010484227632332,5.014354636296048
21,24,female,213,75,125,change,valid,clock,1,2,2,0.10615304534940151,1,j,change,1.0791826984909676,0.1351521777866188,0.499594133066239,0.03536029470024005,0.3532815889070662,1.0010763251129902,4.743417691436662
21,24,female,214,135,185,change,valid,clock,3,0,2,0.7407939084359896,1,j,change,1.12834952471394,0.06425444014076476,0.49951331246757036,0.035330788767623744,0.35328736180736087,1.0010609307132654,5.438281766904765
21,24,female,215,45,45,same,valid,clock,3,1,3,0.6886790546686825,1,f,same,1.3294311737236058,0.12250064380672157,0.49980965466193084,0.03534650388382943,0.3533162263070153,1.0010535542301113,5.60368721530358
21,24,female,216,75,25,change,catch,anti,1,1,1,0.08240109018015573,0,j,change,0.830508942061897,0,0.49937732860325923,0.035348107467143564,0.3532764574410976,1.0010529127966947,6.003429102535392
21,24,female,217,105,55,change,valid,anti,3,0,1,0.04149881158446078,0,j,change,1.607847872542152,0.06105412513753189,0.5001842517217483,0.03537280264981746,0.3532751745742644,1.0010535542301113,5.239036862210469
21,24,female,218,15,15,same,catch,anti,3,2,1,0.05283935270381335,0,j,change,2.443601494154791,0,0.4989844506940244,0.03532245013411739,0.35330660480667575,1.001048422763688,7.593174443885346
21,24,female,219,45,45,same,catch,anti,5,2,1,0.017998298277234426,0,j,change,1.4140439259954292,0,0.49927694428879477,0.03532052583386758,0.3532918518403676,1.0010638171634128,6.556350077629304
21,24,female,220,105,155,change,valid,clock,3,2,2,0.014111533067534765,1,j,change,1.5895288576039093,0.13382577284580702,0.5003763610015994,0.03529967925123856,0.35332584780690013,1.0010580442635728,5.191710308185975
21,24,female,221,75,25,change,catch,anti,3,2,1,0.06785787248782071,0,j,change,1.0067372948892626,0,0.4993940058698172,0.035304810717661894,0.3532873618069061,1.0010702314966693,6.156154055606748
21,24,female,222,15,325,change,valid,anti,4,0,2,0.0038287154943645874,1,j,change,1.1670863244171414,0.06395404949677558,0.4999639193756593,0.03533367521731634,0.35329890760704075,1.0010234068640784,4.767394468984548
21,24,female,223,45,45,same,valid,anti,4,0,1,0.06690470257217385,0,j,change,0.8493831175392188,0.06085535475363754,0.49993826204263314,0.035325978017681336,0.3533136605733489,1.0010493849135855,4.496702872370406
21,24,female,224,105,105,same,valid,anti,3,1,2,0.03944654567294492,1,f,same,1.1075093561066751,0.11960551622535066,0.49909317364199524,0.03527883266815479,0.35335214657288816,1.0010288590474374,4.71913879879412
21,24,female,225,75,75,same,catch,clock,1,0,1,0.080284360220503,0,j,change,0.8787748751847175,0,0.49996873012605647,0.035346183166439005,0.35328704109087994,1.0010355940976297,6.050497158931648
21,24,female,226,165,165,same,valid,clock,4,0,2,0.3309956295943266,1,j,change,1.4694272032511435,0.0636721904266575,0.5002602615704745,0.035325336583809985,0.35330211477412377,1.0010365562475272,5.379457199880562
21,24,female,227,15,65,change,valid,clock,5,2,2,0.10329064915276831,1,j,change,1.2816610685567866,0.13241439376459863,0.49978912879578274,0.035332071634002205,0.35330243549014995,1.0010577235461824,4.955938983013766
21,24,female,228,165,215,change,valid,clock,3,0,2,0.06063886117317452,1,j,change,2.0918182934856304,0.060667851595387706,0.49954025266652025,0.0353096214676043,0.35331366057380365,1.001040725564053,5.720638469899313
21,24,female,229,75,75,same,catch,anti,2,0,2,0.04795868656219682,1,j,change,2.4186138176919485,0,0.5002381321210123,0.03529871710088628,0.3532793438907902,1.0010410462800792,7.5587884863998624
21,24,female,230,135,135,same,catch,clock,5,2,2,0.04677043133506231,1,j,change,1.0317839832177924,0,0.50014608643869,0.03527626693539787,0.35336401308904897,1.0010477813302714,6.192947312346405
21,24,female,231,45,355,change,valid,anti,3,0,1,1.0694261769585864,0,j,change,1.0466049415381349,0.05773114955710135,0.4992907351052054,0.03531058361841133,0.3533033976400475,1.0010391219811936,5.7085038343284396
21,24,female,232,15,15,same,valid,clock,1,1,1,0.09963159277140221,0,j,change,0.7575654654865502,0.1167920993345391,0.499659238548702,0.035353880366528756,0.3532921725573033,1.001035273380694,4.437009163195398
21,24,female,233,75,75,same,valid,clock,1,0,1,0.07361569869499363,0,j,change,0.954468176408227,0.0604906103788142,0.49969066878111335,0.035334316650732944,0.3532803060406877,1.001063496446477,4.602180809148194
21,24,female,234,75,125,change,catch,clock,4,0,1,0.2006175720016472,0,j,change,0.9150395908682185,0,0.5000780945065344,0.0353574082510022,0.35328832395680365,1.0010538749465923,6.262854564294685
21,24,female,235,135,135,same,catch,anti,1,2,1,0.06527065118643804,0,j,change,0.7073931925324359,0,0.5003667395012599,0.03531924296748912,0.3533046805068807,1.0010458570304763,5.886844747799842
21,24,female,236,75,75,same,valid,clock,4,2,2,0.05101736135475221,1,f,same,1.041502660184051,0.13101357653792994,0.4999934253082756,0.035332071634002205,0.35330660480667575,1.0010557992472968,4.697017367127955
21,24,female,237,105,105,same,catch,clock,4,1,1,0.09281027011729748,0,j,change,1.0536783474881304,0,0.4993664242374507,0.03530160355148837,0.3533271306732786,1.0010525920806685,6.250410116429521
21,24,female,238,165,165,same,catch,clock,3,0,2,1.2145825375555432,1,j,change,1.081115016370859,0,0.49988438164382387,0.03530865931770677,0.35330660480667575,1.0010500263470021,7.4174508990809045
21,24,female,239,105,105,same,valid,clock,1,2,2,0.8196459480495832,1,f,same,2.8678900724407868,0.12961032677235196,0.49965089991565037,0.0353125079172969,0.35329826617362414,1.0010538749465923,7.322748079949633
21,24,female,240,135,135,same,catch,anti,2,0,2,0.21381057255257474,1,f,same,1.2189603199722114,0,0.499258342721987,0.03532309156798874,0.35333482787245885,1.0010150682310268,6.580204341413264
21,24,female,241,105,105,same,catch,clock,5,2,1,0.13361889944735594,0,j,change,1.101961599311835,0,0.4997644336126541,0.035352918216631224,0.35327741959008563,1.001052592079759,6.380432499246126
21,24,female,242,15,15,same,valid,clock,3,1,2,0.0040827230895956745,1,f,same,1.3149828881632857,0.1217142836089094,0.49979618456200114,0.03550846579764766,0.3530946110940931,1.0010737593793237,4.990342579914795
21,24,female,243,45,95,change,valid,clock,3,2,1,0.2220305405644467,0,j,change,0.7776246890243783,0.1282513464140444,0.4998080510786167,0.03529262348456541,0.3533325828566376,1.0010606099967845,4.61392930186048
21,24,female,244,45,45,same,valid,clock,2,1,2,0.25569841344713495,1,f,same,1.0091914187760267,0.11899129272940627,0.500121711972497,0.03534842818407924,0.3532549694245972,1.0010679864799386,4.873745717230122
21,24,female,245,105,105,same,catch,anti,2,1,1,0.5186639457069759,0,j,change,4.464595606758849,0,0.49974968064634595,0.03536799189987505,0.35329826617362414,1.0010455363135407,10.10187660939664
21,24,female,246,15,325,change,valid,anti,3,2,2,0.15916783006650803,1,f,same,1.092060113847765,0.13316358037875559,0.5000559650570722,0.035343938149708265,0.3532976247397528,1.0010269347467329,4.896491263517419
21,24,female,247,135,185,change,valid,clock,5,2,2,0.43670704810119787,1,j,change,1.8416326787182697,0.13185985444951548,0.499878288027503,0.03529583065210318,0.3533300171229712,1.0010509884968997,5.874155913838877
21,24,female,248,135,135,same,valid,anti,3,2,2,0.3180357900546369,1,f,same,1.1173646583702066,0.13055857740867255,0.4994225496529907,0.035302244984450226,0.3533069255236114,1.0010590064130156,5.096020002457408
21,24,female,249,45,95,change,catch,clock,3,0,1,0.2645880378458969,0,j,change,0.6132477789569748,0,0.5004854046655964,0.035320525834322325,0.3532831924912898,1.0010686279129004,6.004723514977741
21,24,female,250,75,125,change,catch,clock,1,1,1,0.13533409214960557,0,j,change,0.829582391628719,0,0.49954891201650753,0.03534297600072023,0.3533226406407266,1.0010253311638735,6.109621916750257
21,24,female,251,45,355,change,valid,anti,4,1,1,0.2214160474422897,0,j,change,1.3765014751361377,0.11637851766307901,0.509628715944018,0.03532245013411739,0.35330788767350896,1.0010493849140403,5.260004034616031
21,24,female,252,135,135,same,valid,clock,3,2,2,0.11042370840186777,1,f,same,2.04908857135797,0.12925712040677775,0.4992836793380775,0.03532309156798874,0.3533014733402524,1.0010153889479625,5.8261831157433335
21,24,female,253,75,25,change,valid,anti,3,1,2,0.09187377746820857,1,j,change,1.4378811917958956,0.12100729746094796,0.4999132461425688,0.03529711351802689,0.3533184713232913,1.0010394426963103,5.250252323832683
21,24,female,254,15,325,change,valid,anti,5,2,1,0.23273157266248745,0,j,change,0.9343015127878971,0.128008536504709,0.49991132184277376,0.03534650388337468,0.35330115262422623,1.001045215596605,4.861729105389713
21,24,female,255,45,45,same,valid,anti,3,1,2,0.2539017587141643,1,f,same,1.315641319466522,0.11844560307033758,0.4993202410378217,0.035381461999349995,0.3532498379572644,1.0010625342965795,5.249365542265878
21,24,female,256,75,125,change,valid,clock,3,1,1,0.21253957242697652,0,j,change,0.7461415380357721,0.11600690755367236,0.5001999668384087,0.035368312616810726,0.3532831924903803,1.0010474606133357,4.590716150682056
21,24,female,257,15,65,change,valid,clock,5,1,1,0.09060502235934109,0,j,change,0.6251649686328165,0.12036636203245481,0.4998404434609256,0.03533175091706653,0.3533017940571881,1.0010160303809243,4.378314807135212
21,24,female,258,15,15,same,valid,anti,2,1,2,0.13445404563208285,1,f,same,1.1252481946057742,0.12441549343978278,0.5003038790355276,0.0353391274011301,0.3532639494915202,1.0010718350795287,4.896819035944645
21,24,female,259,75,75,same,valid,anti,3,1,2,0.06591914027376333,1,f,same,0.9961283084730894,0.1220994761895424,0.5004437115003384,0.03532886446737393,0.3532748538582382,1.0010788908466566,4.661788886975046
21,24,female,260,165,165,same,valid,anti,5,0,1,0.11194326393979281,0,j,change,0.693542402109415,0.06315732427392512,0.5000687937235853,0.0353461831673485,0.353304359789945,1.0010638171634128,4.425792097990779
21,24,female,261,15,15,same,valid,clock,4,0,2,0.08119744055329647,1,f,same,0.8771744990490333,0.06569636305140772,0.5001412756892023,0.03531956368442479,0.3533184713232913,1.0010404048471173,4.566729751633829
21,24,female,262,165,165,same,valid,anti,4,2,2,0.031324396242780495,1,f,same,0.8800115586282118,0.13259233468400006,0.5003337056850796,0.03532437443391245,0.35327004310693155,1.0010654207462721,4.532494851695446
21,24,female,263,45,45,same,catch,anti,5,2,1,0.3451735510107028,0,j,change,0.6099299651023102,0,0.4995142746174679,0.03533816525123257,0.3532876825238418,1.0010724765134,6.097656298859874
21,24,female,264,165,165,same,valid,anti,2,1,1,0.2494482871643413,0,j,change,0.6776133677267353,0.11978033846715601,0.5001512179060228,0.03533110948410467,0.3533101326902397,1.00097562008159,4.57881467612242
21,24,female,265,105,55,change,valid,anti,2,0,1,0.2769465336459689,0,j,change,0.8052140190384307,0.06300446653691935,0.5000838674068291,0.03533335450083541,0.3532777403070213,1.0010721557964644,4.731543798509847
21,24,female,266,75,125,change,catch,clock,2,1,1,0.19439951738513628,0,j,change,0.7508573558125136,0,0.49987732587760547,0.03532180870115553,0.3533101326902397,1.0010638171634128,6.0740942079528395
21,24,female,267,75,75,same,valid,anti,4,2,2,2.116546510169428,1,f,same,3.4136962691345616,0.13137801340303323,0.5006646852789345,0.035277549801321584,0.35336433380598464,1.0010410462809887,9.208077441528076
21,24,female,268,105,55,change,valid,anti,2,2,2,0.2797826310761593,1,j,change,0.7630872442332475,0.13016009254836236,0.49982729407838633,0.03534105170092516,0.35331237770697044,1.001022444714181,4.719631098868376
21,24,female,269,135,135,same,valid,clock,2,0,2,0.0918298392853103,1,j,change,2.900104136699156,0.06547236992479319,0.49974134201329434,0.035291982051603554,0.3533466943890744,1.0010394426972198,6.698027624608585
21,24,female,270,165,115,change,valid,anti,5,2,2,0.07688059430074645,1,j,change,2.7508788438299234,0.12895179125283726,0.5005396057813414,0.035316035800860845,0.3532703638247767,1.0010699107797336,6.545780860078594
21,24,female,271,165,165,same,valid,clock,5,2,2,0.09969060463754431,1,f,same,1.3636263047956163,0.12779745787739394,0.5003587215851439,0.03530064140159084,0.353324244223586,1.001056119963323,5.1796593796634625
21,24,female,272,105,105,same,valid,clock,5,1,2,0.07351146578093903,1,f,same,0.9629995602972485,0.12366255204970854,0.5002628273032315,0.03535997398375912,0.353268118808046,1.0010378391143604,4.743713392197606
21,24,female,273,135,185,change,valid,clock,3,1,2,1.509223330084751,1,j,change,1.584774553826719,0.12146143302963605,0.4996951588145748,0.035332392350028385,0.35330371835698315,1.001039121980284,6.793143206082277
21,24,female,274,45,95,change,valid,clock,1,1,2,0.44665118888042343,1,j,change,2.3045977619749465,0.11924941418039389,0.49946873285171023,0.03531924296748912,0.35331366057380365,1.001048102047207,6.368618259617506
21,24,female,275,15,65,change,catch,clock,1,0,1,0.16636150476369949,0,j,change,0.5707287676750639,0,0.4998449334943871,0.03534746603327221,0.35327421242345736,1.001093964528991,5.921723967509024
21,24,female,276,165,165,same,valid,anti,1,1,2,0.5946744357070202,1,f,same,1.7593271621035456,0.11712347029447256,0.4999539771588388,0.035313790784130106,0.3533139812898298,1.0010538749465923,6.027052450323026
21,24,female,277,75,75,same,valid,anti,2,0,1,0.1598926497190405,0,j,change,0.6742718208406586,0.06285998412909427,0.5004392214668769,0.03526536256867985,0.35335727803885675,1.0010593271299513,4.437725002781917
21,24,female,278,45,355,change,valid,anti,5,0,2,0.34912702528527007,1,j,change,1.062989072862365,0.06526097016539625,0.49964256128168927,0.03532469515084813,0.35327966460681637,1.0010766458299258,5.05009337665615
21,24,female,279,75,25,change,valid,anti,4,1,2,0.41163213670824916,1,j,change,4.435865487583214,0.11509083610769438,0.49908419357598177,0.03530641430097603,0.3533014733402524,1.0010625342965795,8.476300161289146
21,24,female,280,105,155,change,valid,clock,4,1,2,0.23617959748116846,1,j,change,2.8414386451386235,0.11310971860148011,0.4999764273252367,0.035306735017911706,0.35331237770606094,1.0010564406802587,6.769835122771838
21,24,female,281,165,215,change,valid,clock,5,1,2,0.15431025552425126,1,j,change,0.944747575141264,0.11104089687745747,0.4996364676644589,0.03529101990079653,0.3533005111903549,1.0010846637460418,4.731733983489903
21,24,female,282,165,165,same,valid,clock,1,1,2,0.2025075552828639,1,f,same,0.8123685663040305,0.10895594509263622,0.4999799552088007,0.035352918216631224,0.35331333985686797,1.0010538749475018,4.6727891477175945
21,24,female,283,135,85,change,valid,anti,4,0,2,0.22905583901592763,1,j,change,0.8880615468096948,0.06272319534606391,0.5002612237203721,0.03533784453429689,0.35331237770697044,1.001054195663528,4.720675352315084
21,24,female,284,135,85,change,valid,anti,5,2,1,0.09187826750076056,0,j,change,0.948495149320479,0.12668811770677385,0.4994498105679668,0.03535676681622135,0.3532985868896503,1.0010660621801435,4.637337128053332
21,24,female,285,45,355,change,catch,anti,2,0,1,0.08405246026541136,0,j,change,0.6957274447186137,0,0.4998853437937214,0.03535195606673369,0.3533245649396122,1.0010468191803739,5.8857106936875425
21,24,female,286,75,75,same,valid,clock,5,2,2,0.057276788420494995,1,f,same,1.3963974538946786,0.13095427041863142,0.5006557052120115,0.0353237330009506,0.3533005111903549,1.0010593271299513,5.062005114148633
21,24,female,287,15,325,change,catch,anti,4,2,1,0.14152456513238576,0,j,change,0.7355678304511457,0,0.4998013160284245,0.03530513143414282,0.35330628409064957,1.0010737593802332,5.980122943525203
21,24,female,288,135,135,same,valid,clock,5,0,1,0.008141071712998382,0,j,change,0.894351441958861,0.06011313495299289,0.5002839946027962,0.035311545767399366,0.35328832395771315,1.001012823214296,4.543892801098082
21,24,female,289,15,325,change,valid,anti,4,1,2,0.042316959785239305,1,f,same,1.3230075397277687,0.10695837699916896,0.49940106163558085,0.035323091567079246,0.35329249327332946,1.0010756836800283,4.9671788191017185
21,24,female,290,75,75,same,valid,clock,4,1,2,0.032131960794686165,1,f,same,1.3695326228171325,0.10504106144650296,0.49908483500894363,0.03535644610019517,0.35328543750711106,1.001059647846887,5.014034240351975
21,24,female,291,75,75,same,valid,clock,4,0,1,0.08270545029063214,0,j,change,0.6783603168296395,0.06251676661164549,0.49957424863259803,0.03538242414924753,0.35328992754057253,1.0010484227632332,4.366595820356451
21,24,female,292,165,215,change,valid,clock,5,2,2,3.8185003481376043,1,j,change,1.4942776129837512,0.12980684152019328,0.4996605214146257,0.03531026290147565,0.3533117362730991,1.001050667779964,8.900530689857987
21,24,female,293,45,95,change,valid,clock,3,1,2,0.03842057307520008,1,j,change,1.0446889802078658,0.10316715817404458,0.5002111919211529,0.03534105170092516,0.353269080957034,1.0010756836791188,4.684665606377166
21,24,female,294,75,125,change,valid,clock,5,0,1,0.03184588153362711,0,j,change,0.7317593201059935,0.06479775106391528,0.5002102297703459,0.03528845416803961,0.35333867647295847,1.001040725564053,4.378424492233535
21,24,female,295,105,155,change,valid,clock,1,0,1,0.10657254274065053,0,j,change,0.741623602436448,0.0670166992494558,0.4999215847765299,0.0353461831673485,0.3533159055905344,1.0010320662131562,4.4492079420988375
21,24,female,296,45,95,change,valid,clock,2,1,1,0.03473553864569112,0,j,change,2.2434874473101445,0.1012069256917104,0.4996069617327521,0.03531507365096331,0.3533210370569577,1.001039121980284,5.874273937569342
21,24,female,297,105,155,change,valid,clock,1,1,1,0.9063007032991663,0,j,change,1.0685589591075768,0.10446395387983526,0.49930805380427046,0.035357728966118884,0.3532803060406877,1.001076966545952,5.579287733196907
21,24,female,298,75,75,same,valid,anti,5,2,2,0.9965048298327019,1,f,same,1.6508858033803335,0.12868530185412053,0.4999389034765045,0.03533175091706653,0.3533001904734192,1.001219044026584,6.262674000815423
21,24,female,299,75,125,change,valid,clock,3,0,2,0.2724718947965812,1,j,change,1.037285556813913,0.06941245580296779,0.50028367388677,0.03533143020104035,0.3532719674076361,1.0010737593802332,4.920694146311689
21,24,female,300,15,325,change,valid,anti,4,2,1,0.05151960364582919,0,j,change,0.9298518898385737,0.1276123535645589,0.4996579556809593,0.03533848596725875,0.35333482787336834,1.0009544527820253,4.590332573555315
21,24,female,301,165,165,same,valid,anti,2,2,1,0.1634811484354941,0,j,change,0.8757501963591494,0.13165256237093942,0.5055174490707941,0.03534297599981073,0.3532963418729196,1.0010660621801435,4.666942162277337
21,24,female,302,135,85,change,valid,anti,1,1,2,0.1998863380158582,1,j,change,1.2834862670733855,0.10754090951900469,0.49962716688241926,0.03530994218363048,0.35332745139021426,1.001058044263118,5.096403579583239
21,24,female,303,135,185,change,valid,clock,1,0,2,0.8534126016629671,1,j,change,0.9246604492527695,0.06695952424780147,0.4996098481824447,0.0353378445333874,0.3532934554241365,1.0010503470630283,5.3679623940470265
21,24,female,304,165,115,change,catch,anti,5,0,1,0.16147506572269776,0,j,change,0.7294508015829706,0,0.499095418658726,0.035355163233361964,0.3532738917074312,1.001073117946362,6.0142734949804435
21,24,female,305,165,115,change,valid,anti,3,2,2,0.30554580042371526,1,j,change,1.021729515907282,0.1353385249672875,0.5008260057593361,0.03532309156798874,0.3532745331413025,1.0010792115626828,4.9449521923706925
21,24,female,306,15,15,same,valid,anti,3,2,2,2.372725357174204,1,f,same,1.208427343403855,0.1343824664055619,0.4992487212221022,0.03533944811715628,0.3533175091733938,1.0010500263470021,7.216182272258266
21,24,female,307,165,165,same,catch,anti,4,0,1,0.09025832764837105,0,j,change,0.9220058774535573,0,0.49967623653174087,0.035310583617501834,0.35329698330770043,1.0010638171634128,6.1563452027357926
21,24,female,308,45,45,same,catch,anti,3,2,2,0.19528726110274874,1,j,change,0.9437879908928153,0,0.5006268407132666,0.03530481071720715,0.3533056426567782,1.001045215596605,6.333959692971803
21,24,female,309,75,75,same,valid,clock,3,0,2,0.661163810204016,1,f,same,2.057003858541975,0.06462760183182037,0.49990843539399066,0.03534971105000295,0.35329281399026513,1.0010234068640784,6.345313383474604
21,24,female,310,105,55,change,catch,anti,5,1,1,0.1819076034544196,0,j,change,0.743959381876266,0,0.499355199153797,0.0353420138499132,0.353269080957034,1.001058044263118,6.050035647656841
21,24,female,311,105,155,change,catch,clock,2,1,1,0.036521289011943736,0,j,change,0.8516919567782679,0,0.5006056734137019,0.03529583065119368,0.3533325828566376,1.0010529127976042,6.039965785947061
21,24,female,312,15,65,change,valid,clock,5,0,2,0.08626700880722638,1,j,change,1.0039028010432958,0.062278106547765694,0.49958547371534223,0.0353503524838743,0.35330371835698315,1.001119301145991,4.696402874006708
21,24,female,313,75,125,change,catch,clock,3,0,1,0.14455501685824856,0,j,change,3.6431158008435887,0,0.499227553923447,0.03533303378389974,0.3533213577738934,1.0010545163804636,8.900153527065413
21,24,female,314,15,65,change,valid,clock,2,2,2,0.12656537793100142,1,j,change,4.999940667417832,0.1333627496739372,0.4997641128957184,0.03533367521777109,0.3533114155570729,1.00103174549713,8.74739714376119
21,24,female,315,135,135,same,valid,clock,4,1,3,0.9759125752043474,1,f,same,1.4574224579273505,0.10575480494022839,0.5003122176694887,0.035308980034642445,0.35334605295611254,1.0010336697978346,6.039607545436411
21,24,female,316,45,45,same,valid,clock,3,0,3,0.04355075677904097,1,f,same,1.1553718276718428,0.05991633670142257,0.49936738638734823,0.035338806684194424,0.3532764574410976,1.0010609307137202,4.861111084384902
21,24,female,317,105,155,change,catch,clock,1,2,2,0.26752676460728253,1,j,change,1.1107973433117877,0,0.499851989261515,0.03534522101745097,0.35331109484013723,1.0010362355305915,6.498824092363975
21,24,female,318,135,85,change,valid,anti,2,1,3,0.279737730744273,1,j,change,1.2090893025915648,0.10401908022561629,0.4998417263277588,0.035329826617271465,0.35330083190638106,1.0010500263470021,5.120937121254428
21,24,female,319,105,155,change,valid,clock,2,2,2,0.1747565840723837,1,j,change,1.3717757151416663,0.13235095922325102,0.4996435234315868,0.035327260884514544,0.3533184713232913,1.001029821197335,5.178818781296286
21,24,female,320,165,115,change,valid,anti,4,1,3,0.04437916791357566,1,j,change,1.9849773108999216,0.10221715698470656,0.5002849567526937,0.035304490001180966,0.3533309792728687,1.001065100030246,5.650622495002608
21,24,female,321,15,15,same,catch,anti,4,0,1,0.0478647165809889,0,j,change,0.49593026593538525,0,0.5003090105028605,0.03533303378389974,0.3532918518403676,1.0010525920806685,5.662754244123789
21,24,female,322,45,355,change,valid,anti,1,1,2,0.06068985512320069,1,j,change,1.4139111492977463,0.1004029707380182,0.4996630871482921,0.035334637366759125,0.35329986975648353,1.0010548370973993,5.143430263529808
21,24,female,323,135,85,change,valid,anti,1,2,1,0.10236281585457618,0,j,change,0.7524882000325306,0.13133960270229098,0.5004940640155837,0.035288133452013426,0.3533393179068298,1.0010295004803993,4.602737573271952
21,24,female,324,135,85,change,valid,anti,3,0,1,0.06979852900076366,0,j,change,0.5400541433864419,0.05763706331736684,0.49968233014806174,0.03534746603327221,0.35326587379040575,1.001064137879439,4.3071118598772955
21,24,female,325,165,115,change,catch,anti,2,2,1,0.18114461851928354,0,j,change,0.3978037964516261,0,0.5000078575576481,0.03534073098307999,0.35326138375785376,1.0010766458290163,5.745203121086888
21,24,female,326,15,15,same,valid,clock,1,0,2,0.02581833261410793,1,f,same,1.2925426641359081,0.05979199079843078,0.4997788658620266,0.035287492018142075,0.3532312363922756,1.0010897952133746,5.025817691180237
21,24,female,327,105,155,change,catch,clock,3,1,1,0.20983657241140463,0,j,change,0.7686324352944212,0,0.49988919239331153,0.035292944201501086,0.3533329035735733,1.0010201996974502,6.121220634781821
21,24,female,328,165,165,same,valid,anti,4,1,2,0.0009355304991913727,1,f,same,1.207918686780431,0.09858085129360858,0.49994371422599215,0.03534554173438664,0.3532973040237266,1.0010205204134763,4.873321409088021
21,24,female,329,105,155,change,catch,clock,1,2,2,0.005284448417114618,1,f,same,1.277584759801357,0,0.49994531780885154,0.035320846551258,0.35330820839044463,1.0010654207462721,6.392712740180286
21,24,female,330,15,15,same,valid,anti,5,0,2,1.0107045599816047,1,f,same,0.8975326305144335,0.05757106251219565,0.49942479466881196,0.03535003176693863,0.3533126984239061,1.0010413669970148,5.555345593048514
21,24,female,331,135,135,same,valid,anti,2,2,2,0.2812014815826842,1,f,same,1.1935476939352156,0.1348309206375212,0.49990041747696523,0.03533014733420714,0.3532665152242771,1.0010891537795032,5.109260469073888
21,24,female,332,165,165,same,valid,anti,1,0,1,0.2545576242846437,0,j,change,0.6284074140712619,0.05546803674003689,0.4993555198707327,0.03529454778526997,0.35332328207368846,1.001054195663528,4.507390755085908
21,24,female,333,45,45,same,catch,clock,4,1,2,0.12913944984939008,1,f,same,1.0986264667571959,0,0.5001797616887416,0.03535099391683616,0.35326266662468697,1.0010532335136304,6.368706777416264
21,24,female,334,15,65,change,catch,clock,5,2,1,0.08027473872061819,0,j,change,1.09914891419794,0,0.5004058669346705,0.03531731866769405,0.353288965390675,1.001035273380694,6.345666813233947
21,24,female,335,165,165,same,catch,clock,4,0,1,0.2495525200793054,0,j,change,0.837974263770775,0,0.49990137962686276,0.035336882383489865,0.3532668359412128,1.0010201996974502,6.262397863771184
21,24,female,336,105,105,same,valid,anti,4,0,1,0.11389803198562731,0,j,change,0.7340710457965542,0.05750800807844911,0.5002009289883063,0.03532854375043826,0.3532822303413923,1.0010618928636177,4.496357781243205
21,24,female,337,15,15,same,catch,anti,1,1,2,0.05275211777188815,1,j,change,1.1186888974634712,0,0.49963742981526593,0.035361256850592326,0.3532706845408029,1.0010769665468615,6.298119285430403
21,24,female,338,15,65,change,valid,clock,2,0,1,0.045379162461358646,0,j,change,1.0988079923872647,0.059560256397453715,0.49962428043181717,0.03535003176693863,0.3533245649396122,1.0010455363144501,4.7314334719794715
21,24,female,339,75,25,change,valid,anti,2,1,1,0.04987047857594007,0,j,change,1.4061879713935923,0.09684425078788911,0.5001092040229196,0.035330788767169,0.35329954903954786,1.0010388012633484,5.049599152282099
21,24,female,340,15,65,change,valid,clock,1,2,1,0.019469104882773536,0,j,change,0.886715178268787,0.13386029374794464,0.49996456080953067,0.035342013850822696,0.3532806267576234,1.0010400841301816,4.520195367760607
21,24,female,341,135,135,same,valid,clock,3,1,2,0.015093246764990909,1,f,same,1.2478238572784903,0.09995218487187849,0.4998279355113482,0.03534041026705381,0.35330532194075204,1.0010513092138353,4.872731611148993
21,24,female,342,105,55,change,valid,anti,3,2,2,0.007575648240162991,1,f,same,1.2359089126193794,0.13715371997262676,0.5003821339005299,0.035332071634002205,0.3533370728891896,1.0010118610643985,4.849656047417739
21,24,female,343,15,65,change,valid,clock,3,1,1,0.029977065551065607,0,j,change,0.8488888931651672,0.09821342745598668,0.5006098427302277,0.03529358563446294,0.35333643145622773,1.0010461777465025,4.473803702801888
21,24,female,344,45,95,change,catch,clock,1,2,2,0.7275168801197651,1,j,change,1.4577534375212053,0,0.49920959378960106,0.03533335450083541,0.35332360279062414,1.0010567613962849,7.322258345609043
21,24,female,345,15,325,change,catch,anti,1,0,2,0.03722814853153977,1,j,change,1.2792114347039387,0,0.4996688600476773,0.0353349580836948,0.35330660480667575,1.0010609307137202,6.439497283048695
21,24,female,346,135,135,same,catch,anti,2,1,2,1.371467506431145,1,j,change,1.1438077470393182,0,0.4996518620646384,0.035306735017911706,0.35333643145622773,1.0010503470630283,7.699570271746779
21,24,female,347,105,105,same,valid,anti,2,0,2,0.14374103797308635,1,f,same,1.299765203332754,0.06161542390080374,0.4995072188512495,0.03538146200025949,0.35332328207277897,1.001037839113451,5.084324107277098
21,24,female,348,75,75,same,valid,anti,2,1,2,0.22623449455204536,1,j,change,1.9060877474366862,0.10123269352583626,0.5000319113078149,0.03532565730074566,0.35327741959008563,1.0010631757295414,5.733202865795647
21,24,female,349,45,45,same,valid,anti,1,0,2,0.1386089299703599,1,f,same,0.9437559192265326,0.05945211930300884,0.4992679642227813,0.03532405371697678,0.35335310872324044,1.0010397634141555,4.684104031503921
21,24,female,350,165,115,change,valid,anti,1,1,2,0.07149415798539849,1,f,same,1.2824497108258583,0.09952983910117011,0.4999825209415576,0.03531731866769405,0.3533126984229966,1.0010522713628234,4.931632508738403
21,24,female,351,135,135,same,valid,anti,1,2,3,0.03161336195444164,1,f,same,1.3699684767589133,0.13625418944317993,0.5044578012239072,0.035327902316566906,0.3533155848735987,1.0010147475140911,5.031242613494214
21,24,female,352,75,125,change,valid,clock,2,0,1,0.21778906272811582,0,j,change,1.1626713388668577,0.05738999203284975,0.4990841935750723,0.035343617433682084,0.353299869757393,1.0010554785303611,4.966139055688473
21,24,female,353,75,75,same,valid,clock,2,1,2,0.16021657354667695,1,j,change,1.7309886379707677,0.09787448443103967,0.50039592471785,0.035330788767169,0.35327004310784105,1.0010737593802332,5.462635065812719
21,24,female,354,135,185,change,valid,clock,2,0,2,0.12009940933603502,1,j,change,1.1977994347053027,0.05934869024131148,0.49968329229795927,0.03534842818407924,0.35331205699003476,1.0010490641971046,4.884458295127843
21,24,female,355,45,355,change,valid,anti,3,1,2,0.09293246316519799,1,j,change,1.105578641810098,0.0962930450628852,0.5003802096007348,0.0353279023174764,0.3532960211568934,1.0010509884968997,4.76770684701205
21,24,female,356,45,95,change,catch,clock,2,1,2,0.12903200976779772,1,j,change,1.0727164091795203,0,0.49969355523080594,0.03530705573393789,0.3533213577729839,1.001076966545952,6.286448406150157
21,24,female,357,75,25,change,valid,anti,5,1,2,0.08619452684251883,1,f,same,1.7192888941917772,0.09475993186561636,0.5000376842081096,0.03531218720127072,0.3533226406398171,1.0010545163804636,5.426914285585553
21,24,female,358,45,95,change,valid,clock,2,2,1,0.025823784796557447,0,j,change,3.9101047236117665,0.13537851761669384,0.49945558346826147,0.035330468051142816,0.35331494343972736,1.0010304626302968,7.534248530396326
21,24,female,359,105,155,change,valid,clock,1,2,3,0.1400418920102311,1,j,change,1.2493225662337863,0.13881150794920338,0.4994998423671859,0.035348748901014915,0.35329505900699587,1.0010282176144756,4.967048287420766
21,24,female,360,135,185,change,valid,clock,2,2,2,0.6254831195592487,1,j,change,4.11669468126729,0.13790323418265737,0.4998952860105419,0.03533944811715628,0.35329409685709834,1.001048743480169,8.370647433929662
21,24,female,361,75,125,change,valid,clock,1,0,2,0.6157381438270022,1,j,change,1.2690033441122068,0.05733469557693141,0.5004000940343758,0.03534329671674641,0.3533114155570729,1.0010311040641682,5.509787791406779
21,24,female,362,15,15,same,valid,clock,4,1,2,0.04742629690645117,1,j,change,1.0236666445371156,0.09317617822378689,0.499923509076325,0.03530096211761702,0.3533146227227917,1.0010516299298615,4.672676896886514
21,24,female,363,45,45,same,catch,anti,1,0,1,0.12084667915587488,0,j,change,0.693137978400955,0,0.5004263928003638,0.03526504185174417,0.3533633716551776,1.0010500263470021,5.968819605537647
21,24,female,364,165,165,same,valid,anti,3,1,2,0.3847284989142281,1,j,change,1.6909503700589994,0.09159232640654151,0.5004225442007737,0.03533559951665666,0.3532902482575082,1.0010570821132205,5.721918129374899
21,24,female,365,135,135,same,catch,clock,2,2,1,0.11101029917335836,0,j,change,0.43249956623003527,0,0.49962011111529137,0.03532822303350258,0.3533309792737782,1.0010500263470021,5.720592928133556
21,24,female,366,15,15,same,catch,anti,1,2,1,0.09792762515371578,0,j,change,0.6078132351422028,0,0.4999077939601193,0.03535484251733578,0.35330115262422623,1.0010602892798488,5.886294077293314
21,24,female,367,75,25,change,valid,anti,2,0,1,0.035092175571662665,0,j,change,0.5695222315980573,0.05541911922542442,0.5001268434389203,0.035346824600310356,0.3532957004399577,1.0010606099967845,4.308047069660461
21,24,female,368,75,25,change,valid,anti,2,2,2,0.019632349662970228,1,j,change,1.0751958696828297,0.137027973748246,0.49956526856658456,0.03531571508392517,0.3532851167901754,1.0010484227641427,4.826135008243909
21,24,female,369,75,75,same,catch,anti,2,2,1,0.06395795789467229,0,j,change,0.33723870010908286,0,0.4991050401586108,0.03533399593379727,0.3533075669565733,1.0010349526637583,5.567202167275354
21,24,female,370,105,105,same,valid,anti,4,1,2,0.5237194024275595,1,f,same,1.5898527814315457,0.08998373592142733,0.5000306284409817,0.03532854375043826,0.35328383392425167,1.0010638171634128,5.779679199953534
21,24,female,371,45,45,same,valid,clock,5,2,2,0.0316435093200198,1,f,same,1.0757824604543202,0.13617965323328654,0.500532550015123,0.03533303378389974,0.3532831924903803,1.0010484227641427,4.802678112402646
21,24,female,372,105,155,change,valid,clock,2,1,1,0.0398419893153914,0,j,change,0.8016300103563481,0.08838261859415047,0.4998414056117326,0.03536093613365665,0.35327421242436685,1.0010660621801435,4.555021669220878
21,24,female,373,135,85,change,catch,anti,3,1,1,0.1054352814626327,0,j,change,0.33743529942330497,0,0.5001810445546653,0.035348748901014915,0.3532844753572135,1.0010692693467718,5.6507671382169065
21,24,female,374,45,45,same,valid,clock,1,1,2,0.015133657064325234,1,f,same,0.9144254184629972,0.09115959323565162,0.5002625065862958,0.03535388036743825,0.3532957004399577,1.0010195582635788,4.614933465725699
21,24,female,375,75,75,same,valid,anti,2,2,1,0.5393716583330388,0,j,change,1.0067966274718856,0.13535269830362895,0.4991246038744066,0.03531314935116825,0.35329537972393155,1.001035273380694,5.273246746249242
21,24,female,376,105,55,change,catch,anti,5,0,2,0.06578411856025923,1,f,same,2.222762415984107,0,0.49966372858125396,0.03532854375043826,0.3532761367241619,1.001037197680489,7.4408086934736275
21,24,female,377,165,165,same,valid,clock,3,0,1,0.0006719014036207227,0,j,change,0.674780156747147,0.0572816727396088,0.4994876551345442,0.03531731866769405,0.3533239235066503,1.0010490641971046,4.378598641380449
21,24,female,378,45,95,change,valid,clock,4,0,1,0.011029445959138684,0,j,change,0.409678010094467,0.0591547855547484,0.49885937119597656,0.035341693132977525,0.3532931347072008,1.0010381598303866,4.117952852726376
21,24,female,379,75,75,same,valid,clock,5,1,1,0.5141126555763549,0,j,change,2.193649681833449,0.08959260022586071,0.5005829025303683,0.03531026290056616,0.3533171884573676,1.0010381598303866,6.345810494297439
21,24,female,380,135,185,change,valid,clock,4,2,2,0.2486904336956286,1,j,change,1.1304463702417706,0.13859810363727845,0.500041212090764,0.035336882383489865,0.3532957004399577,1.0010144267971555,5.002472084020155
21,24,female,381,45,355,change,valid,anti,1,2,2,0.19488347882634116,1,j,change,1.0022751639908165,0.13774180837509636,0.5003901518175553,0.035348107467143564,0.35332745139021426,1.0010028809974756,4.838728589356833
21,24,female,382,15,15,same,catch,anti,5,1,2,0.14463230957335327,1,j,change,0.9095559774050344,0,0.4995973402328673,0.035342013850822696,0.35328126819058525,1.0010667036131053,6.22766873945875
21,24,female,383,15,15,same,valid,anti,5,2,1,0.050324613367592974,0,j,change,0.5937360187581362,0.13691512915819867,0.4999459592427229,0.035338806684194424,0.35328094747455907,1.001053554230566,4.354938411175681
21,24,female,384,105,55,change,valid,anti,4,1,2,0.09464252439920529,1,j,change,0.8971291689558711,0.09224438002688495,0.4995986230997005,0.03533559951756615,0.35328415464118734,1.001053233512721,4.661179204603286
21,24,female,385,135,185,change,valid,clock,4,0,2,0.13341299935200368,1,j,change,1.9412405384573503,0.061054308022668674,0.49984525421041326,0.03534329671674641,0.3532860789400729,1.0010753629630926,5.720832182762024
21,24,female,386,135,135,same,valid,anti,3,0,2,0.07094220461294753,1,f,same,0.8844752931108815,0.059063783803952,0.5003205563025404,0.03531699795075838,0.3532851167901754,1.0010830601631824,4.63771942231233
21,24,female,387,105,155,change,valid,clock,5,0,1,0.021547348844251246,0,j,change,0.8106710130196007,0.05718191563360264,0.49981125824524497,0.03530192426751455,0.3532957004408672,1.001085946612875,4.531111280022742
21,24,female,388,135,135,same,valid,clock,1,1,2,0.0634826558025452,1,f,same,0.8985906747784611,0.09075059703637456,0.5005194006325837,0.03533046805023332,0.3532973040237266,1.0010349526637583,4.626729103785692
21,24,female,389,105,105,same,catch,anti,5,0,1,0.1447695763044976,0,j,change,0.6872438476120806,0,0.4998138239789114,0.03532277085014357,0.3533357900223564,1.0010464984634382,5.956789844314699
21,24,female,390,45,355,change,valid,anti,4,2,2,0.06943483630766423,1,j,change,1.1192921655019745,0.14012616085632698,0.500092847473752,0.03533014733420714,0.35330820838953514,1.0010493849140403,4.814879457039751
21,24,female,391,15,325,change,valid,anti,2,0,1,0.2791341419879245,0,j,change,1.0530670615335112,0.0589764331498783,0.4993750835865285,0.035345862450412824,0.35329377614016266,1.0010336697978346,4.990487864562965
21,24,female,392,165,165,same,valid,clock,2,1,2,0.08168076056063,1,f,same,1.232598795965714,0.08922972105801841,0.49953319690030185,0.03532886446737393,0.35327004310693155,1.0010667036140148,4.92022044780424
21,24,female,393,165,115,change,catch,anti,2,2,2,0.16893814241484506,1,j,change,0.9885529809498621,0,0.4998446127783609,0.035353880366528756,0.3533117362740086,1.0010448948805788,6.262850394979068
21,24,female,394,75,25,change,valid,anti,4,0,2,0.5497898183366488,1,f,same,1.3121929739318148,0.06080410858172383,0.5003632116186054,0.035304490001180966,0.35331109484013723,1.0010147475140911,5.474024676581394
21,24,female,395,15,325,change,valid,anti,2,2,2,0.22890542290224403,1,j,change,0.7787587431375869,0.13924785856679403,0.5000678315736877,0.03532341228401492,0.353299869757393,1.001022444714181,4.614473558033751
21,24,female,396,105,55,change,valid,anti,1,0,2,0.05971391432467499,1,j,change,1.016450840390462,0.058892519670986576,0.49921119737336994,0.035374406233131594,0.3532620251908156,1.0010718350804382,4.684084147072099
21,24,female,397,15,325,change,valid,anti,5,1,2,0.05458950352112879,1,j,change,1.0309113131834238,0.08776593073289311,0.4994969559184028,0.03536189828264469,0.3532722881236623,1.0010625342965795,4.68421403731918
21,24,female,398,75,75,same,valid,clock,1,1,2,0.019941199807362864,1,f,same,1.2141428350132628,0.08636325044742497,0.499989576707776,0.035336561667463684,0.35329826617362414,1.0010179546807194,4.837471380046736
21,24,female,399,15,65,change,valid,clock,3,2,2,0.010506357084523188,1,j,change,1.010584932666461,0.13840611943351921,0.500127164155856,0.035292944201501086,0.3533252063734835,1.0010365562475272,4.638259188452139
21,24,female,400,15,15,same,valid,clock,5,0,1,0.13943092677163804,0,j,change,0.6865312151921898,0.05708975547550779,0.49959509521613654,0.03533559951665666,0.3532886446746488,1.0010423291469124,4.413689534085279
21,24,female,401,105,105,same,valid,anti,1,0,1,0.04037341682214901,0,j,change,0.9777945405685387,0.05881184578084622,0.5016409467943959,0.03527081475203886,0.3533524672884596,1.0010519506467972,4.638975990188555
21,24,female,402,135,135,same,catch,anti,4,2,1,0.12728474540017487,0,j,change,0.6601872279725285,0,0.4996938759477416,0.035296472085065034,0.3533210370569577,1.0010628550135152,6.050996194056097
21,24,female,403,105,105,same,valid,clock,2,0,2,0.49659254583912116,1,f,same,2.242191431284482,0.06057098097880528,0.4994308882860423,0.035336882383489865,0.3533143020067655,1.0010519506467972,6.439453024148861
21,24,female,404,105,55,change,valid,anti,2,1,1,0.12763208154410677,0,j,change,0.7255329268573405,0.0850015632537971,0.4991637313069077,0.035336882383489865,0.3532790231738545,1.0010718350804382,4.495187486149007
21,24,female,405,135,135,same,valid,clock,2,1,2,0.13751656902422837,1,f,same,1.7820015092920585,0.08748871145113664,0.49980324032912904,0.03532148798421986,0.35328960682363686,1.0010359148136558,5.533056105851756
21,24,female,406,45,95,change,valid,clock,4,1,2,0.8152511676489667,1,j,change,1.3865700539799946,0.08614003650309987,0.49965859711392113,0.035322129417181714,0.3533027562070856,1.0010538749475018,5.8387959398551175
21,24,female,407,135,135,same,valid,anti,4,1,2,0.008905660232812806,1,j,change,0.9512693484348347,0.08482761016186023,0.4999616743589286,0.035355163233361964,0.35330500122381636,1.0010378391143604,4.625774651004576
21,24,female,408,135,135,same,valid,clock,3,0,2,0.17327936313358805,1,f,same,2.7898901769940494,0.058734228701764674,0.5001377478056384,0.03533720310042554,0.35327164669070044,1.0010509884968997,6.616651224159796
21,24,female,409,15,325,change,valid,anti,3,0,1,0.17502598606733955,0,j,change,0.7858363184031987,0.057004366037683024,0.49967495366490766,0.03532661945064319,0.3532844753572135,1.0010622135796439,4.554561120095968
21,24,female,410,105,105,same,catch,clock,1,2,1,0.1302879362110616,0,j,change,0.715839586506263,0,0.4997192125638321,0.03537344408323406,0.3532626666237775,1.0010647793133103,5.967993118702907
21,24,female,411,135,135,same,valid,clock,1,0,1,0.025333729739031696,0,j,change,0.5720985485331767,0.05865949910610893,0.500674627495755,0.03533175091706653,0.35327004310784105,1.00108402231308,4.225999729956129
21,24,female,412,135,135,same,catch,clock,4,1,1,0.06616545066935942,0,j,change,0.5273977018086953,0,0.5003693052340168,0.035334316650732944,0.3532931347072008,1.0010179546807194,5.744833334776558
21,24,female,413,45,95,change,valid,clock,2,0,2,0.07991136674354493,1,j,change,0.9676361610599997,0.0603529916457613,0.5000418535237259,0.03533335450083541,0.353309811973304,1.0010320662140657,4.696408967622119
21,24,female,414,45,45,same,catch,clock,4,1,1,0.03078783726959955,0,j,change,0.620519708520078,0,0.49977084794682014,0.03533303378389974,0.35327132597376476,1.0010676657630029,5.886158414145939
21,24,female,415,45,355,change,catch,anti,5,2,1,0.8017326396875433,0,j,change,1.2415583365964267,0,0.5000736044739824,0.03535516323427146,0.3532886446737393,1.0010715143635025,7.240095868623939
21,24,female,416,135,135,same,valid,anti,4,0,2,0.1005991949368763,1,f,same,1.5023195832482088,0.05858749990424805,0.5002875224863601,0.035320846551258,0.3533069255236114,1.0010320662140657,5.262470345735892
21,24,female,417,105,105,same,valid,clock,4,2,2,0.4835473956682108,1,f,same,1.2027615628776402,0.13759635810580756,0.4992204981563191,0.035320525834322325,0.3533072462405471,1.0010538749465923,5.34309723134902
21,24,female,418,15,15,same,valid,anti,1,0,2,0.06508174907321518,1,f,same,1.0239973034140348,0.05692503605220198,0.49997161657574907,0.03529615136812936,0.35330788767350896,1.0010660621801435,4.7551613733985505
21,24,female,419,105,55,change,valid,anti,1,2,2,0.14363295645944163,1,j,change,1.2181489068216251,0.13681331340737543,0.5002031740041275,0.035318280817591585,0.353303397640957,1.00102789689754,5.003564444966287
21,24,female,420,165,165,same,valid,clock,5,0,2,0.02329300962810521,1,f,same,0.8699311132686489,0.055331486519024864,0.49952036823378876,0.035343617433682084,0.35327421242436685,1.0010561199642325,4.554665032294906
21,24,female,421,75,25,change,valid,anti,1,2,2,0.09489653199398163,1,j,change,1.6081525533700187,0.13605215650283403,0.4997166468301657,0.03531443221709196,0.35333450715643266,1.0010503470630283,5.332263743270232
21,24,female,422,165,165,same,catch,clock,5,2,1,0.14548477445805474,0,j,change,0.31696491712500574,0,0.5001730266385493,0.035320525834322325,0.3532479136583788,1.0010590064130156,5.6508053034986006
21,24,female,423,135,135,same,valid,anti,4,2,2,0.11601091334614466,1,j,change,1.0300960514332473,0.1353084210272909,0.4999372998927356,0.03535580466632382,0.35329794545759796,1.0010577235470919,4.814641164561181
21,24,female,424,105,105,same,valid,anti,5,1,2,0.14957872263130412,1,f,same,1.0583928823989481,0.08346961080740284,0.4990572533761224,0.03535548395029764,0.3532751745733549,1.0010471398973095,4.943052908306527
21,24,female,425,15,15,same,valid,clock,2,2,2,0.024718915900848515,1,f,same,1.0164162029905128,0.13457794193619876,0.4995492327343527,0.035303527851283434,0.35334861868886946,1.0010314247811039,4.719235334508994
21,24,female,426,45,355,change,valid,anti,2,1,1,0.05040543396717112,0,j,change,1.440766358874498,0.08211223711592461,0.5006415936795747,0.03531731866678456,0.35330243549014995,1.0010522713637329,5.2157749620992035
21,24,female,427,15,65,change,catch,clock,4,1,1,0.03565599546072917,0,j,change,0.42403809857387387,0,0.49958675658217544,0.035346503884284175,0.35330660480758524,1.0010448948805788,5.650646869468801
21,24,female,428,45,45,same,valid,clock,3,2,2,0.6688161097263219,1,f,same,1.387019698738186,0.13379666626215925,0.4994822029511852,0.03533752381645172,0.35329954904045735,1.0010259725968353,5.732622368640477
21,24,female,429,105,105,same,valid,anti,2,1,1,0.06271935015138297,0,j,change,0.5599626300945602,0.08436193654447749,0.4997445491790131,0.03537504766609345,0.3532918518403676,1.001059647846887,4.307535526586435
21,24,female,430,165,165,same,catch,anti,5,2,1,0.09045685126147873,0,j,change,0.28107576065121975,0,0.4996643700142158,0.035355163233361964,0.3532851167901754,1.0010410462800792,5.556140970366869
21,24,female,431,105,155,change,catch,clock,5,2,1,0.04787433808087371,0,j,change,0.8094045029265544,0,0.500004008958058,0.035328223034412076,0.35333194142367574,1.0010532335136304,6.062808830100039
21,24,female,432,105,155,change,valid,clock,3,0,1,0.19293929442937952,0,j,change,3.9086849109544346,0.053775036562879935,0.4997458320467558,0.035313149350258755,0.35330083190638106,1.001022765430207,7.840447630656854
21,24,female,433,15,15,same,valid,clock,3,2,2,0.2213429240437108,1,f,same,1.7801189024939958,0.13302065170475363,0.4998814951941313,0.03532629873461701,0.3533380350399966,1.0010195582644883,5.674211205390748
21,24,female,434,105,105,same,valid,clock,5,0,2,2.0895248486458513,1,j,change,1.0587783838254836,0.05520604710241592,0.49942222893605503,0.035332071634002205,0.3533280928231761,1.0010455363135407,6.827259761573259
21,24,female,435,165,165,same,catch,anti,4,0,1,0.031044089882016124,0,j,change,0.4740493717636127,0,0.5004876496823272,0.03534842818407924,0.35328158890661143,1.0010769665468615,5.744769512160929
21,24,female,436,45,355,change,catch,anti,4,2,2,0.05719757140468573,1,j,change,2.695428216074106,0,0.500585147547099,0.03532469515084813,0.35329249327332946,1.0010442534467074,7.982786816108273
21,24,female,437,75,75,same,valid,anti,1,2,2,0.06284635394877114,1,f,same,1.3202763166464138,0.13224540692259956,0.4999405070593639,0.035329826617271465,0.35326010089102056,1.0010769665468615,5.073325450117409
21,24,female,438,165,165,same,valid,anti,3,2,2,0.02507266637712746,1,f,same,1.154403904789433,0.1314665725169293,0.4995226132505195,0.035337203101335035,0.3533117362730991,1.0010362355305915,4.849125582059969
21,24,female,439,105,105,same,valid,clock,4,0,1,0.028350390649393375,0,j,change,0.3917489866162214,0.05367717646604303,0.5002317177868463,0.03536767118384887,0.35329537972393155,1.0010516299298615,4.107727122719552
21,24,female,440,135,135,same,catch,anti,4,1,1,0.06362729901684361,0,j,change,0.5919323082589472,0,0.500422223483838,0.03531475293493713,0.35331782989032945,1.0010269347476424,5.85080998596186
21,24,female,441,105,105,same,catch,anti,2,0,1,0.5055033375374478,0,j,change,0.505294550992403,0,0.5005001576319046,0.03533239235093788,0.35331526415666303,1.0010602892807583,6.1928305714818634
21,24,female,442,15,15,same,valid,clock,3,0,1,0.05741020655113971,0,j,change,0.8536627606590628,0.05508492385702976,0.49981414469493757,0.03533271306696406,0.3532751745742644,1.0010471398964,4.602456304760381
21,24,female,443,165,165,same,valid,clock,1,2,2,0.0008877437167029711,1,f,same,1.6812608783084215,0.13067986965952916,0.4991201138409451,0.035348107467143564,0.3532863996570086,1.0010554785294516,5.379004027239716
21,24,female,444,75,125,change,valid,clock,3,2,2,0.30229886495180835,1,j,change,1.1707928468640603,0.12988068157166877,0.49928977295530785,0.035304169285154785,0.35332616852338106,1.0010535542296566,5.084131677281221
21,24,female,445,165,165,same,valid,clock,3,1,2,0.009052227745996788,1,f,same,1.2488062124102726,0.08651624298419633,0.5005309464313541,0.03530641430097603,0.3532947382900602,1.001053554230566,4.920753799609884
21,24,female,446,15,65,change,valid,clock,1,1,2,0.07193450196064077,1,f,same,3.1036710191128805,0.08526912486177404,0.5001056761393556,0.035346824600310356,0.353259138741123,1.0010609307137202,6.804664952115672
21,24,female,447,75,25,change,catch,anti,2,0,2,0.05805773348947696,1,j,change,0.9204462323323241,0,0.5001409549722666,0.035342334566848876,0.35331109484013723,1.0010307833472325,6.1216612994730895
21,24,female,448,15,15,same,valid,anti,2,2,2,0.008472692739815102,1,f,same,1.2300176682801975,0.1290932812283509,0.5004042633509016,0.03534105170001567,0.35329121040649625,1.0010218032803095,4.932897094531654
21,24,female,449,75,75,same,valid,clock,3,1,1,0.03927175509306835,0,j,change,0.8000001282862286,0.08404471219128758,0.4990726477753924,0.03537825483272172,0.35328832395680365,1.0010330283639632,4.472090113684317
21,24,female,450,45,45,same,valid,clock,2,0,2,0.026297162587979983,1,f,same,1.5456038244819865,0.0565868298821621,0.49969740383130556,0.03534233456775837,0.35329666258985526,1.0010359148136558,5.214502037672901
21,24,female,451,135,135,same,valid,clock,5,1,1,0.07773690778503806,0,j,change,1.205271491464373,0.08613570641372943,0.5104000395122057,0.03533303378389974,0.3533126984239061,1.0010275761806042,4.931087931849106
21,24,female,452,135,85,change,valid,anti,3,2,1,0.5333107548804037,0,j,change,7.1425511791630925,0.12833754627810035,0.4990206916772877,0.035360615416720975,0.3532892861067012,1.0010410462800792,11.279141518471079
21,24,female,453,45,95,change,valid,clock,5,0,2,0.01150057873383048,1,j,change,2.4555392096972355,0.055081269407350725,0.49952453755122406,0.03533271306696406,0.35329409685709834,1.001114169678658,6.097268873132634
21,24,female,454,45,355,change,catch,anti,3,2,2,0.0004964693907822948,1,j,change,1.2744497544435944,0,0.49992703695988894,0.0353349580836948,0.3533075669565733,1.0010753629630926,6.439292986535293
21,24,female,455,45,45,same,valid,clock,4,1,2,0.9778670225341557,1,f,same,1.2763714886732487,0.08837194856542542,0.5003683430850288,0.03532148798421986,0.3532831924903803,1.0010718350795287,5.862740645738086
21,24,female,456,75,75,same,valid,anti,3,0,1,0.2675286889070776,0,j,change,0.9026301011190299,0.05360515168895458,0.49979746742883435,0.03541128864890197,0.3532203320255576,1.0010448948805788,4.790269264086419
21,24,female,457,75,75,same,valid,anti,5,1,2,0.4325694824628954,1,j,change,1.0640888102916506,0.08713491921561543,0.4998725151272083,0.03532020511738665,0.35330788767350896,1.0010432912977194,5.109150142542603
21,24,female,458,15,15,same,valid,clock,2,1,2,0.12898646800113056,1,j,change,1.1214021604118898,0.08594113693649963,0.4996672564648179,0.035318922251462936,0.3533014733402524,1.0010503470639378,4.8377552142910645
21,24,female,459,45,45,same,valid,clock,5,0,1,0.3152692881403709,0,j,change,0.7782324470972526,0.05496629960799901,0.4998516685445793,0.03530416928424529,0.3532976247406623,1.001088512345632,4.672662143920206
21,24,female,460,165,215,change,valid,clock,2,0,2,0.07676160841947421,1,j,change,1.079497962968162,0.05630670126218165,0.5004020183341709,0.03531860153452726,0.35331237770697044,1.0010506677808735,4.743797740678929
21,24,female,461,15,15,same,valid,anti,1,2,3,0.17557729800682864,1,f,same,1.0799989223914963,0.1311823861789339,0.5000838674068291,0.03529037846783467,0.35333065855684254,1.001035273380694,4.849395946205732
21,24,female,462,105,105,same,catch,clock,5,0,1,0.11125051595263358,0,j,change,0.9485105437206585,0,0.4999376206087618,0.03530288641741208,0.3533175091733938,1.001053554230566,6.157208571987212
21,24,female,463,165,165,same,valid,anti,3,0,2,0.23011709044567397,1,f,same,2.1138380579714067,0.054855085824830674,0.5000174790584424,0.03534714531724603,0.35329121040649625,1.0010772872628877,5.933023136179145
21,24,female,464,15,325,change,valid,anti,5,0,2,0.14350434907828458,1,j,change,1.090075519151469,0.05338302085695845,0.5003022754526683,0.0353137907850396,0.3533014733402524,1.0010362355305915,4.814694724243054
21,24,female,465,105,105,same,valid,clock,3,0,2,1.8853287201454805,1,j,change,1.2500634217194602,0.051908134244364385,0.49949118301810813,0.03530224498535972,0.3533017940571881,1.0010339905138608,6.710165467346087
21,24,female,466,165,215,change,valid,clock,2,1,1,0.06705415653595992,0,j,change,0.8987099813757595,0.08477602245934317,0.49985230997754115,0.03534778675020789,0.35331333985686797,1.0010586856969894,4.5317094165939125
21,24,female,467,15,15,same,catch,anti,1,1,1,0.0340158504586725,0,j,change,2.249314548316761,0,0.4999215847765299,0.03536093613365665,0.3532751745742644,1.0010849844629774,7.416741794544578
21,24,female,468,15,65,change,catch,clock,1,1,1,0.027013643607460835,0,j,change,1.2143782410421409,0,0.500386944650927,0.035313790784130106,0.35333867647295847,1.001027255464578,6.357773225739038
21,24,female,469,165,165,same,catch,anti,1,2,2,0.03392701194388792,1,f,same,1.3754036620075567,0,0.49960407528215,0.0353096214685138,0.35334156292265106,1.0010381598303866,6.545431920352712
21,24,female,470,165,215,change,valid,clock,4,1,1,0.05141793646362203,0,j,change,1.617191311015631,0.08675177969334744,0.4994549420352996,0.03536157756661851,0.3532902482565987,1.0010529127976042,5.2963643238636
21,24,female,471,15,325,change,valid,anti,2,1,1,0.02720414930354309,0,j,change,0.9672134565016677,0.08889168280851135,0.4997702065129488,0.03532245013411739,0.353334186439497,1.001026293313771,4.5900795281104365
21,24,female,472,105,55,change,valid,anti,4,2,2,0.015250077212840552,1,j,change,1.5100616834351968,0.13042312584359944,0.4997881666449757,0.035283001984680595,0.35331782989032945,1.0010554785303611,5.120099088620009
21,24,female,473,135,85,change,catch,anti,4,2,1,0.05954650022795249,0,j,change,0.6961293026943167,0,0.500106317573227,0.03531699795075838,0.3533438079393818,1.0010272554636686,5.909532565088739
21,24,female,474,135,185,change,valid,clock,4,1,2,0.47925492388276325,1,j,change,1.0197529391280113,0.0910595883918356,0.5005444165317385,0.03535644610019517,0.3532918518412771,1.0010307833472325,5.097947188870421
21,24,female,475,15,325,change,valid,anti,3,1,1,0.36215325317334646,0,j,change,0.6312595473336842,0.08982941613840754,0.49951876465092937,0.03532180870024604,0.3533312999898044,1.0010548370973993,4.543527504820304
21,24,female,476,15,15,same,valid,anti,3,1,2,0.27017171490660985,1,f,same,1.1786074290166653,0.09191192001016431,0.49907585494202067,0.03534265528378455,0.35330371835698315,1.0010333490799894,5.0022241700417
21,24,female,477,135,135,same,valid,clock,4,0,1,0.40747693165212695,0,j,change,0.5335365394093969,0.05040429324862647,0.499816710428604,0.03533367521777109,0.3532960211568934,1.0010727972294262,4.5077573342287
21,24,female,478,165,115,change,valid,anti,3,1,2,0.3949773205213205,1,j,change,0.9380474833842527,0.0907337587695368,0.5003651359184005,0.03533559951756615,0.35329249327423895,1.0010413669970148,4.896792737178657
21,24,female,479,165,215,change,valid,clock,3,1,1,0.37176064145933196,0,j,change,0.8077319655403699,0.08952782360007015,0.5005171556149435,0.03528781273507775,0.3533255270904192,1.0010593271299513,4.743731993764413
21,24,female,480,45,45,same,valid,clock,4,2,2,0.2325102781669557,1,f,same,0.7985132858475481,0.12965279749259512,0.5005809782305732,0.035317960101565404,0.3532973040237266,1.001040725564053,4.590701076998812
