subject,age,gender,ntrial,memory_ori,test_ori,type,trial_type,which_change,trial,quest,pas,pas_rt,vis,test_key,test,test_rt,contrast,fix_dur,target_dur,mask_dur,retention_dur,trial_dur
22,24,male,1,75,75,same,catch,clock,5,2,1,1.5301597136894998,0,f,same,1.5980310562772502,0,0.508311853334817,0.03536478473324678,0.3533062840888306,1.0010545163804636,8.426383499512667
22,24,male,2,75,125,change,valid,clock,4,0,2,1.5480284424356796,1,j,change,0.8390695111665991,0.2,0.5002012497043324,0.03536157756570901,0.35329409685800783,1.0010506677790545,6.16875244746916
22,24,male,3,105,105,same,valid,anti,3,0,1,1.6508505245492415,0,j,change,1.3250027180729376,0.0723357464867447,0.500320877019476,0.03533816525123257,0.3532803060406877,1.0010557992463873,6.734771170265958
22,24,male,4,135,185,change,valid,clock,4,1,1,0.559994060327881,0,j,change,0.38645074738269614,0.2,0.49960471671693085,0.03533495808551379,0.35330917053943267,1.0010397634141555,4.719679847799853
22,24,male,5,165,115,change,catch,anti,1,0,1,0.5143086134557961,0,f,same,0.9594049679653835,0,0.500178799538844,0.03534746603327221,0.3533059633737139,1.0010086538986798,6.757761423366901
22,24,male,6,165,115,change,catch,anti,2,1,1,0.5697595619258209,0,j,change,0.4088095093775337,0,0.5004305621168896,0.03532982661636197,0.3532639494915202,1.0010593271290418,6.287037562655314
22,24,male,7,15,65,change,valid,clock,4,2,1,0.6441462634757045,0,f,same,1.0817044935938611,0.2,0.5003179905688739,0.03532854375043826,0.35329794545759796,1.0010615721457725,5.474098120695999
22,24,male,8,45,355,change,valid,anti,1,0,2,1.2335070655499294,1,j,change,1.130276069694446,0.15406686854268764,0.4994648842512106,0.035346503884284175,0.3532668359403033,1.0010702314975788,6.155988245092885
22,24,male,9,15,65,change,valid,clock,3,2,2,1.4608425803962746,1,f,same,1.2846504685512627,0.3670372117912738,0.4997291547788336,0.03532533658471948,0.35331750917430327,1.0010137853641936,6.580964119180862
22,24,male,10,135,85,change,catch,anti,5,1,1,1.1484283119698375,0,j,change,1.7254100923764781,0,0.49923076109007525,0.03532758160145022,0.35332777210533095,1.0010618928645272,8.193266104706709
22,24,male,11,105,55,change,valid,anti,5,2,1,0.5445454595010233,0,j,change,2.023575240287755,0.3227502669243441,0.5001813652706915,0.03523457377013983,0.3533707481383317,1.0010676657639124,6.369443142868477
22,24,male,12,165,165,same,valid,clock,4,2,2,1.2425685940779658,1,j,change,1.0517601411411306,0.410545444309991,0.49916886277424055,0.035336882383489865,0.3533072462396376,1.00105708211413,6.050145653471191
22,24,male,13,135,185,change,catch,clock,1,1,1,1.3345995227100502,0,j,change,0.3358092659545946,0,0.4994183803355554,0.03532309156798874,0.3532931347072008,1.0010246897309116,6.969084838216077
22,24,male,14,15,15,same,valid,clock,3,0,1,1.231385204122489,0,j,change,1.3403368230501655,0.09412333650666384,0.5000540407581866,0.03530256570047641,0.35329249327332946,1.0011013410130545,6.356822300840577
22,24,male,15,135,135,same,valid,anti,1,1,2,0.9224407692454406,1,j,change,1.452853207663793,0.33948538693435915,0.500410356968132,0.03531411150106578,0.3533027562061761,1.0011532971129782,6.168615501454042
22,24,male,16,135,135,same,valid,anti,4,2,2,1.403770088487363,1,f,same,1.4398792565916665,0.38602135432929263,0.50010535542242,0.03532758159963123,0.3532652323574439,1.0010833808810276,6.663296896713291
22,24,male,17,105,105,same,valid,clock,2,2,1,1.6303974609509169,0,j,change,2.6049553289813048,0.3675055704312141,0.5003863032179652,0.03530096211761702,0.353319754191034,1.001037197680489,8.017862635129859
22,24,male,18,45,45,same,valid,anti,1,2,1,1.5592464697929245,0,f,same,2.2274134489962307,0.41814697939732703,0.500067510858571,0.03531475293311814,0.35331782988941995,1.0010471398964,7.546542882864742
22,24,male,19,105,105,same,valid,clock,2,1,2,1.533799847788032,1,f,same,1.1772395724601665,0.277883819201003,0.5001775166711013,0.03532758160145022,0.35329088969047007,1.0010756836800283,6.439610816745699
22,24,male,20,165,115,change,valid,anti,5,1,1,1.295461827181498,0,j,change,1.3686484069839935,0.2361351957338891,0.5003234427513235,0.03532918518430961,0.3532735709904955,1.0010439327306813,6.4398086989258445
22,24,male,21,75,25,change,valid,anti,5,0,2,0.7289658779918682,1,f,same,0.9809099822105054,0.13569395274885374,0.5002089469053317,0.035386593466682825,0.3532831924912898,1.0010256518798997,5.46276271104216
22,24,male,22,15,15,same,valid,clock,5,2,3,1.6030159553320118,1,f,same,1.4111683804167114,0.46309414165786705,0.49968521659866383,0.03528171911784739,0.35334605295611254,1.0010503470639378,6.7807481485833705
22,24,male,23,135,185,change,valid,clock,1,0,1,0.9660268048573926,0,j,change,0.3734633262101852,0.09870465232816662,0.5001422378390998,0.03530898003373295,0.3533027562079951,1.0010516299298615,5.12072095822441
22,24,male,24,165,165,same,valid,clock,1,0,2,0.721027819925439,1,j,change,1.2365096149260353,0.12770031176970636,0.5001258812899323,0.0353237330000411,0.3532873618078156,1.0010208411295025,5.697759184764436
22,24,male,25,165,115,change,valid,anti,2,0,1,0.8140061455724208,0,j,change,0.3777214813126193,0.10084874728114618,0.49953447976622556,0.035327902318385895,0.35328094747455907,1.0010185961145908,4.955150340745604
22,24,male,26,15,65,change,valid,clock,2,2,2,1.8166206277910533,1,j,change,2.5039189972339955,0.4502907481619223,0.5002044568718702,0.03533110948410467,0.35329794545759796,1.0010365562466177,8.076848522634464
22,24,male,27,45,45,same,catch,anti,4,2,1,0.45369476818086696,0,j,change,1.7722058603267214,0,0.5000710387394065,0.03534714531633654,0.3532540072756092,1.0010557992463873,7.55877405415049
22,24,male,28,165,215,change,valid,clock,4,2,2,0.5405409912782488,1,j,change,1.1344710436151217,0.4395448344411991,0.49988502307678573,0.035295189218231826,0.35332231992288143,1.001046177747412,5.4617755451617995
22,24,male,29,105,55,change,valid,anti,3,2,3,1.1036440789121116,1,j,change,1.0367897288560926,0.43014920235221754,0.49976218859592336,0.035330147333297646,0.3533033976400475,1.001034311231706,5.886204276628632
22,24,male,30,135,135,same,valid,anti,5,2,2,2.64952371972322,1,j,change,1.4418048394218204,0.421698976392498,0.4996508999138314,0.03538915920034924,0.3533370728891896,1.001044253445798,7.86476308499914
22,24,male,31,75,75,same,catch,anti,1,2,1,0.5148217601126817,0,j,change,1.0324869941377983,0,0.4996239597167005,0.035317639383720234,0.35328543750802055,1.0010695900618884,6.839688494323127
22,24,male,32,165,165,same,catch,anti,1,2,1,0.32924579949394683,0,j,change,0.5681511678740208,0,0.5002544886701799,0.03531796010065591,0.35330788767350896,1.0009948630795407,6.262919990493174
22,24,male,33,165,165,same,catch,anti,4,0,1,0.4446816678682808,0,j,change,0.3513582510950073,0,0.4999097182590049,0.035355483951207134,0.35328832395680365,1.0010795322796184,6.098354178311638
22,24,male,34,45,355,change,valid,anti,2,2,3,1.4765711668660515,1,j,change,1.4299466616121208,0.4139151855516373,0.49928111360532057,0.035351635349798016,0.3533139812898298,1.0010535542314756,6.733317361644367
22,24,male,35,75,75,same,valid,anti,4,1,2,1.3337903545743757,1,f,same,1.3218802206665714,0.29035529960085005,0.4994174181847484,0.03535676681713085,0.3532694016739697,1.0010618928645272,6.451034744197386
22,24,male,36,105,155,change,valid,clock,3,2,2,1.5204195487076504,1,f,same,1.0194209973833495,0.4066242069804045,0.4992708506724739,0.035360615416720975,0.3533043597908545,1.0010574028292467,6.309179199472055
22,24,male,37,135,185,change,valid,clock,1,2,2,1.525789949188038,1,j,change,1.084993122231026,0.40022817240304775,0.5002657137520146,0.03532661945246218,0.35326266662559647,1.0010820980114659,6.392742887546774
22,24,male,38,45,355,change,valid,anti,4,1,3,1.1806212089286419,1,j,change,2.092812194418002,0.263665126452847,0.49983851916113053,0.03530994218453998,0.35327004310784105,1.0010564406784397,7.0994763659073215
22,24,male,39,105,55,change,valid,anti,4,0,1,1.1060590753677388,0,j,change,2.1222953563119518,0.12236277175590347,0.49958098368188075,0.035337523817361216,0.35329794545759796,1.0010355940958107,6.968778874521377
22,24,male,40,135,135,same,catch,clock,1,2,1,0.7291050690237171,0,j,change,0.39371562117776193,0,0.5005280599816615,0.03529358563537244,0.35331782988941995,1.0010663828961697,6.357795675905436
22,24,male,41,105,55,change,valid,anti,3,0,1,0.7363853372189624,0,j,change,1.2006701695336233,0.14271093899091902,0.5001634051386645,0.03535420108346443,0.3533139812898298,1.001036235529682,5.626952643298864
22,24,male,42,105,105,same,valid,clock,5,2,1,0.768648471126653,0,j,change,1.8864076109912276,0.3940687208842632,0.5001483314554207,0.035320525832503336,0.35330532194166153,1.0010436120137456,6.380545070793232
22,24,male,43,75,75,same,valid,clock,4,2,2,0.9943877791556588,1,f,same,1.5567663678539247,0.4135202120379335,0.49979875029566756,0.03532245013411739,0.3533274513883953,1.0010612514306558,6.274173617397537
22,24,male,44,45,45,same,valid,clock,1,1,3,1.1121610305526701,1,f,same,1.2811180952503491,0.24183425103390752,0.5005867511317774,0.035289416317027644,0.35333065855775203,1.0010522713619139,6.110845130093367
22,24,male,45,45,45,same,catch,clock,4,2,1,0.9463501962945884,0,f,same,2.560793927677878,0,0.49952742400091665,0.035337523817361216,0.35328704109087994,1.0010416877139505,8.794698361170958
22,24,male,46,75,125,change,valid,clock,4,2,2,0.921589907944508,1,j,change,0.9517254075253732,0.40807565966639847,0.5001848931533459,0.03535676681713085,0.35329698330679093,1.0010458570304763,5.673935389062535
22,24,male,47,15,15,same,valid,clock,1,0,1,0.6063382592219568,0,j,change,0.6940590766516834,0.16232866778077448,0.5004039426348754,0.035309300752487616,0.3533146227237012,1.001053233512721,5.109695360864862
22,24,male,48,135,85,change,catch,anti,1,2,1,0.2644921435658034,0,j,change,1.757363093272943,0,0.49892030736191373,0.035308659318616264,0.3533014733402524,1.0010519506467972,7.345098182595393
22,24,male,49,15,65,change,valid,clock,4,1,1,0.6158856734891742,0,j,change,1.0691997509948123,0.22358007674771352,0.5005203627824812,0.035332392350028385,0.3532822303404828,1.0010586856969894,5.497889844731617
22,24,male,50,105,105,same,valid,anti,5,1,2,0.629234863055899,1,f,same,1.3509419608672033,0.2496219203401117,0.4995813044006354,0.03529999996680999,0.35326876024191733,1.0010942852459266,5.756147577129013
22,24,male,51,15,15,same,valid,anti,3,2,3,0.5881683775296551,1,f,same,1.2630011318087782,0.40318306363133916,0.5029542815191235,0.03535933255079726,0.353247272223598,1.0010593271308608,5.535538773521694
22,24,male,52,105,105,same,valid,anti,2,0,3,1.367586834838221,1,f,same,1.3519464454475383,0.18146839453954297,0.49973139979556436,0.03528652986824454,0.35335310872324044,1.001048102047207,6.451183236011275
22,24,male,53,15,65,change,catch,clock,4,2,1,0.6253952431943617,0,j,change,0.6434762863700598,0,0.4995873980151373,0.03534457958448911,0.3532992283235217,1.0010548370973993,6.486314218300322
22,24,male,54,15,15,same,valid,clock,4,2,3,0.3720877724535967,1,f,same,1.0829046153376112,0.39831661316221656,0.5003600044510677,0.035351635349798016,0.3532703638247767,1.0010295004813088,5.15600171519327
22,24,male,55,165,165,same,valid,anti,1,2,3,1.117995187327324,1,j,change,1.4264912603102857,0.3938892894308613,0.49977116866102733,0.03536253971651604,0.35329826617271465,1.0010285383305018,6.263184261022616
22,24,male,56,75,75,same,valid,clock,2,1,1,0.524732867073908,0,j,change,0.2874214604998997,0.23534050482048596,0.4996868201815232,0.03529871710088628,0.3533393179059203,1.0010468191794644,4.590738600847544
22,24,male,57,45,45,same,valid,anti,4,1,3,0.598635286465651,1,f,same,1.4113531132115895,0.2576564306837819,0.49955276061700715,0.03531218720127072,0.35330532193984254,1.0010692693467718,5.7086657962427125
22,24,male,58,105,105,same,catch,clock,3,2,1,0.274848084536643,0,j,change,0.26820155246241484,0,0.5000813016722532,0.03528813345110393,0.35334893940671463,1.0010378391125414,5.803418005738422
22,24,male,59,135,135,same,valid,anti,2,0,1,0.17228899008478038,0,j,change,0.3828426849504467,0.16204291818191865,0.5005982969305478,0.035290057750898995,0.3533014733402524,1.0010952473967336,4.34384450116886
22,24,male,60,135,185,change,catch,clock,2,1,1,0.17728607637400273,0,j,change,0.35673217945804936,0,0.4994424340839032,0.035308659318616264,0.35328158890661143,1.0010676657639124,5.8031213428275805
22,24,male,61,75,75,same,valid,clock,5,1,2,0.8166889404383255,1,f,same,1.4991954822562548,0.24591856729383027,0.5002714866532187,0.035308659318616264,0.3533239235057408,1.0010121817813342,6.027924478923524
22,24,male,62,15,15,same,catch,anti,2,1,1,0.19066156470580609,0,j,change,0.2799923797720112,0,0.49935904775338713,0.035323412284924416,0.3533005111894454,1.0010388012633484,5.732232056463545
22,24,male,63,105,55,change,valid,anti,5,0,3,0.641257568511719,1,j,change,0.8901359421724919,0.1777355021375059,0.49983948131011857,0.03536702974997752,0.3532822303404828,1.001038159829477,5.36743545657373
22,24,male,64,15,325,change,valid,anti,3,1,3,0.8534283167791727,1,j,change,0.7154005253978539,0.23549097419161805,0.5000479471418657,0.035297434233143576,0.35336818240648427,1.001003522431347,5.332382087717633
22,24,male,65,75,125,change,valid,clock,5,1,2,0.38412458944185346,1,j,change,1.2723330244825775,0.2260410622009622,0.4996618042823684,0.035331750917976024,0.3532719674076361,1.0010647793133103,5.40306675685315
22,24,male,66,135,85,change,valid,anti,3,2,2,0.8086014284072007,1,j,change,2.7623996277125116,0.3894409207091082,0.4998009953105793,0.0353320716349117,0.3532902482565987,1.0010567613971944,7.3816387146071065
22,24,male,67,105,155,change,valid,clock,2,1,1,0.5614639047835226,0,f,same,2.3825768108381453,0.21734167806746413,0.499426718970426,0.035360615416720975,0.35329698330679093,1.0010477813302714,6.722189776386585
22,24,male,68,105,105,same,valid,anti,3,1,2,1.1076838259687065,1,f,same,0.9791893373258063,0.23171340324996645,0.49950529455054493,0.035346503884284175,0.3533146227237012,1.0010320662149752,5.873675480281236
22,24,male,69,105,105,same,catch,clock,2,2,1,0.23478448000787466,0,j,change,0.3618867376280832,0,0.5002743731038208,0.035342013850822696,0.35330083190638106,1.001059006413925,5.956743981832915
22,24,male,70,165,215,change,valid,clock,4,1,1,0.1742658875809866,0,j,change,0.28588394482903823,0.22381921804372487,0.5000739251900086,0.035323412284924416,0.35328255105559947,1.0010711936465668,4.27238818774822
22,24,male,71,15,325,change,valid,anti,5,0,3,0.6402178050975635,1,j,change,0.9014415251749597,0.16182915385838625,0.49973139979556436,0.0353320716349117,0.3532819096235471,1.00108787091267,5.3440734928644815
22,24,male,72,105,155,change,valid,clock,2,2,2,1.2026640650146874,1,j,change,2.658318411991786,0.38533132395974135,0.5001547457886772,0.03532694016757887,0.35331205699003476,1.0010205204143858,7.605891821629484
22,24,male,73,15,325,change,valid,anti,5,2,3,0.5964528095901187,1,j,change,0.8480992887471075,0.38151856557237473,0.499812220396052,0.035284926285385154,0.353349580838767,1.001044253447617,5.1555867078350275
22,24,male,74,15,325,change,valid,anti,2,0,1,0.29432135873503285,0,j,change,0.2583738318298856,0.1478659090142376,0.4997839973275404,0.035342013850822696,0.3532918518412771,1.0010535542296566,4.343266569745538
22,24,male,75,105,105,same,valid,anti,1,2,2,0.2824782546085771,1,f,same,1.7131227956742805,0.37761118847197706,0.49992992340958153,0.035351635349798016,0.3532915311243414,1.001076966545952,5.673845909115698
22,24,male,76,15,15,same,catch,clock,4,0,1,0.10548467182888999,0,j,change,0.26740713729304844,0,0.4997884873610019,0.035302565702295396,0.35329409685618884,1.001075042246157,5.6621727848196315
22,24,male,77,165,215,change,valid,clock,3,1,3,0.6770110618381295,1,j,change,0.7507062982658681,0.23601058366348487,0.5003292156525276,0.035330788767169,0.3532469515084813,1.0011151318285556,5.239068292443335
22,24,male,78,135,135,same,valid,clock,5,1,1,0.3169190546414029,0,j,change,0.9546933195051679,0.22909416661350906,0.499019408811364,0.03530769716780924,0.3533146227237012,1.0010484227641427,5.072045469923978
22,24,male,79,15,15,same,valid,clock,4,0,1,0.3421414957010711,0,f,same,1.3791557262193237,0.1599040909553066,0.5006005419472785,0.03529999996862898,0.3533325828557281,1.0010455363135407,5.462775218993556
22,24,male,80,105,105,same,valid,anti,1,0,1,0.2514806686431257,0,f,same,1.1967256753250695,0.1716130940604974,0.5000431363914686,0.03535901183386159,0.3533033976400475,1.0010368769653724,5.249807169107953
22,24,male,81,135,85,change,valid,anti,4,0,1,0.4770461482403334,0,f,same,0.3836120842188393,0.18301944620768115,0.5005287014137139,0.03529871710270527,0.3532844753590325,1.0010147475131816,4.590740525149158
22,24,male,82,45,95,change,valid,clock,1,2,2,1.0971838832174399,1,j,change,1.4898334422159678,0.37399129065252645,0.5002804667201417,0.03529615136903885,0.35332937569000933,1.0010237275801046,6.345554562403777
22,24,male,83,165,165,same,valid,anti,2,2,1,0.5329618151536124,0,f,same,1.2997571854175476,0.370286349943153,0.5000861124226503,0.03535227678366937,0.3533043597908545,1.001039121980284,5.5796713103227376
22,24,male,84,45,355,change,valid,anti,3,1,2,0.7567931797675556,1,j,change,0.8891744336233387,0.24053269153023846,0.5003369128517079,0.0352435538352438,0.35333450715734216,1.0010930023781839,5.403599146507986
22,24,male,85,15,15,same,valid,clock,5,1,3,0.3606721836349607,1,f,same,1.3754171321070316,0.23413293988848494,0.5000553236241103,0.03532629873552651,0.35328287177253515,1.0010801737134898,5.438772784113098
22,24,male,86,75,25,change,valid,anti,3,0,3,1.004176693071713,1,f,same,0.7717465940695547,0.19417790523855913,0.5000216483749682,0.03531699795166787,0.3533126984239061,1.0010618928627082,5.485825766825656
22,24,male,87,105,105,same,valid,clock,4,2,3,0.6215716591668752,1,f,same,1.0092286219096422,0.3825691523498217,0.49961016889938037,0.03534169313388702,0.3532918518412771,1.0010654207453626,5.379380548600238
22,24,male,88,165,215,change,valid,clock,1,0,2,0.6957925502010767,1,f,same,0.8961885069893469,0.1823594096670138,0.4996730293660221,0.03531860153452726,0.3532905689735344,1.0010724765143095,5.332438213134083
22,24,male,89,165,165,same,valid,clock,5,0,1,0.5943966950799222,0,f,same,0.9662487407858862,0.17183532410643262,0.4998516685445793,0.035301924268424045,0.3533482979728433,1.0010291797625541,5.402686066176102
22,24,male,90,135,135,same,catch,anti,3,0,1,0.3769264247112005,0,f,same,0.27658412381970265,0,0.5001486521723564,0.03530096211943601,0.353318792040227,1.0010320662149752,5.945389970613178
22,24,male,91,165,165,same,valid,clock,1,1,3,0.43355728977803665,1,f,same,1.3523418890927132,0.22798722333647553,0.49982825622828386,0.035348748901014915,0.3533104534071754,1.0010291797625541,5.485791450142642
22,24,male,92,165,215,change,valid,clock,3,0,1,0.3119117054193339,0,f,same,0.4451358026581147,0.18081675716728055,0.49918008785607526,0.035335278800630476,0.3533239235057408,1.0010295004813088,4.543089405862702
22,24,male,93,45,45,same,valid,anti,5,1,3,0.8968216016783117,1,f,same,0.9872210446574172,0.2224026045340967,0.4996037545661238,0.035287812734168256,0.3533338657234708,1.001038159831296,5.779633337469932
22,24,male,94,45,45,same,valid,clock,4,2,3,0.7567604666674015,1,f,same,0.777329950413332,0.3792611123288242,0.5000922060407902,0.03531924296839861,0.3533059633737139,1.001049064196195,5.238672528083043
22,24,male,95,45,45,same,valid,anti,5,2,3,1.1693800899738562,1,f,same,1.6090665958527097,0.37615365646457755,0.4997381348457566,0.03530032068556466,0.353350542989574,1.0010545163804636,6.545647121231013
22,24,male,96,45,355,change,valid,anti,2,0,3,0.43121028525456495,1,j,change,0.9397129650023999,0.18978933989924585,0.4998388398780662,0.03535484251733578,0.3533046805059712,1.0010468191812834,5.167781317421031
22,24,male,97,165,215,change,catch,clock,3,2,1,0.491555049251474,0,f,same,0.7655837027195957,0,0.49967495366399817,0.03531058361841133,0.35331943347227934,1.0010397634123365,6.521598182433081
22,24,male,98,135,135,same,valid,clock,5,2,1,0.6568504918359395,0,f,same,1.0629772063457494,0.3732346379156596,0.5004219027669023,0.03535131463468133,0.3533101326902397,1.0010096160476678,5.5329230084371375
22,24,male,99,75,75,same,valid,clock,4,0,1,0.24326294564707496,0,f,same,0.40206708301957406,0.1804907785169355,0.5004459565170691,0.03529999996680999,0.35332231992288143,1.0010291797643731,4.437789466832328
22,24,male,100,135,85,change,valid,anti,1,1,1,0.1970428641034232,0,f,same,0.3339196033884946,0.21694916960379743,0.49967399151319114,0.03534554173347715,0.35329986975557404,1.0010256518817187,4.296158103050402
22,24,male,101,75,75,same,catch,anti,2,2,1,0.39913509130929015,0,f,same,1.7721064381621545,0,0.5094969013971422,0.035315394366989494,0.35330820839044463,1.0010497056300665,7.402704667742
22,24,male,102,165,215,change,valid,clock,5,2,3,0.6301845050875272,1,j,change,1.0448134182715876,0.38349162307817664,0.5001990046876017,0.035293906350489124,0.35333194142367574,1.000976582230578,5.3794738771466655
22,24,male,103,105,55,change,valid,anti,4,1,2,0.7006138837605249,1,j,change,1.16778067598716,0.22596975037790437,0.49986481792802806,0.03529262348456541,0.353318792040227,1.0010317454962205,5.568091514574917
22,24,male,104,105,55,change,valid,anti,2,0,1,0.42359262313038926,0,f,same,1.0376614367396542,0.18864138701570898,0.4999991982094798,0.035339768832272966,0.35330788767350896,1.0010012774127972,5.132780866813846
22,24,male,105,135,135,same,valid,anti,3,1,2,1.8843338570623018,1,f,same,0.9311876747306087,0.2211013286721298,0.49952485826725024,0.0352913406186417,0.3533258478055359,1.0010323869319109,6.497597671852418
22,24,male,106,75,75,same,catch,clock,2,0,1,0.5355387735216937,0,j,change,0.2590813327842625,0,0.5005530758826353,0.035291661333758384,0.3533957640393055,1.001028217613566,6.03985898729843
22,24,male,107,165,165,same,valid,clock,5,1,2,0.9515313739484554,1,f,same,1.0262554694218124,0.21631717041816725,0.5003830960522464,0.03530384856640012,0.3533143020067655,1.001067024330041,5.663099014533145
22,24,male,108,135,135,same,valid,anti,3,0,2,1.0633604627546447,1,f,same,1.008773845684118,0.1968683666573204,0.499100870842085,0.03527402191866713,0.35335695732283057,1.0010609307137202,5.744117174474013
22,24,male,109,105,155,change,valid,clock,3,1,1,0.8893258118878293,0,f,same,3.03223010009242,0.21188707937938442,0.49914897834059957,0.035325657301655156,0.3532719674076361,1.0010808151455421,7.616129097435987
22,24,male,110,15,65,change,valid,clock,5,0,2,0.3813086971622397,1,j,change,1.3290633117139805,0.18853504821944603,0.5004106776832487,0.03529326491843676,0.3533171884573676,1.0010644585963746,5.391654054485116
22,24,male,111,45,45,same,catch,anti,3,2,1,0.2816232239911187,0,j,change,0.22443880196988175,0,0.5003215184515284,0.03533303378389974,0.35329377614107216,1.0010179546807194,5.756803442700402
22,24,male,112,165,215,change,valid,clock,3,2,3,0.5677884373308189,1,j,change,0.7493580054251652,0.38063519690088476,0.5002342835196032,0.03536767118384887,0.35327292955662415,1.0010708729296312,5.1208460377220035
22,24,male,113,135,185,change,valid,clock,4,2,2,3.6582196312592714,1,j,change,1.5799266007834376,0.37788715938866463,0.49945558346735197,0.03534842818407924,0.35327966460681637,1.0010089746137965,8.936236717119755
22,24,male,114,75,75,same,valid,clock,1,2,2,1.0399212063312007,1,f,same,1.093046638296073,0.37531252339285504,0.4991287731918419,0.035350993915926665,0.3532803060406877,1.001035273380694,5.814141167287744
22,24,male,115,75,75,same,valid,anti,5,2,3,1.1891262940516754,1,f,same,1.0037725900783698,0.37286186889033524,0.5003936797002098,0.03531571508574416,0.35328832395862264,1.001067986479029,5.898628519344129
22,24,male,116,75,25,change,catch,anti,4,0,1,0.19626480548322434,0,j,change,0.365322575215032,0,0.49961177248223976,0.035343617433682084,0.35328126818967576,1.0010067295970657,5.814606206446115
22,24,male,117,165,115,change,valid,anti,1,1,2,0.7468089494068408,1,j,change,1.3176804359954986,0.21925871582102735,0.5006775139463571,0.035363501867323066,0.35327870245782833,1.001035273380694,5.792951738236297
22,24,male,118,165,115,change,catch,anti,2,0,1,0.15602159962509177,0,j,change,0.2928919245787256,0,0.49960792388264963,0.03531635651779652,0.35333065855593304,1.0010484227641427,5.708618971610122
22,24,male,119,45,45,same,valid,anti,1,0,2,0.37288731908847694,1,f,same,1.2020370639420435,0.180838657422577,0.5000809809571365,0.03532629873370752,0.3533075669565733,1.00103719767867,5.2733214732325
22,24,male,120,135,185,change,valid,clock,5,1,2,0.6800761509639415,1,j,change,1.4598159663673869,0.21503939261008387,0.500381492467568,0.03530609358494985,0.3532851167910849,1.0010686279129004,5.851584195981559
22,24,male,121,45,45,same,valid,clock,2,2,2,1.4231574106233893,1,f,same,2.168836795950483,0.3702878242191842,0.4990742513582518,0.035301924268424045,0.35332777210533095,1.0010593271308608,7.275195741394782
22,24,male,122,15,15,same,valid,anti,5,2,2,1.25291106495024,1,f,same,0.8557060465027462,0.3677981371209694,0.49972979621270497,0.03539268708300369,0.3532886446737393,1.0010346319468226,5.779766755600576
22,24,male,123,15,15,same,valid,anti,4,0,3,0.488681748689487,1,f,same,1.129097756682313,0.17364971315660563,0.5001656501553953,0.03533848596816824,0.3532767781562143,1.0010359148145653,5.273709861106909
22,24,male,124,105,155,change,valid,clock,1,2,2,0.5363293400914699,1,f,same,1.1370765457668313,0.3654534464827842,0.5001816859894461,0.03536863333283691,0.3532819096235471,1.001022444714181,5.367700368537044
22,24,male,125,105,105,same,catch,clock,1,0,1,0.11845926433306886,0,j,change,0.1921503314461006,0,0.5005065719651611,0.03530609358494985,0.35330243548924045,1.0010538749484112,5.568740003662242
22,24,male,126,135,185,change,valid,clock,1,1,3,0.6472626672657498,1,j,change,1.0316759017023287,0.21106294778525125,0.49987796730965783,0.035365105450182455,0.353318792040227,1.001026293313771,5.414725448899844
22,24,male,127,75,25,change,valid,anti,1,0,1,0.20959539348223188,0,j,change,1.0355475932301488,0.1668523066695738,0.4996082445995853,0.03532437443391245,0.35331205699003476,1.0010416877139505,5.038044693148549
22,24,male,128,165,165,same,catch,anti,5,1,1,0.10387467419241148,0,j,change,0.28590735714533366,0,0.4991698249232286,0.035325657301655156,0.353328734256138,1.001027255462759,5.673130710960322
22,24,male,129,45,45,same,valid,clock,1,0,1,0.0024781776355666807,0,j,change,0.26477437422545336,0.17303509978873227,0.5005072133990325,0.03532694016757887,0.35328960682272736,1.0010458570304763,4.037941743101328
22,24,male,130,135,85,change,valid,anti,4,1,1,0.03036898130994814,0,j,change,1.40389324368698,0.20708897534979318,0.4997641128975374,0.035343617433682084,0.3532562522923399,1.0010394426972198,5.190761628304244
22,24,male,131,135,135,same,catch,anti,2,0,1,0.6688231654916308,0,f,same,2.0016032625862863,0,0.4997474356296152,0.035308017882925924,0.35334733582385525,1.0010522713619139,7.935245702636166
22,24,male,132,15,15,same,catch,anti,5,0,1,0.49641967955903965,0,f,same,1.1903171150115668,0,0.5002397357038717,0.03533944811715628,0.35330949125636835,1.001054195663528,6.958092274673618
22,24,male,133,135,85,change,valid,anti,2,2,3,0.6910321528066561,1,j,change,0.8377718915580772,0.36321163776243165,0.4996226768489578,0.035339127400220605,0.3532665152251866,1.001076966545952,5.2612968434750655
22,24,male,134,105,105,same,valid,anti,5,0,1,0.8721549625934131,0,f,same,1.6916181021460943,0.17883975049634,0.49922659177354944,0.03532629873370752,0.353279023172945,1.001075042246157,6.344682213086344
22,24,male,135,45,95,change,valid,clock,1,0,2,0.3602273496271664,1,j,change,1.2680052738633094,0.1848621940312121,0.499498238785236,0.0353503524838743,0.3532876825247513,1.0010506677790545,5.297199470047417
22,24,male,136,75,75,same,valid,anti,1,2,2,0.31900114720338024,1,f,same,1.2591807549470104,0.3608503284342146,0.49969034806417767,0.03533656166655419,0.35332488565654785,1.0010423291460029,5.237818138901275
22,24,male,137,15,15,same,valid,anti,1,0,3,0.3343872082805319,1,f,same,1.0368888303055428,0.17856577339127325,0.5000707180242898,0.035337523817361216,0.3532661945082509,1.001085946612875,5.038454248324342
22,24,male,138,15,325,change,valid,anti,3,2,3,0.6251534228322271,1,j,change,0.6969769568277115,0.35853245201448475,0.49983948131193756,0.03530224498535972,0.3533168677386129,1.0010654207471816,5.061702999053523
22,24,male,139,135,135,same,catch,anti,3,1,1,0.7568589266829804,0,j,change,0.24076392142887926,0,0.4997631507449114,0.03531282863514207,0.3533482979728433,1.0010041638633993,6.286615178814827
22,24,male,140,45,355,change,valid,anti,5,0,3,0.3879042352891702,1,j,change,1.2732182024665235,0.17280853344108046,0.5000761702067393,0.03535804968305456,0.3533104534071754,1.0010368769635534,5.380072655152617
22,24,male,141,135,85,change,valid,anti,5,0,2,0.5783034537653293,1,j,change,0.9167063553522894,0.16723508441322638,0.4996858580307162,0.03532629873370752,0.3533210370569577,1.0010509884959902,5.167646295707527
22,24,male,142,15,325,change,catch,anti,2,2,1,0.039378233024763176,0,j,change,0.26281671972901677,0,0.4992172909896908,0.03530256570047641,0.3533540708722285,1.0010445741645526,5.567134496061044
22,24,male,143,75,75,same,catch,clock,3,2,1,0.043929202438448556,0,j,change,0.2629677772765717,0,0.5006672510116914,0.03533784453429689,0.353269080957034,1.001068948629836,5.580107164265428
22,24,male,144,15,15,same,valid,anti,4,2,3,0.7668588721608103,1,f,same,1.3696647580818535,0.35633511623517844,0.5007653903103346,0.03532245013411739,0.35326843952498166,1.00108787091267,5.792967132636477
22,24,male,145,75,125,change,valid,clock,3,1,3,0.7894504744526785,1,j,change,0.7195486746859387,0.2138089274162141,0.49913550824021513,0.035322770851053065,0.35333162070674007,1.0010586856969894,5.249150341387576
22,24,male,146,165,115,change,valid,anti,4,0,2,0.764097180996032,1,j,change,1.6536019527793542,0.16209921699210103,0.49953864908275136,0.03532758160145022,0.353269080957034,1.0010747215292213,6.156022241058963
22,24,male,147,105,105,same,valid,clock,2,0,2,0.7093405840951164,1,f,same,0.9805790026148316,0.15708202299165985,0.500421261333031,0.03532918518430961,0.3533101326902397,1.0010516299298615,5.391636735785141
22,24,male,148,75,25,change,valid,anti,3,2,2,0.49698382016504183,1,f,same,1.4676991818851093,0.3542370069717695,0.5003234427513235,0.03531571508392517,0.3533229613549338,1.001027255464578,5.627738399118243
22,24,male,149,45,45,same,valid,anti,3,2,3,0.8795186171209934,1,f,same,1.4953173763951781,0.3520341948294368,0.49950818099932803,0.03531058361841133,0.3532934554241365,1.0010574028292467,6.050553605062305
22,24,male,150,135,85,change,valid,anti,1,2,2,0.8308883498702926,1,j,change,1.3712436462028563,0.34986218857882134,0.4993173545881291,0.03535067320080998,0.3533226406398171,1.001049064196195,5.933105881076699
22,24,male,151,105,155,change,catch,clock,1,0,1,1.3249828336411156,0,j,change,0.8423940600696369,0,0.5128445418995398,0.03535131463286234,0.35329377614107216,1.001027255464578,7.406273282025722
22,24,male,152,45,355,change,valid,anti,5,1,2,0.7303799177498149,1,j,change,1.1250410116426792,0.2100090453461675,0.49986064861150226,0.03533656166837318,0.35326330805764883,1.0010702314957598,5.662327690964958
22,24,male,153,165,215,change,catch,clock,4,2,1,0.18150414189585717,0,j,change,0.4449135460145044,0,0.4992894522383722,0.03531411150106578,0.3533284135392023,1.0010612514306558,5.862135132681942
22,24,male,154,45,45,same,catch,clock,5,0,1,0.044129008918389445,0,j,change,0.31008426188782323,0,0.4994017030694522,0.03535516323427146,0.353297945455779,1.0010516299298615,5.614336291302607
22,24,male,155,165,165,same,valid,clock,4,1,3,0.3732016214144096,1,f,same,0.8399781014668406,0.20642217361294377,0.5006569880788447,0.03536382258243975,0.3532863996588276,1.001028217615385,4.885018266417319
22,24,male,156,15,325,change,catch,anti,4,1,1,0.0512678410668741,0,j,change,0.31286551676930685,0,0.5001403135393048,0.0353179601024749,0.35330500122472586,1.0010445741627336,5.592108060989631
22,24,male,157,75,125,change,valid,clock,1,1,2,0.5236203009790188,1,j,change,0.7969950131773658,0.20305300551422856,0.5000607758083788,0.03534971105000295,0.35330788767350896,1.0010628550116962,5.062038468680839
22,24,male,158,105,105,same,catch,anti,5,1,1,0.022957219283853192,0,j,change,0.29503848118838505,0,0.49927854787165415,0.03535644610019517,0.353288965390675,1.0010593271290418,5.567195752943007
22,24,male,159,135,185,change,valid,clock,2,0,1,0.23383387582543946,0,j,change,1.0660121481050737,0.15243466318415924,0.5006701374641125,0.035325015867783804,0.35329666258985526,1.0010423291478219,5.098077079117502
22,24,male,160,165,165,same,valid,clock,3,0,3,0.34387913856880914,1,f,same,0.9672994085667597,0.156625455091777,0.49907777924272523,0.03531731866678456,0.3532934554241365,1.0010618928627082,4.966105701154447
22,24,male,161,75,75,same,valid,anti,3,0,2,1.382982517412529,1,f,same,2.704478840236334,0.15221027280274196,0.49994531780794205,0.035273059767860104,0.35333450715552317,1.0010500263470021,7.770172195982013
22,24,male,162,105,105,same,valid,anti,4,1,3,0.8599006997083052,1,f,same,0.8839393755715719,0.19962067294722413,0.50011529764015,0.03535452180040011,0.3532944175731245,1.001044253447617,5.426625961306854
22,24,male,163,75,75,same,catch,anti,4,1,1,0.6864831076927658,0,j,change,0.23991338084488234,0,0.5003349885519128,0.035297434233143576,0.35332071634002205,1.0010455363135407,6.192660270935448
22,24,male,164,15,15,same,valid,anti,1,2,3,0.3311521393243311,1,f,same,1.1195304579796357,0.3477423766748715,0.5003728331193997,0.03531571508574416,0.3533155848726892,1.0010096160476678,5.168066755248219
22,24,male,165,45,355,change,valid,anti,5,2,1,1.774078204192847,0,j,change,1.9113731580036983,0.34572901849454596,0.4994312090020685,0.03531507365005382,0.35330820839044463,1.0010067295970657,7.416100681939497
22,24,male,166,165,115,change,valid,anti,1,2,1,0.6803773039082444,0,j,change,1.6445497250333574,0.3532629079159516,0.4998978517432988,0.03535708753406652,0.35330532194166153,1.0010564406784397,6.027170153338375
22,24,male,167,105,105,same,valid,anti,2,1,2,0.6162112009005796,1,f,same,1.0226939109052182,0.19637696970704482,0.5002705245024117,0.035330788767169,0.3532886446737393,1.001058044263118,5.309749112977443
22,24,male,168,105,105,same,valid,clock,3,0,2,0.785139080384397,1,f,same,0.8366420067632134,0.14783595739111016,0.499416776752696,0.03530769716780924,0.3533242442244955,1.0010484227623238,5.296499666294039
22,24,male,169,15,325,change,valid,anti,4,2,2,2.02168974704,1,j,change,1.3496026480934233,0.35994096962003796,0.5002233791528852,0.03531731866860355,0.3532892861076107,1.001073117946362,7.075779894721563
22,24,male,170,135,185,change,catch,clock,2,1,1,0.004523067063928465,0,j,change,0.22415047769209195,0,0.5002031740059465,0.035330788768987986,0.3532466307915456,1.0010599685647321,5.473811400002887
22,24,male,171,165,165,same,valid,clock,2,1,1,0.6305494806474599,0,j,change,0.7206253205167741,0.1933132761328181,0.5006685338794341,0.03532822303350258,0.35329249327332946,1.0010545163804636,5.157015500557463
22,24,male,172,75,75,same,catch,clock,2,0,1,0.08801106600731146,0,j,change,0.22874763030631584,0,0.49959381235021283,0.03532437443573144,0.35327741959008563,1.0010663828961697,5.590669326049465
22,24,male,173,105,155,change,valid,clock,5,0,1,0.13775903082023433,0,j,change,1.774678265064722,0.14377300662744472,0.5003638530524768,0.03533816524941358,0.35330500122472586,1.0010493849131308,5.733487341474756
22,24,male,174,75,25,change,valid,anti,1,2,2,1.2475355330007005,1,j,change,1.7243488409458223,0.3580928624259548,0.49995782575933845,0.03533271306696406,0.3532985868896503,1.0010307833472325,6.8637085686186765
22,24,male,175,15,15,same,valid,clock,1,1,3,0.5505354845718102,1,f,same,0.7940671907817887,0.19843855560211923,0.49945590418428765,0.035311545767399366,0.3533069255245209,1.0010487434792594,5.0612831809448835
22,24,male,176,105,105,same,valid,clock,1,2,3,0.7765194994135527,1,f,same,1.3227740579986857,0.3563384565898555,0.4999995189245965,0.03533399593470676,0.3532892861057917,1.0010375183956057,5.803776246248162
22,24,male,177,45,45,same,valid,clock,3,2,3,0.36906116932550503,1,f,same,0.9796335299015482,0.3546532331146807,0.5000226105239562,0.03530705573393789,0.3532931347072008,1.001035273380694,5.014769322939173
22,24,male,178,165,165,same,valid,anti,2,1,3,0.5292495198063989,1,f,same,0.7216740639960335,0.19547026683047414,0.4998696286784252,0.035297434234962566,0.35329377614107216,1.0010933230969385,4.96768074067586
22,24,male,179,135,135,same,valid,clock,1,0,1,0.13185110921585874,0,j,change,2.1775772871023946,0.14740455861147633,0.4996435234334058,0.035357728967937874,0.35328992753966304,1.0010599685629131,6.062643661018228
22,24,male,180,75,75,same,valid,clock,3,2,2,0.7888247562477773,1,f,same,1.3427771561218833,0.35287936563016437,0.49986064861150226,0.03532694016757887,0.35332777210714994,1.0010365562466177,5.767776763243091
22,24,male,181,75,75,same,valid,anti,2,0,2,0.44983045313711045,1,f,same,0.9175597823868884,0.15127867324565722,0.5004174127334409,0.0353195636835153,0.3532552901415329,1.0010856258977583,5.061621537022802
22,24,male,182,45,95,change,valid,clock,3,0,1,0.8511736786549591,0,j,change,1.1055982055277127,0.14729319461187462,0.5003535901196301,0.035301924266605056,0.35332873425795697,1.001049064198014,5.733534486822464
22,24,male,183,165,115,change,valid,anti,1,0,2,1.5875885218065378,1,j,change,4.348351853117492,0.15100731287923905,0.4996249218656885,0.035318280817591585,0.35327292955844314,1.0010984545624524,9.65457949716074
22,24,male,184,75,125,change,valid,clock,4,1,2,0.5749574168439722,1,j,change,1.4478519520580448,0.19263512682558367,0.49940972098556813,0.03535227678366937,0.3533213577738934,1.0010397634141555,5.709233464731369
22,24,male,185,75,125,change,valid,clock,3,2,3,0.9878063525629841,1,j,change,0.8001556758663355,0.3511321837838164,0.4997753379793721,0.03531282863332308,0.35332328207368846,1.001018275397655,5.473804664950876
22,24,male,186,135,85,change,valid,anti,4,2,3,0.5764230919849069,1,j,change,0.7803324997912569,0.34939006734874223,0.49955853351639234,0.03533367521777109,0.3533239235057408,1.0010368769635534,5.084343350275958
22,24,male,187,105,155,change,catch,clock,5,1,1,0.14809893595884205,0,j,change,0.8416288301177701,0,0.5004655202319555,0.03532148798512935,0.35328992753966304,1.001059006413925,6.29864301573798
22,24,male,188,105,155,change,valid,clock,4,2,1,0.3331989530524879,0,j,change,0.7198100587647787,0.3477092628739508,0.5005450579647004,0.03524804386870528,0.3533499015557027,1.001068948629836,4.838071120200766
22,24,male,189,75,75,same,catch,clock,1,1,1,0.0017386050167260692,0,j,change,0.28358568923795247,0,0.4999735408764536,0.03530609358313086,0.3532479136592883,1.0010875501957344,5.544230515741219
22,24,male,190,75,25,change,valid,anti,4,2,2,0.5674334039867972,1,j,change,1.5877344478885789,0.3537864973303887,0.5000261384066107,0.035320846551258,0.3533014733402524,1.001064137879439,5.898360400216916
22,24,male,191,165,165,same,catch,clock,4,0,1,0.0314199698077573,0,j,change,0.31115545553439006,0,0.49962171469815075,0.03529198205069406,0.35333065855593304,1.0010484227641427,5.57975950740547
22,24,male,192,15,65,change,catch,clock,5,1,1,0.6203657645219209,0,j,change,0.3218366031996993,0,0.4995813044006354,0.03534041026614432,0.3533139812898298,1.0010388012651674,6.391472528854138
22,24,male,193,165,215,change,catch,clock,3,0,1,0.09753154007921694,0,j,change,0.29405516390761477,0,0.5003523072518874,0.03534169313388702,0.3533114155561634,1.0010330283639632,5.721437695816348
22,24,male,194,15,65,change,catch,clock,3,2,1,0.16615977398396353,0,j,change,0.3849004030453216,0,0.49998444524135266,0.035330147335116635,0.35328158890661143,1.0010686279129004,5.850495042201146
22,24,male,195,165,165,same,valid,anti,4,1,2,0.7650708767778269,1,f,same,0.9197544464950624,0.18971189951471623,0.500075528774687,0.035330788767169,0.35327870245600934,1.0010628550135152,5.415456041451762
22,24,male,196,15,325,change,valid,anti,1,0,2,0.5303367492851976,1,j,change,1.052771040056541,0.14719072806380923,0.49911402022553375,0.03531058361841133,0.35328126818967576,1.001064137879439,5.3081118544250785
22,24,male,197,135,135,same,catch,clock,2,0,1,0.11752373383387749,0,j,change,1.003840902727461,0,0.5001836102874222,0.035322770851053065,0.35329121040740574,1.001037197680489,6.427870021236231
22,24,male,198,75,75,same,valid,anti,2,1,1,2.7579525704968546,0,f,same,1.230730621418843,0.1869255306380239,0.5003978490167356,0.03532629873370752,0.35327004310784105,1.001076966545952,7.735934409594847
22,24,male,199,75,125,change,valid,clock,2,0,3,0.8248412372358871,1,j,change,0.7882282232585567,0.1436253631240523,0.49916629704057414,0.035299037817821954,0.35330500122472586,1.0010830601622729,5.296262656682302
22,24,male,200,45,355,change,valid,anti,3,0,1,0.6993351864348369,0,j,change,0.9158689641535602,0.14004288089380357,0.5000386463561881,0.035333033785718726,0.3532931347072008,1.001039121980284,5.309503444015718
22,24,male,201,75,125,change,catch,clock,5,1,1,0.9613055348963826,0,j,change,1.0378686197018396,0,0.5015007936126494,0.03526664543460356,0.3533518258573167,1.0010529127957852,7.182689189956363
22,24,male,202,165,215,change,valid,clock,2,1,1,0.5909647060943826,0,j,change,1.113947422352794,0.19177580482234846,0.5000578893577767,0.03532469515084813,0.3533258478055359,1.001024369013976,5.509341353814307
22,24,male,203,135,85,change,valid,anti,2,1,2,0.18637486581974372,1,j,change,0.9497834681478707,0.1962881708435373,0.49939817518679774,0.03529647208415554,0.3533046805059712,1.0010384805482317,4.825033346514829
22,24,male,204,15,325,change,catch,anti,3,2,1,0.0028046671959600644,0,j,change,0.3071003140776156,0,0.5002878432023863,0.035320525834322325,0.3532992283235217,1.0010311040641682,5.55642223887844
22,24,male,205,105,105,same,valid,clock,4,1,2,0.4174476919160952,1,f,same,1.6414102296421333,0.19374385664030744,0.5003192734366166,0.035341372416951344,0.3532661945082509,1.0010727972294262,5.768808188024195
22,24,male,206,45,95,change,valid,clock,4,2,1,0.8905605710278905,0,j,change,0.9346931078307534,0.3521839333114105,0.4992875279385771,0.03534554173347715,0.3533229613567528,1.0010288590474374,5.603124036848385
22,24,male,207,15,325,change,catch,anti,4,2,1,0.291046520913369,0,j,change,0.8868668772483943,0,0.49976539576164214,0.03535291821754072,0.3532764574410976,1.001076966547771,6.415845070761861
22,24,male,208,75,125,change,valid,clock,5,0,2,1.4354001277079078,1,j,change,0.8363835091349756,0.14330577384031634,0.5003048411854252,0.03532982661636197,0.35326715665905795,1.0010320662149752,6.050954180172994
22,24,male,209,45,95,change,valid,clock,4,0,2,0.4032646390314767,1,j,change,0.6909381828263577,0.1398500620844009,0.49981831401237287,0.03529583065210318,0.3533409214887797,1.0010487434810784,4.849069135927493
22,24,male,210,15,325,change,valid,anti,1,2,2,0.2462590806917433,1,j,change,0.9817810486601957,0.35763590314666416,0.5006213885299076,0.035334637366759125,0.3533072462414566,1.0010275761815137,4.9918813784533995
22,24,male,211,165,215,change,valid,clock,5,1,2,0.8379457199880562,1,f,same,1.066652619276283,0.19113721539260015,0.49991003897594055,0.03534746603327221,0.35329666259167425,1.0010625342965795,5.614772465962233
22,24,male,212,15,325,change,valid,anti,1,1,3,0.5503529967918439,1,j,change,0.9377803264069371,0.1885708855179299,0.5005492272812262,0.03526087253521837,0.3533662581066892,1.00104329129681,5.191796260251067
22,24,male,213,165,165,same,valid,clock,3,1,4,0.5164375306485454,1,f,same,1.3078674683292775,0.18615481976077228,0.4999090768269525,0.03533335450083541,0.35330692552270193,1.0010359148145653,5.497615631986264
22,24,male,214,105,55,change,valid,anti,3,1,2,2.1278556210563693,1,j,change,1.617312541913634,0.1838440592255952,0.49965250349850976,0.03535869111692591,0.35330243549105944,1.0010593271308608,7.475626014867885
22,24,male,215,135,135,same,valid,clock,4,1,2,0.8737793924792641,1,j,change,1.5116925276543043,0.1814701495588113,0.5000264591253654,0.035305772868014174,0.3533062840888306,1.0010744008122856,6.12165199869014
22,24,male,216,165,165,same,valid,clock,1,2,3,0.8084741038928769,1,f,same,1.058680565243776,0.3561801264941928,0.5000902817391761,0.03534522101836046,0.3532668359403033,1.0010817772963492,5.497754823018113
22,24,male,217,105,105,same,valid,anti,5,2,2,0.8250795297153672,1,f,same,1.0143568813127786,0.35477425765336623,0.4998882302443235,0.035327260884514544,0.35331943347227934,1.0010147475131816,5.520693440736068
22,24,male,218,105,105,same,catch,clock,4,1,1,0.07965383126429515,0,j,change,0.28239069895971625,0,0.5002968232693092,0.03531956368533429,0.35330692552270193,1.0010368769635534,5.591762649146403
22,24,male,219,45,95,change,catch,clock,4,0,1,0.045575761772852275,0,j,change,0.3268048249901767,0,0.5005899582956772,0.03535131463468133,0.35328287177435413,1.0010378391143604,5.651041992394312
22,24,male,220,15,65,change,valid,clock,3,1,2,0.9745453600789915,1,j,change,3.8751690577701083,0.1791096845850514,0.49986385577904,0.03533944811715628,0.3533043597908545,1.0010218032803095,8.535471102306474
22,24,male,221,15,15,same,valid,clock,3,1,3,0.2814718457284471,1,f,same,0.9258608917134552,0.17687007503874413,0.4996714257813437,0.035301282834552694,0.3533537501552928,1.0010506677808735,4.8729702243435895
22,24,male,222,135,135,same,valid,anti,1,2,4,0.2925532477856905,1,f,same,0.9646855677819985,0.3532895645497558,0.4997490392124746,0.0353602946997853,0.35327581600722624,1.001049064196195,4.967451748980238
22,24,male,223,105,155,change,catch,clock,4,1,1,0.07695820773187734,0,j,change,0.28099429861867975,0,0.4998907959761709,0.035296792801091215,0.35334156292265106,1.0010185961145908,5.614733659245758
22,24,male,224,15,325,change,valid,anti,3,0,3,0.379296520834032,1,j,change,1.1578849634242943,0.1365720793531052,0.5002002875535254,0.03544143601538963,0.35316067872554413,1.00105708211413,5.273469965046388
22,24,male,225,15,15,same,valid,clock,2,1,3,0.6484971056925133,1,f,same,0.9658074346607464,0.1747353859682112,0.4999953496080707,0.03534008955102763,0.3533043597908545,1.0010516299298615,5.321243598094952
22,24,male,226,75,125,change,catch,clock,4,2,1,0.10290161984266888,0,j,change,0.26597642027081747,0,0.49916597632363846,0.03529198205251305,0.3533027562079951,1.001068948629836,5.602230199514452
22,24,male,227,75,75,same,valid,anti,4,2,2,0.4219999441957043,1,f,same,0.9276360584299255,0.35182549432675014,0.5001804031217034,0.0352955099351675,0.3533329035726638,1.0010429705798742,5.038485999273689
22,24,male,228,165,165,same,catch,clock,2,1,1,0.03766753035779402,0,j,change,3.6803266306760634,0,0.4998779673114768,0.03535355964959308,0.35330500122290687,1.0010420084308862,8.983783603487609
22,24,male,229,165,115,change,catch,anti,5,1,1,0.4741257023288199,0,j,change,0.19716762288408063,0,0.4999684094073018,0.03535516323427146,0.3532844753572135,1.0010734386632976,5.969056294432448
22,24,male,230,45,45,same,catch,anti,4,2,1,0.160446527392196,0,j,change,0.35109045268291084,0,0.49986096932843793,0.035329505901245284,0.3532934554241365,1.0010599685629131,5.849996648510569
22,24,male,231,45,45,same,catch,clock,1,0,1,0.14198607640719274,0,j,change,1.476128577874988,0,0.5007390915434371,0.035367350466913194,0.3532822303404828,1.0010429705798742,6.969880856968302
22,24,male,232,45,45,same,valid,clock,2,0,2,0.35136338256052113,1,f,same,0.9120200435081642,0.13347208095230317,0.5001957975218829,0.03529069918477035,0.35328543750802055,1.001067024330041,4.967348798931198
22,24,male,233,45,355,change,valid,anti,3,2,4,1.087628130313533,1,j,change,0.77592007997373,0.35036638824280514,0.49988919239331153,0.03530449000027147,0.3533159055896249,1.001064137879439,5.568197671789676
22,24,male,234,75,75,same,valid,clock,3,0,2,0.5022528741828864,1,f,same,1.420742414169581,0.13033483325382433,0.4994344161677873,0.0353096214676043,0.353318792038408,1.0010612514306558,5.591337699568612
22,24,male,235,165,165,same,valid,anti,3,1,2,0.30974526437785244,1,f,same,0.9941440344937291,0.1725550514206646,0.49989881389410584,0.03531475293493713,0.35332328207368846,1.0010295004813088,4.990770095224434
22,24,male,236,105,155,change,valid,clock,5,1,1,0.24065551919738937,0,j,change,1.0969815110056516,0.17038592650736745,0.49990137962595327,0.035343617433682084,0.35325176225887844,1.0010721557973739,5.144329873763127
22,24,male,237,165,115,change,valid,anti,3,2,2,0.5522352828738804,1,f,same,1.9309875475355511,0.34891389041197607,0.4997689236461156,0.035367991898965556,0.3533027562061761,1.0010298211982445,6.156811845477932
22,24,male,238,105,105,same,valid,clock,1,1,2,0.3391309284088493,1,f,same,1.2855147999525798,0.17399101183840412,0.49972306116251275,0.03531250791820639,0.35330788767350896,1.0010192375466431,5.308367786321469
22,24,male,239,105,55,change,valid,anti,1,2,2,1.083708652005953,1,j,change,0.7461784204515425,0.3475257916693772,0.5001412756882928,0.0352660040025512,0.3533521465724334,1.001037197680489,5.615413257848559
22,24,male,240,75,125,change,catch,clock,5,0,1,0.04845900455256924,0,j,change,0.24571257950083236,0,0.500014913324776,0.03530994218453998,0.35327421242436685,1.0010856258959393,5.579731284338777
22,24,male,241,165,165,same,valid,anti,3,2,2,0.59554935075721,1,f,same,2.5716982941412425,0.3461933228464554,0.5001993254045374,0.03533335450083541,0.353298907606586,1.0010179546807194,6.839717358821872
22,24,male,242,165,165,same,valid,clock,5,2,2,0.5887697212692728,1,f,same,0.8351814630896115,0.34490277995647084,0.5005194006316742,0.03529775495189824,0.3533017940571881,1.0010692693467718,5.1206404583426774
22,24,male,243,75,125,change,valid,clock,2,2,3,0.2377302625354787,1,j,change,1.1717200387302,0.3435369760705064,0.4999834830923646,0.035334637366759125,0.35329281399026513,1.0010407255649625,5.179168683171156
22,24,male,244,105,155,change,valid,clock,3,0,1,0.09747060391237028,0,j,change,0.3483303650991729,0.1273100314539462,0.5004459565170691,0.03532982661636197,0.3532748538582382,1.0010586856969894,4.213772086553945
22,24,male,245,45,45,same,valid,anti,1,1,3,0.7029939220974484,1,f,same,0.6302380647703103,0.17191617256525107,0.5004584644666465,0.03531122505046369,0.3533258478073549,1.0010291797643731,5.003668998597277
22,24,male,246,75,75,same,valid,clock,4,1,2,0.4480312326704734,1,f,same,1.32405147245845,0.16983760455885016,0.49957264505064813,0.03531924296657962,0.35333482787427783,1.001026293313771,5.42667471023924
22,24,male,247,15,65,change,valid,clock,5,2,2,1.053032424133562,1,j,change,2.1449578369847586,0.3421885696182232,0.49944339623471024,0.035358370399990235,0.35329249327332946,1.0010596478477964,6.922466426578467
22,24,male,248,105,55,change,valid,anti,1,0,1,0.19566731034501572,0,j,change,1.1179092352613225,0.13015522516966915,0.4993526334201306,0.03534906961795059,0.35328543750620156,1.0010128232152056,5.049507427316712
22,24,male,249,75,75,same,valid,anti,2,2,3,0.6322605040313647,1,f,same,0.9620050179328246,0.3408442714322194,0.4995293483007117,0.035336882383489865,0.3532947382900602,1.0010724765143095,5.296417242112511
22,24,male,250,15,15,same,catch,clock,4,2,1,0.09014222821679141,0,j,change,0.30221996865293477,0,0.500493743298648,0.03529262348456541,0.3533226406398171,1.0010602892816678,5.685766305956349
22,24,male,251,165,165,same,catch,anti,4,0,1,0.4848851048609504,0,j,change,0.7681892048694863,0,0.5114042033765145,0.03526215540296107,0.35336689953874156,1.0010375183956057,6.580711394453829
22,24,male,252,135,135,same,valid,clock,3,2,2,0.3895649061578297,1,f,same,0.9173035297753813,0.33949073912016814,0.49961594179876556,0.03534457958267012,0.35331077412411105,1.0010304626302968,4.967379587731557
22,24,male,253,45,95,change,valid,clock,4,1,3,0.2516057481407188,1,j,change,1.746589258493259,0.16782567452183245,0.4992227431721403,0.035330147335116635,0.353318792038408,1.001045215598424,5.708174137602327
22,24,male,254,45,95,change,valid,clock,5,1,3,0.33278266282650293,1,j,change,0.9760761407014797,0.1659174131729874,0.5000033675241866,0.03532405371697678,0.35330083190638106,1.0010586856969894,4.991152389484341
22,24,male,255,75,75,same,catch,anti,5,0,1,0.09699177393849823,0,j,change,0.5572785523618222,0,0.49999567032500636,0.03532469515084813,0.35330403907391883,1.00104329129681,5.85077534856282
22,24,male,256,45,45,same,valid,clock,2,1,2,0.27998853117242106,1,f,same,0.8218842296246294,0.16407472044160357,0.5002596201375127,0.03536414329937543,0.35330500122472586,1.0010365562466177,4.778925195083502
22,24,male,257,15,15,same,catch,anti,4,1,1,0.10746830437528843,0,j,change,0.5238364640099462,0,0.5000235726747633,0.03523393233444949,0.3533659373897535,1.0010676657639124,5.93330183895705
22,24,male,258,75,25,change,valid,anti,2,1,2,0.4619660508578818,1,j,change,1.2130482290504006,0.1621722231319322,0.4999911802915449,0.035335278800630476,0.35328960682272736,1.0010327076470276,5.379715056074929
22,24,male,259,105,105,same,valid,anti,1,1,2,0.31500020686144126,1,f,same,0.943839946992739,0.16026490758003062,0.4994286432684021,0.03531860153452726,0.3533114155561634,1.0010477813302714,4.943064774823142
22,24,male,260,45,45,same,valid,clock,4,1,2,0.4113713940623711,1,f,same,0.8702585649789398,0.15838217970749496,0.4997323619463714,0.03533399593470676,0.3533030769231118,1.001037197680489,4.944152966452748
22,24,male,261,165,115,change,valid,anti,4,2,2,0.6559694831685192,1,j,change,1.678226577982059,0.338176205382265,0.4995954159330722,0.035322770849234075,0.3532665152251866,1.0010910780783888,6.026729488645287
22,24,male,262,135,185,change,valid,clock,5,2,2,0.6488258402696374,1,j,change,1.0108527310785576,0.33691634234383805,0.500432165699749,0.03532437443391245,0.3532706845417124,1.0015654180206184,5.391809602064313
22,24,male,263,15,325,change,valid,anti,4,0,2,1.1165869204687624,1,j,change,0.9118561572959152,0.13293925111454563,0.49998348309054563,0.0353349580836948,0.3532732502735598,1.0009993531148211,5.732547641659039
22,24,male,264,15,65,change,valid,clock,1,0,2,0.4940072488388978,1,j,change,0.9408877501318784,0.12998584313635164,0.5005415300820459,0.03533110948410467,0.3532947382900602,1.0010535542296566,5.1207636135404755
22,24,male,265,165,115,change,valid,anti,5,0,2,0.7716234388699377,1,j,change,0.8788229826841416,0.12715842554023926,0.5004696895503002,0.03527658765051456,0.35337010670627933,1.0010593271290418,5.391755721664595
22,24,male,266,135,85,change,valid,anti,5,1,2,0.5361856590261596,1,j,change,0.9127762933931081,0.15659899922972031,0.500348779367414,0.035349390333067277,0.3532963418729196,1.0010330283639632,5.214824357915859
22,24,male,267,105,55,change,valid,anti,5,1,1,0.07416380346876394,0,j,change,0.34894036818877794,0.1548838069652727,0.5004536537162494,0.03533046805205231,0.35330820839044463,1.001068948629836,4.143763488140394
22,24,male,268,75,125,change,valid,clock,2,1,2,0.529122195293894,1,j,change,0.8369566298060818,0.15776483343342684,0.49991966047673486,0.03535355964959308,0.35331366057289415,1.001063175730451,5.073800431491691
22,24,male,269,15,65,change,valid,clock,2,0,2,0.6657016302342527,1,f,same,1.9212220459339733,0.12448823101865272,0.49976379218060174,0.03532533658290049,0.3533005111912644,1.001038159829477,6.297825188252318
22,24,male,270,165,115,change,catch,anti,4,2,1,0.11043717850043322,0,j,change,0.33504660173457523,0,0.5003022754535777,0.03531218720127072,0.3533072462396376,1.0010554785294516,5.78070132395078
22,24,male,271,105,105,same,valid,clock,3,1,1,0.07191429681006412,0,j,change,0.38051780987734674,0.15607276025963984,0.5000918853238545,0.03537376480016974,0.35331494344063685,1.0010105781984748,4.273059768434905
22,24,male,272,135,135,same,valid,clock,5,0,2,0.3560019076230674,1,f,same,1.375242982960117,0.12180492198085963,0.49974679419756285,0.03535580466814281,0.35331077412229206,1.0010429705816932,5.402723590024834
22,24,male,273,135,135,same,catch,anti,5,2,1,0.09387953946315974,0,j,change,0.28771299194340827,0,0.4997458320467558,0.03529069918477035,0.3533213577720744,1.0010734386632976,5.6741367991271545
22,24,male,274,135,185,change,valid,clock,3,0,1,0.20803350334608695,0,j,change,0.6879029203482787,0.11912839076980179,0.4999110011267476,0.0353378445324779,0.3533104534071754,1.0010538749465923,4.625796139021986
22,24,male,275,75,125,change,valid,clock,3,0,1,0.46517001029860694,0,j,change,1.9377328603404749,0.12161433480861804,0.5001733473563945,0.035348107467143564,0.3532578558751993,1.0010599685629131,6.192833457931556
22,24,male,276,165,215,change,valid,clock,1,2,2,0.16240514403943962,1,j,change,0.9868535033656372,0.33569886622430123,0.4990854764419055,0.035348107467143564,0.35332199920594576,1.0010557992463873,4.967101205669678
22,24,male,277,135,135,same,valid,anti,4,0,1,0.1763935219078121,0,j,change,0.454021578458196,0.12397569350201056,0.4996448062993295,0.03530160354966938,0.3533069255245209,1.00104329129681,4.4367416855002375
22,24,male,278,165,215,change,valid,clock,2,0,1,0.17942782223508402,0,j,change,0.2888194644237956,0.12625304120030095,0.5005787332138425,0.035268569734398625,0.35336401308995846,1.0010311040623492,4.249832826440979
22,24,male,279,45,355,change,valid,anti,1,1,2,0.19451946541630605,1,j,change,1.3005355647510441,0.159112663019932,0.4999767480421724,0.03530673501700221,0.35333354500653513,1.0010227654311166,5.27381505617268
22,24,male,280,45,45,same,valid,clock,3,1,2,1.4946069889920182,1,f,same,0.8112466994243732,0.1574232298606914,0.4996662943140109,0.03535708753406652,0.3532947382918792,1.0010676657620934,6.0034461005179764
22,24,male,281,75,75,same,catch,anti,3,2,1,0.10885604536451865,0,j,change,0.29037654380954336,0,0.4997227404455771,0.035331750917976024,0.35330949125636835,1.001063175730451,5.662339236765547
22,24,male,282,135,185,change,valid,clock,5,0,1,0.20855370576828136,0,j,change,0.958292722585611,0.12869149686813303,0.500126202006868,0.035311545767399366,0.35332328207186947,1.0010602892798488,4.991034045035121
22,24,male,283,135,135,same,valid,clock,4,2,2,0.5533725441528077,1,j,change,0.8684654381286236,0.33451265542723885,0.4998471785129368,0.035318922251462936,0.3533284135410213,1.001027255462759,5.167333276245699
22,24,male,284,15,65,change,catch,clock,1,1,1,0.34608406560982985,0,j,change,3.18156315376109,0,0.49968489588172815,0.03531892224964395,0.35330403907391883,1.0010545163804636,8.842222476656389
22,24,male,285,165,215,change,catch,clock,2,1,1,0.1619102782315167,0,j,change,0.33612228541278455,0,0.49979907101260324,0.03531186648433504,0.35331366057289415,1.001046177747412,5.850795232996461
22,24,male,286,15,15,same,catch,anti,2,2,1,0.46748013240539876,0,j,change,0.3138911686492065,0,0.49958258726474014,0.03526087253521837,0.35336850312341994,1.0010150682319363,6.168491704824191
22,24,male,287,135,85,change,valid,anti,5,2,2,0.5558760584044649,1,j,change,0.7076475208432385,0.33324991526851266,0.4995716828998411,0.035355483951207134,0.3533085291073803,1.0010622135796439,5.002446747404974
22,24,male,288,45,45,same,catch,anti,2,1,1,0.23198526499436412,0,j,change,0.6114039788753871,0,0.4994536591675569,0.0353166772347322,0.35331654702349624,1.0010099367646035,6.156109155273953
22,24,male,289,45,95,change,valid,clock,2,2,2,0.487107029883191,1,j,change,0.8856920921207347,0.33199737171085486,0.5002025325720751,0.035462282598018646,0.35315907514268474,1.0010500263470021,5.144582277775044
22,24,male,290,75,125,change,catch,clock,2,2,1,0.24721160917397356,0,j,change,0.314698412483267,0,0.4998680250955658,0.035348748901014915,0.35322097345851944,1.0011269983442617,5.885788307119583
22,24,male,291,75,75,same,valid,anti,1,1,2,1.4359418181502406,1,f,same,1.048035017127404,0.15580854449212567,0.5000043296749936,0.03530449000209046,0.3533033976400475,1.001067986479029,6.168448728791191
22,24,male,292,75,125,change,valid,clock,1,2,2,0.33176567029659054,1,j,change,1.039472844440752,0.3307437196030334,0.4997519256630767,0.03534522101836046,0.3533072462414566,1.001055157812516,5.085131030395132
22,24,male,293,15,325,change,valid,anti,5,1,2,0.7448317311936989,1,j,change,0.7926509060089302,0.15424157199120309,0.4997718100967177,0.03535003176693863,0.3532819096235471,1.0010702314957598,5.23851665978691
22,24,male,294,15,15,same,catch,anti,1,1,1,0.16920209222735139,0,j,change,0.34396733564972237,0,0.4996788022654073,0.0353631811485684,0.35333033783899737,1.0010246897309116,5.791805817607383
22,24,male,295,135,135,same,valid,anti,5,0,1,0.2488171167751716,0,j,change,0.9308445079041121,0.13115150448794843,0.49986096932661894,0.035365746882234816,0.35327164669070044,1.0010708729296312,4.978691905786036
22,24,male,296,15,15,same,valid,anti,5,0,2,1.0658809749929787,1,f,same,1.0082526811111165,0.13350420321483025,0.5001624429896765,0.035317639383720234,0.35329954904045735,1.0010426498629386,5.7563461007430305
22,24,male,297,15,15,same,catch,clock,4,1,1,0.12422254272678401,0,j,change,0.23190348224670743,0,0.4997888080779376,0.035315394366989494,0.3532985868914693,1.0010744008122856,5.65010261329553
22,24,male,298,135,135,same,valid,clock,3,0,2,0.4475293110972416,1,f,same,0.950673456878576,0.13098220304847275,0.5005466615475598,0.03535355965141207,0.3532703638247767,1.001078890845747,5.085974515212001
22,24,male,299,45,95,change,valid,clock,5,0,2,0.22909464573240257,1,j,change,0.8422859785569017,0.1284851266291177,0.49995493930873636,0.035339768834091956,0.35329537972393155,1.001067986479029,4.825750148251245
22,24,male,300,105,55,change,valid,anti,4,2,2,0.9204077463327849,1,j,change,1.0788311930300551,0.3294755367472303,0.49977052722897497,0.035278191235192935,0.35331622630656057,1.00108402231308,5.733072975548566
22,24,male,301,135,135,same,valid,clock,2,1,1,0.983376293330366,0,f,same,2.8949620864786993,0.15262010632308895,0.508434046381808,0.03534682460121985,0.3532963418729196,1.0010314247811039,7.566901655764013
22,24,male,302,105,105,same,catch,anti,4,0,1,0.7137222151122842,0,j,change,0.3944064448642166,0,0.5000113854421215,0.0353221294190007,0.35327292955844314,1.0010218032803095,6.35766546494051
22,24,male,303,45,355,change,valid,anti,1,2,2,0.8198986727784359,1,j,change,2.1012415904078807,0.3282398093174834,0.49931254383773194,0.035327260884514544,0.35327709887314995,1.001064137879439,6.627476694322468
22,24,male,304,105,105,same,catch,clock,5,0,1,0.1307985171351902,0,j,change,0.3176714559285756,0,0.49976379218060174,0.035323412283105426,0.3532918518412771,1.001067024330041,5.720490940235322
22,24,male,305,105,155,change,valid,clock,2,0,2,0.6878458327846602,1,f,same,1.9608315156710887,0.12614164051503812,0.5005687909979315,0.03534618316552951,0.35328800324168697,1.0010246897309116,6.357784771540537
22,24,male,306,15,65,change,valid,clock,5,1,2,1.3106435917434283,1,j,change,1.8775510204086459,0.15527881320962364,0.49944724483430036,0.03535131463468133,0.3533017940571881,1.0010416877139505,6.89817021523595
22,24,male,307,105,155,change,valid,clock,4,1,1,0.2896331225911126,0,j,change,0.919092166592236,0.15377571779203048,0.49972851334678126,0.035333995932887774,0.3532639494915202,1.0010763251120807,4.908140975499919
22,24,male,308,15,325,change,catch,anti,2,2,1,0.11139387629918929,0,j,change,1.474253668277015,0,0.5002528850873205,0.035330788767169,0.3533213577738934,1.0010201996974502,6.828777713526506
22,24,male,309,75,25,change,valid,anti,5,2,2,0.4568862196720147,1,f,same,0.9335651473356847,0.32705316160130427,0.5001573115223437,0.035323412284924416,0.35330917053943267,1.00105323351454,5.085039626146681
22,24,male,310,75,75,same,catch,anti,2,2,2,0.897103511622845,1,j,change,1.061946422998517,0,0.49990971826082387,0.03528524700050184,0.35333771432306094,1.0010667036131053,7.14624936297696
22,24,male,311,45,95,change,catch,clock,2,2,1,0.6768160661085858,0,j,change,1.8849412944182404,0,0.5003519865349517,0.035299679251693306,0.3533226406398171,1.0010708729296312,7.91213261505618
22,24,male,312,75,75,same,valid,anti,3,1,2,0.426855594438166,1,f,same,0.8973094117191067,0.15633447477627477,0.4996913102149847,0.035319884400450974,0.3533043597908545,1.0010051260142063,5.002296652006407
22,24,male,313,165,115,change,valid,anti,2,2,3,0.8081418414349173,1,j,change,2.7355235715513118,0.3259048255736179,0.49967527438093384,0.03536189828264469,0.35329954904045735,1.0010250104478473,7.299263602475548
22,24,male,314,15,325,change,catch,anti,4,0,1,0.09726951456650568,0,j,change,0.6057965687814431,0,0.49931094025487255,0.035351635349798016,0.35333739360612526,1.0010368769635534,5.979197355241922
22,24,male,315,75,75,same,valid,clock,2,2,2,1.143973878270117,1,f,same,1.4128550293353328,0.3247849871759423,0.5008038763098739,0.035315394368808484,0.3532860789400729,1.00105708211413,6.240012161575578
22,24,male,316,135,135,same,catch,clock,5,0,1,0.13303679870841734,0,j,change,0.218485338598839,0,0.5003070862021559,0.035315394368808484,0.3532934554241365,1.0010753629630926,5.62674995037014
22,24,male,317,45,45,same,catch,clock,3,0,1,0.09868547862424748,0,j,change,0.461403513836558,0,0.5002554508191679,0.03531635651779652,0.35329409685618884,1.0010609307137202,5.8513699572504265
22,24,male,318,135,135,same,valid,clock,2,2,2,0.7336836200702237,1,f,same,0.6814186709052592,0.32359253879354377,0.4998994553261582,0.03535003176693863,0.35330820839044463,1.001018275397655,5.1208967109560035
22,24,male,319,135,135,same,valid,anti,1,0,1,0.4863344234490796,0,f,same,1.4717536819061934,0.12389277467984636,0.4990671955929429,0.035284926285385154,0.35333033784081636,1.0010538749465923,5.673143539628654
22,24,male,320,165,165,same,valid,clock,4,0,1,0.2668705783198675,0,f,same,1.5402202746172406,0.12594044441758404,0.4997057424625382,0.035336882385308854,0.35325496942277823,1.0010785701288114,5.591327757352701
22,24,male,321,45,45,same,valid,anti,4,2,4,1.1497483817438479,1,f,same,1.4585257232411095,0.32240993107418725,0.5002220962869615,0.035323412283105426,0.35326010089193005,1.0010808151455421,6.274841990920322
22,24,male,322,105,105,same,valid,clock,1,0,1,0.20276701506190875,0,j,change,1.022968444367507,0.12813128316784264,0.5002698830703594,0.035329505901245284,0.35327838174089266,1.0010676657620934,4.967786256456748
22,24,male,323,105,155,change,catch,clock,2,0,1,0.1661251365858334,0,j,change,0.8780394718833122,0,0.5000659072738927,0.03534265528287506,0.3532844753572135,1.0010445741627336,6.368774448632394
22,24,male,324,105,155,change,valid,clock,1,1,2,1.3276175210085057,1,f,same,1.0117334190290421,0.15485971571276697,0.5007208106944745,0.03533656166655419,0.353319754189215,1.0010471398964,6.052170979184666
22,24,male,325,15,15,same,valid,clock,3,2,3,0.38909986699945875,1,f,same,0.9788618856146059,0.3212270267140883,0.49965282421544543,0.035320525834322325,0.35330532193984254,1.0010529127957852,5.0377316736885405
22,24,male,326,75,25,change,catch,anti,3,2,1,0.448577092427513,0,f,same,0.9535271937256766,0,0.4997025352968194,0.035301282834552694,0.35327260884150746,1.0010795322796184,6.651297924288883
22,24,male,327,15,15,same,catch,anti,4,1,1,0.18129311033226259,0,f,same,0.42075363925141573,0,0.5004372971652629,0.035311545769218355,0.3533033976400475,1.001017313246848,5.933096580294659
22,24,male,328,105,155,change,valid,clock,1,0,1,0.16360462434931833,0,f,same,0.9639418258466321,0.13034973917275922,0.5003956040018238,0.03534329671674641,0.3532985868896503,1.0010089746137965,4.920506206348364
22,24,male,329,15,325,change,valid,anti,2,2,3,0.5287732555661933,1,j,change,0.9505708275482903,0.3200340126924448,0.4997628300297947,0.035330147333297646,0.35331911275716266,1.0010307833472325,5.226154315387248
22,24,male,330,45,45,same,valid,clock,5,1,3,0.6315392122614867,1,f,same,0.8383296178308228,0.15334169099046974,0.49970093171396,0.035343617433682084,0.3532873618078156,1.0010426498629386,5.155152136758261
22,24,male,331,165,115,change,valid,anti,5,2,2,0.6713927473774675,1,j,change,1.1524430431272776,0.31883092569185517,0.5005784124969068,0.03529069918477035,0.35333033784081636,1.0010227654311166,5.556746804139038
22,24,male,332,135,185,change,catch,clock,4,1,1,0.28117389994986297,0,f,same,1.0365450220451748,0,0.5001133733385359,0.03532918518430961,0.3532809474727401,1.0010667036131053,6.533645583072939
22,24,male,333,15,325,change,catch,anti,3,1,1,0.15324611764481233,0,f,same,0.6536430045107409,0,0.5007576931111544,0.035313149350258755,0.35328415464027785,1.0010426498629386,6.075090995334904
22,24,male,334,165,215,change,valid,clock,5,0,1,0.09890388666826766,0,f,same,0.6268144144178223,0.13251501060069246,0.5001781581049727,0.035320846551258,0.3533175091724843,1.0010346319468226,4.567630324016136
22,24,male,335,45,95,change,valid,clock,2,1,2,0.5841305547728552,1,j,change,0.8726629777829658,0.15182959373688548,0.4991441675920214,0.035348748899195925,0.35325753515826364,1.0010673450469767,5.167171635048362
22,24,male,336,15,325,change,valid,anti,2,1,3,0.5132730193581665,1,j,change,0.8545389585742669,0.15030088385520604,0.49918874720788153,0.035356125383259496,0.3532963418729196,1.0010535542314756,5.072183057372968
22,24,male,337,165,115,change,valid,anti,3,1,2,1.1770426524290087,1,j,change,1.0310110560658359,0.14877612266561752,0.5006595538125111,0.03530769716780924,0.3533547123060998,1.00104329129681,5.874860207624806
22,24,male,338,45,355,change,catch,anti,4,2,1,0.09521115503775945,0,j,change,0.331545658667892,0,0.5002647516030265,0.0352955099351675,0.35331943347227934,1.001065100030246,5.69779189786459
22,24,male,339,45,45,same,valid,clock,5,0,2,1.9324047944573977,1,f,same,3.0352724183358077,0.13457747537528672,0.5004235063497617,0.03531699795166787,0.353288965390675,1.0010667036149243,8.665998934578965
22,24,male,340,165,165,same,valid,anti,3,0,3,0.670301348580324,1,j,change,1.2823804360268696,0.1323348455364086,0.5000052918258007,0.035320525832503336,0.35332456494143116,1.0010266140307067,5.709766175103141
22,24,male,341,135,185,change,catch,clock,5,0,1,0.11855580004885269,0,j,change,0.9596416568620043,0,0.49910728517352254,0.03535901183386159,0.3533072462396376,1.001049064196195,6.356104216238236
22,24,male,342,75,75,same,valid,clock,2,0,2,0.376260296206965,1,f,same,1.4770461482403334,0.13008096449289214,0.5005864304130228,0.03532180870024604,0.3533213577738934,1.001034311229887,5.522036281394321
22,24,male,343,15,15,same,catch,anti,3,1,1,0.1957349815602356,0,j,change,0.7869087949165987,0,0.4997025352968194,0.03532020511738665,0.35331237770697044,1.0010468191794644,6.274828200103002
22,24,male,344,135,85,change,catch,anti,5,2,1,0.10416203631939425,0,j,change,0.2688407407658815,0,0.4994533384524402,0.03534329671674641,0.353288003239868,1.0010278968984494,5.696455471537774
22,24,male,345,75,75,same,catch,anti,3,0,1,0.1381320242962829,0,j,change,0.20451620372841717,0,0.5007743703772576,0.03530064140250033,0.35332777210714994,1.0010291797643731,5.662789522955791
22,24,male,346,105,105,same,catch,anti,2,1,1,0.15080738815777295,0,j,change,0.34453564557225036,0,0.5000386463580071,0.0353054521510785,0.353309811973304,1.00105323351454,5.838364255230772
22,24,male,347,135,185,change,valid,clock,4,0,1,0.2513171031459933,0,j,change,0.9366886068928579,0.12789651991991519,0.5001335784891126,0.035372481932427036,0.35332616852429055,1.0010205204125668,4.99118253684901
22,24,male,348,75,25,change,catch,anti,4,0,1,0.1594074054119119,0,j,change,0.48339762098657957,0,0.49959060518267506,0.035322129417181714,0.3532735709904955,1.0010727972294262,5.932245077559855
22,24,male,349,165,165,same,valid,anti,5,1,2,0.45918639956107654,1,f,same,0.9127817455773766,0.14732850601007402,0.5002724488022068,0.03527049403601268,0.3533425250716391,1.001067024330041,5.073301075652125
22,24,male,350,45,95,change,valid,clock,2,0,2,0.4962814506779978,1,j,change,0.6218875650774862,0.1299552944917023,0.5002618651542434,0.03532180870024604,0.35328832395680365,1.0010586856969894,4.838476506061852
22,24,male,351,165,165,same,valid,anti,5,0,1,0.2479139786610176,0,j,change,1.1395688349366537,0.1278253348106389,0.499355199153797,0.03535227678366937,0.3532777403070213,1.0010718350786192,5.061377792359053
22,24,male,352,105,105,same,valid,clock,4,0,1,0.5824038162718352,0,j,change,0.8895041303494509,0.1298359286028484,0.4992204981572286,0.03537119906832231,0.353288965388856,1.0010625342965795,5.155177473374351
22,24,male,353,165,165,same,valid,anti,1,0,2,0.2545935445505165,1,f,same,0.8017932551374543,0.13183973998026943,0.500004008958058,0.035319884400450974,0.3533146227237012,1.0010445741627336,4.719669905583942
22,24,male,354,165,165,same,valid,anti,5,2,3,0.2618221773645928,1,f,same,0.8447288773604669,0.3176766451829454,0.5004058669346705,0.0353221294190007,0.3532985868896503,1.0010368769635534,4.744531219681448
22,24,male,355,75,75,same,valid,anti,4,0,2,0.2881918219172803,1,f,same,0.9089469364662364,0.1297218619546664,0.49966693574788223,0.03532597801677184,0.35330917054125166,1.0010583649800537,4.837723784059563
22,24,male,356,15,15,same,valid,clock,2,2,2,0.5941712312669551,1,f,same,0.48696431097050663,0.3165618608695566,0.5000232519578276,0.035327260884514544,0.3532819096235471,1.0010695900637074,4.743780421978954
22,24,male,357,165,165,same,valid,clock,3,2,3,0.2799471587240987,1,f,same,0.7914312205484748,0.3154773063200953,0.49990875611001684,0.03530801788474491,0.353299869757393,1.0010574028310657,4.743581898366756
22,24,male,358,45,95,change,valid,clock,3,1,3,0.5382818631205737,1,j,change,0.7687065208428976,0.1459393357124415,0.5001800824047677,0.03532020511738665,0.35323925430930103,1.0010715143616835,4.978772405667769
22,24,male,359,135,185,change,valid,clock,3,2,1,0.1144916785251553,0,j,change,1.2011749775574572,0.31441443033353644,0.500664685278025,0.03535067320080998,0.35328287177435413,1.001066062179234,5.003635002631199
22,24,male,360,75,25,change,valid,anti,3,1,2,0.4464045577678917,1,f,same,0.8193730181719729,0.14458861847183777,0.49975545354755013,0.03535484251551679,0.35328415464027785,1.0010772872628877,4.931618717922902
22,24,male,361,165,115,change,valid,anti,3,0,1,0.09234683454269543,0,j,change,1.013260671767057,0.12769220492961683,0.5003798888847086,0.03523713950198726,0.35337267243994575,1.0010654207453626,4.802676508819786
22,24,male,362,45,45,same,valid,anti,4,0,2,0.49804539231263334,1,f,same,0.5271167540140596,0.12961275122483756,0.5002201719889854,0.035330788767169,0.35329537972211256,1.0010468191812834,4.70852147374535
22,24,male,363,75,75,same,valid,clock,3,1,2,1.3609297191142105,1,f,same,0.9127499946280295,0.14319143320255798,0.5001746302223182,0.035317639383720234,0.3532847960741492,1.001038159831296,5.95681197376507
22,24,male,364,135,135,same,valid,anti,5,1,2,0.25430618242353376,1,f,same,0.7529744064904662,0.14179468918086077,0.5000101025743788,0.03536414329937543,0.3532944175731245,1.0010192375484621,4.684534433263252
22,24,male,365,75,75,same,valid,anti,5,1,2,0.4569368929023767,1,f,same,0.49753898070412106,0.1403791812419804,0.5004889325500699,0.03529069918477035,0.3533264892412262,1.0010423291460029,4.63774251391078
22,24,male,366,75,75,same,valid,anti,3,2,2,0.4885717428751377,1,f,same,0.7557072331564996,0.31831556004604483,0.50045205013339,0.03534041026614432,0.3533014733402524,1.001055157814335,4.920715313610344
22,24,male,367,135,185,change,catch,clock,5,0,1,0.15738015540046035,0,j,change,0.2254830554174987,0,0.5002958611203212,0.03532084654943901,0.3532902482565987,1.001056119963323,5.638800237458781
22,24,male,368,15,65,change,valid,clock,1,2,1,0.8831026258048951,0,j,change,0.8776039386557386,0.31724802344416836,0.499995028891135,0.035331750917976024,0.35325208297399513,1.0010801737134898,5.462380096067136
22,24,male,369,45,45,same,valid,clock,1,2,2,0.7039858987300249,1,f,same,0.8240939674160472,0.3213054217622011,0.49922947822233255,0.03533880668328493,0.3533114155561634,1.0010545163804636,5.190166698899702
22,24,male,370,105,105,same,valid,clock,5,0,1,0.09153285565844271,0,j,change,0.24673245848316583,0.12762987215913615,0.49997482374237734,0.0353067350188212,0.35334060077184404,1.00101635109786,4.107242840560502
22,24,male,371,75,75,same,valid,anti,1,0,1,0.18048330076453567,0,f,same,1.2115639523453865,0.1295082820496576,0.500206701886782,0.035273059767860104,0.35333065855593304,1.0010586856969894,5.156329166902651
22,24,male,372,165,165,same,valid,anti,1,1,2,0.528147537361292,1,f,same,1.8282116486225277,0.13895599751060173,0.4997997124446556,0.03530256570047641,0.3533245649396122,1.0010227654311166,6.027733011078453
22,24,male,373,135,85,change,valid,anti,1,0,1,0.5171299579178594,0,j,change,0.9464829729931807,0.13140248714330338,0.49895237902819645,0.035311545767399366,0.353349580838767,1.0010288590474374,5.143143542834878
22,24,male,374,135,135,same,valid,anti,2,1,2,0.3091371855898615,1,f,same,0.8770170271673123,0.13760112000302815,0.4998025988952577,0.035358370399990235,0.3532892861076107,1.0010487434792594,4.84945688236985
22,24,male,375,45,45,same,valid,anti,5,0,3,0.2934332943023037,1,f,same,0.8843973589628149,0.13320282484379842,0.5001576322392793,0.03536638831610617,0.3532905689735344,1.0010096160476678,4.8377914552747825
22,24,male,376,165,165,same,valid,clock,2,0,3,0.4180329998198431,1,f,same,0.8222860875994229,0.13126769779064418,0.5002823910199368,0.03525862751848763,0.35336433380507515,1.0010278968984494,4.908561755757546
22,24,male,377,135,135,same,valid,anti,4,1,2,0.12788095767245977,1,j,change,2.0089066223827103,0.13630181029928468,0.5003609666018747,0.035341372418770334,0.3532716466925194,1.0010872294806177,5.862710819088534
22,24,male,378,135,185,change,valid,clock,2,1,2,0.25018882193398895,1,j,change,1.0207224655932805,0.13504051547326876,0.49967399151501013,0.035313149350258755,0.35327132597558375,1.001066062179234,4.991110054885212
22,24,male,379,135,85,change,valid,anti,3,0,3,0.16442886616641772,1,j,change,1.1110933647887578,0.12931213814883513,0.49948797585057036,0.03534457958448911,0.3532873618059966,1.0010509884978092,5.014566950723747
22,24,male,380,75,25,change,valid,anti,5,1,2,0.30922730697056977,1,j,change,1.7940909238150198,0.13380111574861614,0.4996945173807035,0.035325015865964815,0.3533056426567782,1.0010477813302714,5.791816080542048
22,24,male,381,135,135,same,catch,clock,2,0,1,0.10954205830239516,0,j,change,0.3603726342735172,0,0.499740700579423,0.035310904335347004,0.35327709887314995,1.001077928696759,5.791661174394903
22,24,male,382,45,95,change,catch,clock,3,1,1,0.07002367209679505,0,j,change,0.3448403263992077,0,0.5003394785853743,0.03530384856821911,0.3532649116405082,1.0010702314975788,5.744999466007357
22,24,male,383,105,155,change,catch,clock,2,0,1,0.151722392789452,0,j,change,0.31153774979429727,0,0.4998699493935419,0.03535355965141207,0.3532456686407386,1.0010535542296566,5.768407933632261
22,24,male,384,15,15,same,valid,anti,4,1,2,0.24375396285540774,1,f,same,0.9610605073667102,0.1325060435695538,0.49954313911621284,0.03531443221800146,0.3533027562061761,1.0010599685629131,4.872444569737127
22,24,male,385,45,95,change,valid,clock,5,2,2,0.17547114079388848,1,j,change,1.1651148791042942,0.3202466985936871,0.4997487184955389,0.03528620915130887,0.3533383557569323,1.0010291797643731,5.061013137516056
22,24,male,386,165,165,same,catch,clock,5,2,1,0.11182331590862304,0,j,change,0.23185120542984805,0,0.5004199784671073,0.03532918518430961,0.35330403907209984,1.001048102047207,5.591641097529646
22,24,male,387,135,135,same,valid,clock,2,0,2,0.44297064448437595,1,f,same,0.9310529737340403,0.12745779535802773,0.5003266499188612,0.03530288641741208,0.3533184713232913,1.001036235531501,5.085542830587656
22,24,male,388,15,325,change,valid,anti,4,1,2,0.36036012632393977,1,j,change,0.9689680973515351,0.13120004893700632,0.4994822029511852,0.03533367521777109,0.3532565730074566,1.0010673450451577,5.0730951755540445
22,24,male,389,45,45,same,valid,anti,3,0,2,0.4768553218273155,1,f,same,1.25631386871828,0.12569508279397817,0.49998187950768624,0.03532597801859083,0.35330660480576626,1.0010535542314756,5.367757776817598
22,24,male,390,15,65,change,valid,clock,3,0,2,0.26759700155525934,1,j,change,0.7515898726651358,0.12398470038284759,0.5000909231748665,0.03529486850129615,0.35330628409064957,1.0010734386614786,4.767580163930688
22,24,male,391,165,215,change,catch,clock,2,2,1,0.14442833377870556,0,j,change,0.35630594701615337,0,0.49992254692551796,0.035309300752487616,0.35333065855593304,1.0010208411313215,5.732811912186662
22,24,male,392,105,105,same,catch,clock,4,0,1,0.09864121972350404,0,j,change,0.38567461306229234,0,0.5005091376988275,0.035334637366759125,0.3532764574410976,1.0010378391125414,5.781069827393367
22,24,male,393,105,155,change,valid,clock,4,0,1,0.06873791900397919,0,j,change,0.2808413167731487,0.12223770051706177,0.4992583427228965,0.03532597801677184,0.3533146227237012,1.0010564406802587,4.166341941048813
22,24,male,394,15,325,change,catch,anti,5,1,1,0.19254224720316415,0,f,same,0.5811033102127112,0,0.499060139825815,0.03531507365005382,0.3533255270904192,1.0010545163804636,6.05020562748723
22,24,male,395,15,15,same,valid,anti,2,2,2,0.20733145457415958,1,f,same,0.928211744836517,0.31917358808592156,0.5002188891212427,0.035319884400450974,0.3533216784890101,1.001022444714181,4.8030081298456935
22,24,male,396,135,135,same,valid,anti,2,2,2,0.17010106102679856,1,f,same,0.8008509895880707,0.3181386336456497,0.4991653348897671,0.035330788767169,0.35332039562308637,1.0010429705816932,4.696003902481607
22,24,male,397,165,165,same,valid,anti,4,0,2,0.14464962827332783,1,f,same,1.1141520395813131,0.12382131511387384,0.49924358975658834,0.03532020511738665,0.3533213577720744,1.0010564406802587,4.943088187139438
22,24,male,398,165,115,change,valid,anti,2,1,1,0.236500955574229,0,j,change,1.1441380851993017,0.129866010125539,0.5001534629209345,0.03536478473324678,0.3532443857748149,1.0010824187302205,5.096737766343722
22,24,male,399,135,185,change,valid,clock,3,1,2,0.1388449774331093,1,j,change,1.6730540596799983,0.1321209881555659,0.5006265199972404,0.03532084654943901,0.3532947382918792,1.001058044263118,5.603822878450956
22,24,male,400,45,45,same,valid,anti,2,0,2,0.1801048551042186,1,f,same,0.879839975214054,0.12210469324269208,0.5002323592198081,0.03531347006719443,0.3533075669565733,1.0010368769635534,4.7205961352992745
22,24,male,401,15,65,change,valid,clock,4,0,2,0.2192925824328995,1,j,change,1.0474541992552986,0.12036417686987977,0.5103208224973059,0.03527049403601268,0.35331494343881786,1.001073117946362,4.90747356412794
22,24,male,402,15,15,same,catch,clock,2,2,1,0.06388932452864537,0,j,change,0.6278557814148371,0,0.4994623185175442,0.03531796010065591,0.35332328207368846,1.0010509884978092,5.93250614092176
22,24,male,403,105,105,same,catch,clock,4,1,1,0.16442148968417314,0,j,change,0.7421854980257194,0,0.49993088555856957,0.03533046805023332,0.3532732502735598,1.001075042246157,6.145404595292348
22,24,male,404,105,105,same,valid,clock,3,2,2,0.43811339065905486,1,f,same,0.9393813439764926,0.31714086245731044,0.4995238961182622,0.035367991898965556,0.3533069255245209,1.001034311229887,5.037484401143956
22,24,male,405,135,85,change,valid,anti,2,0,3,0.5703702064474783,1,j,change,2.450541161257206,0.11863801430462614,0.49972562689799815,0.035313790784130106,0.35330243548924045,1.0010628550135152,6.687211775946707
22,24,male,406,135,135,same,catch,clock,1,1,1,0.20809636381090968,0,j,change,0.3807894568890333,0,0.49961946968142,0.035301924268424045,0.3532905689735344,1.0010638171625033,5.826780610881542
22,24,male,407,105,55,change,valid,anti,1,1,2,1.139934131211703,1,j,change,0.8216962896603945,0.13084414036712746,0.50033979930231,0.03534842818407924,0.3532751745751739,1.0010577235461824,5.685991769769316
22,24,male,408,75,75,same,valid,anti,5,0,3,0.3725197777948779,1,f,same,0.9530441944352788,0.11701343068185706,0.4997628300297947,0.03527498406765517,0.35332039562308637,1.001076966547771,4.979102743827752
22,24,male,409,105,105,same,valid,clock,5,1,3,0.31668204502966546,1,f,same,0.9019691040812177,0.12953936649690387,0.4998247283456294,0.0353221294190007,0.3533168677404319,1.001024369013976,4.884621539908039
22,24,male,410,15,15,same,valid,clock,4,1,2,0.6615563673967699,1,f,same,1.071798197379394,0.1282754618664324,0.5004562194499158,0.03536189828446368,0.3532241806242382,1.0010817772963492,5.415864313761631
22,24,male,411,15,65,change,valid,clock,1,1,2,1.2178198515284748,1,j,change,0.9967921919596847,0.12706836908442054,0.4992243467568187,0.035313149350258755,0.35332039562308637,1.0010564406802587,5.9322479640104575
22,24,male,412,75,75,same,catch,anti,4,0,1,0.3699675146090158,0,j,change,0.5309082663752633,0,0.4999770687591081,0.035360615416720975,0.35327292955844314,1.0010692693467718,6.18050607164696
22,24,male,413,165,215,change,valid,clock,2,2,2,0.6002677342676179,1,j,change,0.8683762788987224,0.31617272271501523,0.5003054826192965,0.035367991900784546,0.35326298734253214,1.001038159829477,5.261962009828494
22,24,male,414,135,135,same,valid,clock,1,1,1,0.17505228483423707,0,j,change,0.5168890997065319,0.12590277841629233,0.49980291961219336,0.03533335450083541,0.35329377613925317,1.0010445741645526,4.472117053885086
22,24,male,415,165,115,change,valid,anti,4,1,2,0.6324298424278822,1,j,change,2.601391204729225,0.1280164381046875,0.49984108489479695,0.03545618898169778,0.3532921725563938,1.0010339905147703,6.9581631530545565
22,24,male,416,75,125,change,valid,clock,5,2,2,0.23268923806426756,1,j,change,1.0590933275871066,0.31522725544090513,0.49955853351639234,0.03532854375043826,0.3533001904743287,1.0010609307137202,5.002586579868876
22,24,male,417,75,25,change,valid,anti,2,0,1,0.2429585855370533,0,j,change,0.7390104030855582,0.11545771698090959,0.4998766844437341,0.035336882383489865,0.35332231992288143,1.0010445741645526,4.743689017730503
22,24,male,418,75,25,change,valid,anti,1,1,1,0.35750414446192735,0,j,change,1.3236836104479153,0.1268514748541974,0.5000777737914177,0.03531796010065591,0.35328575822313724,1.0010654207471816,5.4268292956712685
22,24,male,419,75,75,same,catch,anti,3,0,1,0.20260633601537847,0,f,same,0.5835253624336474,0,0.5001223534054589,0.035356125383259496,0.353268118808046,1.0010330283639632,6.003779645845498
22,24,male,420,135,135,same,valid,clock,4,0,2,0.6746746409662592,1,f,same,0.9737711500620208,0.1169745496603867,0.5002971439862449,0.03531892224964395,0.3532957004408672,1.001046177747412,5.391709217748939
22,24,male,421,165,165,same,catch,anti,3,2,1,0.1941599420406419,0,j,change,0.29724886041367427,0,0.49952453755213355,0.03532020511920564,0.3533043597908545,1.0010307833472325,5.732200305514198
22,24,male,422,165,165,same,valid,anti,4,2,3,0.442190661564382,1,f,same,0.8160221705020376,0.314297980592843,0.5000835466908029,0.0352983963839506,0.3533168677404319,1.0010301419133611,4.955353033676147
22,24,male,423,105,105,same,valid,anti,4,2,2,0.2859618789771048,1,f,same,1.0610327012327616,0.31330130833991093,0.5002730902360781,0.0352955099351675,0.35330083190638106,1.0010477813302714,5.062468229007209
22,24,male,424,135,135,same,valid,clock,3,1,3,0.4827318132010987,1,f,same,0.7694679021951742,0.12894544031962235,0.49904506614257116,0.0353166772347322,0.3532902482565987,1.0010708729314501,4.978176834827536
22,24,male,425,15,15,same,valid,anti,3,0,4,0.31264742944040336,1,f,same,0.8848293643040961,0.11544690863749775,0.5000514750245202,0.035358370399990235,0.35328960682454635,1.001053233512721,4.8846083905245905
22,24,male,426,15,15,same,catch,clock,2,1,1,0.14037351303704781,0,j,change,0.3025567211461748,0,0.5004802731982636,0.03531571508392517,0.3533072462396376,1.0010609307137202,5.721607354929802
22,24,male,427,105,55,change,valid,anti,2,1,2,0.37532155854205485,1,j,change,1.0182593616391387,0.1277726088814812,0.500298106135233,0.03531122505046369,0.35326747737417463,1.0010436120137456,5.144886637886884
22,24,male,428,75,75,same,valid,clock,1,1,1,0.1770545189465338,0,j,change,0.2846838230834692,0.1266468947338849,0.4990216538280947,0.03529935853475763,0.35332231992288143,1.0010464984643477,4.16607157690305
22,24,male,429,105,55,change,catch,anti,5,1,1,0.18712694638998073,0,j,change,0.7227340325607656,0,0.4990780999596609,0.03532854375043826,0.3533014733402524,1.001006408881949,6.167163937849182
22,24,male,430,105,55,change,catch,anti,1,0,1,0.12348810157163825,0,j,change,0.37149637093170895,0,0.5010575631895335,0.03531860153270827,0.3533239235075598,1.0010368769635534,5.828078230490064
22,24,male,431,45,95,change,valid,clock,3,2,2,1.5928518029249972,1,j,change,0.8520383307732118,0.31230750956714415,0.5004174127334409,0.03531571508392517,0.35327741959008563,1.0010814565812325,6.192850776631531
22,24,male,432,15,65,change,valid,clock,2,1,2,0.5650780608320929,1,j,change,0.9636589537512918,0.12867471198960967,0.4999799552078912,0.03538178271628567,0.35326138375785376,1.001038159831296,5.261819611630926
22,24,male,433,15,15,same,valid,anti,2,1,2,0.44707132770599856,1,f,same,1.0169697599467327,0.12754268863288684,0.4995200475186721,0.03532533658290049,0.3532751745733549,1.001059006413925,5.120051622554456
22,24,male,434,15,65,change,catch,clock,3,2,1,0.1221051713309862,0,j,change,0.315612454965958,0,0.5001390306733811,0.03533431664982345,0.3532584973072517,1.0010317454962205,5.720754248613957
22,24,male,435,135,85,change,valid,anti,3,1,2,0.08963549589316244,1,j,change,1.527005144615032,0.12645361721990866,0.5007798225597071,0.03533495808551379,0.35332456494143116,1.001025331162964,5.344850589333873
22,24,male,436,45,45,same,valid,anti,2,2,2,0.24790339501123526,1,f,same,0.9010791153486934,0.3113094777287364,0.4997275511977932,0.03532918518430961,0.35328960682454635,1.0010763251138997,4.826113199511383
22,24,male,437,165,165,same,valid,anti,2,0,3,0.32509444303832424,1,f,same,0.9417222548818245,0.11395635426113915,0.4997718100948987,0.035347145318155526,0.35331366057289415,1.0010413669970148,4.943589467280617
22,24,male,438,75,75,same,valid,clock,1,0,2,0.44110856355291617,1,f,same,2.336663334421246,0.11242925139385516,0.5001265227238036,0.0353349580836948,0.35328832395680365,1.0010493849131308,6.463688620042376
22,24,male,439,75,25,change,valid,anti,4,0,1,0.13040852567610273,0,j,change,0.305953431299713,0.11088310352506764,0.4996941966655868,0.03532533658471948,0.35329377613925317,1.0010487434810784,4.189715129841716
22,24,male,440,45,355,change,valid,anti,4,2,3,0.8586813349629665,1,j,change,1.0420504442390666,0.3103002367586611,0.5002204927041021,0.035335278800630476,0.35330403907391883,1.001035273378875,5.626711464368782
22,24,male,441,135,185,change,catch,clock,3,1,1,0.19239856613967277,0,f,same,0.4319495371582889,0,0.5006807211120758,0.03532661945064319,0.35326843952498166,1.0010747215292213,5.874836474593394
22,24,male,442,45,45,same,valid,clock,4,0,2,0.5542692679355241,1,f,same,0.8641251795615972,0.11231024942281374,0.5002618651524244,0.03536895404977258,0.35329088969047007,1.0010525920806685,5.14476476555501
22,24,male,443,105,55,change,catch,anti,5,0,1,0.22191796901643102,0,j,change,0.2793294584353134,0,0.4994478862681717,0.03534073098489898,0.3533014733402524,1.0010622135796439,5.744439174000945
22,24,male,444,105,105,same,catch,anti,4,1,1,0.12901565321772068,0,j,change,0.3520949372632458,0,0.49950529455054493,0.03532180870024604,0.35329698330679093,1.0010218032803095,5.779400817891656
22,24,male,445,75,75,same,valid,clock,5,2,3,0.2698907671128836,1,f,same,0.9280863446219882,0.3092699329388594,0.5005347950318537,0.03534522101836046,0.3532944175749435,1.0010699107788241,4.885993565781973
22,24,male,446,105,155,change,valid,clock,5,2,1,0.24609647734359896,0,j,change,2.8417904713151074,0.3082710033463882,0.4989603969443124,0.035318280817591585,0.3533059633737139,1.0010545163786446,6.839036477349509
22,24,male,447,15,15,same,valid,anti,5,1,3,0.2881498080350866,1,j,change,1.206885016983506,0.125395106767971,0.4993914401366055,0.03532245013411739,0.35326138375785376,1.0010756836800283,5.238077277961565
22,24,male,448,75,25,change,catch,anti,1,0,1,0.2881186985196109,0,f,same,1.0277275588941848,0,0.49977341367957706,0.035367350466913194,0.3533059633737139,1.0010622135796439,6.556816720370989
22,24,male,449,45,355,change,valid,anti,2,1,3,0.5823492944382451,1,j,change,1.0721990932051995,0.12435568658424044,0.5006197849470482,0.03532918518430961,0.3532806267576234,1.0010612514306558,5.415856616562451
22,24,male,450,15,15,same,valid,anti,3,1,3,0.2718404036932043,1,f,same,0.9919323724025162,0.1232727554761745,0.4992371754233318,0.03530384856821911,0.35333643145531823,1.001045215596605,4.955105761129744
22,24,male,451,75,25,change,valid,anti,4,1,1,0.14105888454105298,0,j,change,0.9067753639574221,0.12218581990403173,0.5120465988475189,0.03532180870206503,0.3533482979728433,1.0010397634141555,4.7438852963277895
22,24,male,452,75,25,change,valid,anti,2,2,2,0.200621741318173,1,j,change,1.0839998627343448,0.3119404251282457,0.49964159913179174,0.035348748899195925,0.3532886446737393,1.0010327076488466,4.932153031877533
22,24,male,453,45,45,same,catch,clock,3,1,1,0.2728468125733343,0,f,same,1.092952347598839,0,0.4990457075764425,0.0353449002996058,0.3532944175731245,1.0010404048480268,6.533099402602602
22,24,male,454,135,135,same,valid,clock,1,2,3,0.29371199708111817,1,f,same,0.9493809687373869,0.3109917806740497,0.5001653294384596,0.035328543752257247,0.35330403907209984,1.0010497056300665,4.932012878696696
22,24,male,455,45,45,same,catch,clock,3,2,1,0.11230920164962299,0,j,change,0.31026835325064894,0,0.5004501258335949,0.03532694016757887,0.35327709887314995,1.0010801737134898,5.674809021247711
22,24,male,456,135,185,change,valid,clock,2,2,3,0.20508643795074022,1,j,change,0.9820892573716264,0.31002996786985476,0.4994802786513901,0.035351635349798016,0.3533030769231118,1.00105708211413,4.884377474529174
22,24,male,457,45,45,same,valid,clock,5,2,3,0.25251626274075534,1,f,same,1.129638164256903,0.3090542189889482,0.49990426607655536,0.03535003176693863,0.35329698330679093,1.001024369013976,5.038410630859289
22,24,male,458,45,45,same,valid,anti,2,1,3,0.18405223576337448,1,f,same,0.8282347402218875,0.12399019184130998,0.4992272332074208,0.035362860433451715,0.35327453313948354,1.0010715143635025,4.6842191687865125
22,24,male,459,15,15,same,valid,clock,1,2,3,0.21034234258513607,1,f,same,0.9777839569178468,0.3081160434464681,0.4994831651019922,0.03532918518249062,0.3532973040237266,1.0010032017144113,4.825277091176758
22,24,male,460,45,355,change,catch,anti,4,2,2,0.20989109424226626,1,j,change,1.3418079503735498,0,0.5002743731038208,0.03524162953544874,0.353400254070948,1.0010311040623492,6.769573097260945
22,24,male,461,165,165,same,valid,clock,2,2,2,0.22936212342574436,1,f,same,0.8046521234500688,0.30720954382022936,0.5004446736511454,0.03535355964959308,0.3532793438898807,1.0010622135814629,4.697024422894174
22,24,male,462,165,215,change,valid,clock,1,1,3,0.1526377181398857,1,j,change,0.7994956409802398,0.12293269764773927,0.4995424976841605,0.03532886446737393,0.3532479136574693,1.0010830601622729,4.649119616731696
22,24,male,463,45,45,same,valid,anti,3,1,3,0.20355084657967382,1,f,same,0.9461481447979168,0.12186742684948235,0.4992916972551029,0.03535484251733578,0.353269080957034,1.0010891537804127,4.825048420198073
22,24,male,464,75,75,same,valid,clock,5,0,3,0.32987696988129755,1,f,same,1.72605505357933,0.110785004191608,0.500603107679126,0.035329505901245284,0.35326972239090537,1.0010862673298107,5.709846674986693
22,24,male,465,45,95,change,valid,clock,1,1,2,0.3360677635828324,1,j,change,1.628505553369905,0.12078312107494805,0.5003362714178365,0.035304810719026136,0.35332360278880515,1.000984600148513,5.70975238428764
22,24,male,466,15,15,same,valid,clock,5,0,3,0.1611424825459835,1,f,same,0.8971945951543603,0.10923769542233801,0.4999982360586728,0.03535067319899099,0.3533033976400475,1.0010041638652183,4.7556725957547314
22,24,male,467,135,135,same,valid,anti,3,2,3,0.19274429869983578,1,f,same,0.7918317956573446,0.3063285396451446,0.49993377200917166,0.03534457958448911,0.3533155848726892,1.0010317454980395,4.672758358918145
22,24,male,468,105,105,same,valid,anti,2,2,3,0.22428998943905754,1,f,same,1.1411570238396962,0.30546729684663076,0.5003330642521178,0.035336882383489865,0.35329409685800783,1.001033349080899,5.049717176014383
22,24,male,469,105,105,same,valid,anti,4,0,2,0.22819054546562256,1,f,same,1.0552751957420696,0.10777199278068816,0.5001874588888313,0.035356125383259496,0.3532905689735344,1.0010195582635788,4.932312748775075
22,24,male,470,45,45,same,valid,clock,3,0,3,0.19549412334890803,1,f,same,0.8889579498754756,0.1063774485014016,0.5001961182369996,0.03534041026796331,0.3532524036909308,1.0010355940976297,4.755792223069875
22,24,male,471,15,15,same,valid,anti,2,0,3,0.25768813960894477,1,f,same,0.8252507924116799,0.10502912360594407,0.49992415050837735,0.03533848596816824,0.35329537972393155,1.0010368769635534,4.743665605414208
22,24,male,472,45,355,change,valid,anti,4,0,3,0.14103002004048903,1,j,change,1.042042105606015,0.10370428428027088,0.4995729657657648,0.035339127402039594,0.35331077412411105,1.0010205204143858,4.896240463089271
22,24,male,473,165,215,change,valid,clock,4,0,3,0.12167637315542379,1,j,change,1.0323708947053092,0.10233988839579364,0.5002278691881656,0.03533046805023332,0.3533001904743287,1.001034311231706,4.932722945384739
22,24,male,474,105,55,change,valid,anti,2,2,3,0.322436022637703,1,j,change,1.5907950469809293,0.3046204447285549,0.4997589814302046,0.03536253971651604,0.3533005111894454,1.00105323351454,5.6977678441126045
22,24,male,475,15,15,same,valid,anti,1,1,2,0.23491565312178864,1,f,same,1.5977812179989996,0.11966921230474509,0.4994591113518254,0.035364464016311103,0.353318792040227,1.0010487434792594,5.520486578488999
22,24,male,476,105,105,same,catch,clock,1,0,1,0.12061768746025336,0,j,change,0.38608224393829005,0,0.5001765545202943,0.03535259750060504,0.3532661945082509,1.0010416877121315,5.779851424800654
22,24,male,477,15,15,same,valid,clock,2,0,3,0.2029758016069536,1,f,same,1.0685913514917047,0.10095410228170604,0.5006175399303174,0.03529101990170602,0.35333482787245885,1.001045215598424,4.932780674384048
22,24,male,478,105,105,same,valid,anti,3,2,3,0.22858759269001894,1,f,same,1.1229592397994566,0.3037125071307834,0.5000469849910587,0.03529935853475763,0.3533168677404319,1.000964715714872,5.0146897852064285
22,24,male,479,15,325,change,catch,anti,1,1,1,0.09778971699051908,0,j,change,0.6606022353316803,0,0.500054682190239,0.03535003176693863,0.3533056426567782,1.0010407255631435,6.038812488835902
22,24,male,480,75,125,change,valid,clock,1,0,1,0.06382550191301561,0,j,change,0.27062584969826275,0.0995352514147035,0.5008760375585553,0.03528364341764245,0.35333322428959946,1.0010429705798742,4.11999838358679
