subject,age,gender,ntrial,memory_ori,test_ori,type,trial_type,which_change,trial,quest,pas,pas_rt,vis,test_key,test,test_rt,contrast,fix_dur,target_dur,mask_dur,retention_dur,trial_dur
23,23,male,1,15,65,change,valid,clock,1,2,2,1.4114560265193177,1,j,change,1.236400775233733,0.2,0.5040424601839959,0.035309828939944055,0.3532653822433076,1.0010785666705715,6.337357566178866
23,23,male,2,135,135,same,valid,clock,2,2,3,1.4801536356163751,1,f,same,1.7064653384977646,0.11397766455402543,0.500296822317523,0.035309508224258934,0.35331445173505927,1.0010490608323153,6.851650418678219
23,23,male,3,105,155,change,valid,clock,1,1,3,1.5752663463144927,1,j,change,1.4829672738561612,0.2,0.500393999153971,0.03532105398699059,0.35327436228101305,1.0010686244859244,6.722647687143194
23,23,male,4,15,15,same,valid,anti,4,2,4,1.388510426625544,1,f,same,1.042309447609,0.056143516159837065,0.5001508967048949,0.03533612762169014,0.35324742216789673,1.0010743973672334,6.074755606670465
23,23,male,5,135,135,same,catch,clock,5,1,2,2.310905902995728,1,j,change,1.1547985312506626,0,0.49997674811675097,0.035314639674311366,0.35332760107587546,1.0010497022636855,8.653794210248975
23,23,male,6,15,65,change,valid,clock,3,1,3,1.794316726570969,1,f,same,1.0618731011629734,0.09338226537841544,0.5002888044266456,0.03533163760289426,0.35330707527543836,1.0010394393633533,6.499045389921207
23,23,male,7,135,185,change,valid,clock,3,2,4,1.9249624842889261,1,j,change,0.8182132483137821,0.012132942594039436,0.4993821413348769,0.03538263138830189,0.3532092570076202,1.0010917160115014,6.3683271504704635
23,23,male,8,45,45,same,valid,anti,2,0,4,0.9617232307481345,1,f,same,0.5516424328590119,0.2,0.4994209479262963,0.035350880540704566,0.35327051369336004,1.001050022979257,5.1320870537682595
23,23,male,9,165,165,same,valid,anti,4,1,2,1.489850472750959,1,f,same,2.046811974367074,0.020575447070561637,0.4990675192998424,0.03535761556906891,0.35326313723385283,1.0010760009455453,7.157045464968746
23,23,male,10,75,75,same,valid,anti,2,2,1,1.372135007169618,0,j,change,1.6978605380903673,0,0.5001371059327084,0.03532778901535494,0.3532750037123833,1.0010683037702393,8.241782704254888
23,23,male,11,165,215,change,valid,clock,3,0,1,0.8682349447262823,0,j,change,1.3683688435025942,0.0723357464867447,0.4999235093217749,0.03533035474026747,0.3533109238629777,1.00101634783789,5.885686365127754
23,23,male,12,135,185,change,catch,clock,3,0,2,1.1522873278519228,1,f,same,2.1877940761899026,0,0.4997002912417656,0.03532041255573404,0.3533279217915606,1.0010275728850502,8.47712608004997
23,23,male,13,165,215,change,valid,clock,1,2,4,1.1353702196934137,1,j,change,0.8858791152225649,0.06687427427035039,0.49995814661008353,0.03537108562557023,0.35330001953161627,1.001049060832429,5.661984966775435
23,23,male,14,105,55,change,valid,anti,1,1,3,1.6489469141863538,1,f,same,1.287006174096632,0,0.4997785458560884,0.03528769956130873,0.35330932028500683,1.0010910745802448,8.112161312265812
23,23,male,15,135,135,same,catch,clock,1,0,1,1.0447401513843033,0,j,change,1.0250405144022352,0,0.49972145847368665,0.035311432518028596,0.35330803742226635,1.0010487401168575,7.263797908100059
23,23,male,16,165,165,same,valid,anti,2,2,1,0.8759170462603834,0,j,change,1.501065898402885,0.04923946963133985,0.49972466562985574,0.03526717376075794,0.35338917847730045,1.00105387156691,6.0384586150153154
23,23,male,17,135,185,change,valid,clock,2,0,4,1.0123552490085785,1,j,change,0.8479647546350861,0.15406686854268764,0.4999504494348912,0.03531303609634051,0.35329745380659006,1.0010355907759276,5.462108891295657
23,23,male,18,45,45,same,valid,clock,1,0,4,0.9500273730791378,1,f,same,0.9271860057658614,0.09412333650666384,0.49932152608062097,0.03529732103038441,0.35333016680101537,1.0010157064068608,5.520021154403139
23,23,male,19,105,105,same,valid,anti,4,1,2,1.3348681714430768,1,j,change,1.1779365605236762,0,0.5004000927510788,0.035380386378847106,0.35325864721494327,1.0009611847492579,7.688805452935412
23,23,male,20,135,85,change,valid,anti,4,2,2,1.0712309418745463,1,f,same,1.9143933006353109,0.09793394593435052,0.49969900837913883,0.03533676905294669,0.35330066096275914,1.001044250097948,6.6157756170807716
23,23,male,21,15,65,change,catch,clock,3,2,2,0.8683606652539311,1,f,same,1.7048992840664141,0,0.500414204238723,0.03531560182113935,0.3532977745221615,1.0010596444483326,7.75892158727288
23,23,male,22,105,105,same,valid,anti,1,1,1,0.8923476288050551,0,j,change,1.238737188613186,0,0.4998956070617169,0.03533163760289426,0.35329264307210906,1.0010307800414466,7.299418189771814
23,23,male,23,45,45,same,catch,clock,1,0,1,0.8194207426683988,0,j,change,1.3290561627593434,0,0.49932248822733527,0.0353271475839847,0.35329136020959595,1.001079849532971,7.32222588194395
23,23,male,24,135,85,change,catch,anti,3,1,1,0.9010502474802706,0,j,change,1.4445670290858743,0,0.499664691806629,0.03534831481579204,0.35326923083084694,1.0010468158229742,7.534346559539017
23,23,male,25,135,185,change,valid,clock,5,1,1,0.911807691210015,0,j,change,1.225055780466164,0,0.49987508126150715,0.03533676905294669,0.3532859080437447,1.0010477779699158,7.322355130343567
23,23,male,26,45,45,same,valid,anti,4,0,1,0.7399390704442794,0,j,change,1.3147163254197949,0.05063924580022716,0.4999347343689351,0.03531367752748338,0.35330354740358416,1.0010529094199683,5.733149841229533
23,23,male,27,45,95,change,catch,clock,5,0,1,1.328110693076269,0,j,change,0.8675906270214,0,0.49921953850957834,0.03529764174595584,0.35333209109467134,1.00101378211275,7.369151068929341
23,23,male,28,135,135,same,valid,anti,4,0,4,1.3559363020269757,1,f,same,0.8875240656991537,0.08384725221099756,0.5004465965175768,0.03532458185895848,0.35328045587812085,1.0010760009454316,5.88703754008543
23,23,male,29,105,105,same,catch,anti,3,2,2,1.032227431000365,1,j,change,0.9803131916432903,0,0.4990498799402303,0.035333561896550236,0.3533029059722139,1.0010468158229742,7.192231497674584
23,23,male,30,165,115,change,valid,anti,4,0,2,0.9256632479448399,1,j,change,0.943486057048176,0.05366849446467606,0.49987379839876667,0.03532939259343948,0.35330418883472703,1.0010320629039597,5.5093490210315395
23,23,male,31,105,55,change,valid,anti,2,1,1,2.293464745494475,0,j,change,1.945169172685155,0.024376229862598464,0.4998308225040091,0.03532426114338705,0.35331894175396883,1.0010436086665777,7.911763111737173
23,23,male,32,45,45,same,valid,anti,5,0,2,1.6348338227987824,1,f,same,1.5532655746728778,0.02888809706548473,0.49933820329329137,0.03532361971224418,0.3532737208497565,1.0010840188360817,6.8861902093856315
23,23,male,33,135,185,change,valid,clock,2,2,4,0.8462771489791976,1,j,change,1.0415070170977287,0.08565382003138157,0.5004575008490519,0.03532778901535494,0.35329136020959595,1.0010275728850502,5.521820369098805
23,23,male,34,165,165,same,valid,anti,5,1,1,1.4421004051600903,0,j,change,1.408846042705818,0.05383826758110674,0.4996274887935215,0.03534446622802534,0.3532727587030422,1.0010756802298602,6.533652851627039
23,23,male,35,45,95,change,valid,clock,5,0,4,0.9357782982635854,1,j,change,0.8028208222701778,0.008046988437494657,0.4998657805078892,0.03530469748989162,0.3532932845032519,1.0010946024522127,5.3677209979259715
23,23,male,36,15,325,change,catch,anti,3,1,2,1.1417348214110916,1,j,change,1.203263153269745,0,0.5001938725995387,0.03533933477797291,0.35326249580270996,1.0010487401166301,7.522826133320905
23,23,male,37,45,45,same,catch,anti,4,2,1,0.7414871647999917,0,j,change,1.1024987917039653,0,0.5008227959540363,0.03531239466497027,0.3532714758403017,1.0010699073484375,7.029015463945598
23,23,male,38,165,165,same,catch,clock,5,0,1,0.7610129739093736,0,j,change,1.797390144472729,0,0.5000764906783388,0.03536210558786479,0.353238442130305,1.0010811323957114,7.735482085305875
23,23,male,39,45,95,change,valid,clock,4,0,1,0.6358716585841648,0,j,change,0.7869582271096078,0,0.4993346754213235,0.03538006566327567,0.3532846251812316,1.0010288557475633,6.63938381547041
23,23,male,40,165,165,same,valid,anti,1,1,1,0.7539257998728317,0,j,change,1.7542474776516883,0.08097942610333973,0.4992743808825253,0.03534157978742769,0.3533016231097008,1.0010561165761374,6.168117851449097
23,23,male,41,45,45,same,catch,anti,3,1,3,0.994647897532559,1,j,change,0.718448236657423,0,0.49941645790750044,0.03531528110579529,0.35333850540746425,1.0010115371035226,6.851216490427987
23,23,male,42,45,95,change,valid,clock,1,2,4,0.9204006251388819,1,j,change,0.6172451361069307,0.07502296511927058,0.4997535300367417,0.035366274890975546,0.3532798144467506,1.0010448915293182,5.19137775266222
23,23,male,43,45,45,same,valid,anti,5,1,3,0.8587895486473371,1,f,same,1.2917973449236797,0.10701665110034508,0.49942511722974814,0.03534222121879793,0.3532971330910186,1.0010974888928104,5.803443972743025
23,23,male,44,135,85,change,valid,anti,2,1,4,0.761873453950102,1,j,change,0.728013901098393,0.09269644591731738,0.49923878144727496,0.03531592253693816,0.3533343361041261,1.0010541922824814,5.108261730895947
23,23,male,45,165,165,same,catch,anti,3,2,4,0.7250565822555473,1,f,same,0.8397002335129855,0,0.49980741026297437,0.03531399824305481,0.3533429954263738,1.0010404015101813,6.686690974773455
23,23,male,46,45,95,change,valid,clock,2,2,4,0.8330995850901672,1,j,change,0.7373255587588119,0.06552697607062341,0.4998693083798571,0.03533003402480972,0.3532637786649957,1.0010561165761374,5.2264457620153735
23,23,male,47,75,25,change,catch,anti,4,0,3,1.0933782805602732,1,j,change,0.6404537228188474,0,0.49950497542204175,0.0353624263036636,0.3532990573846746,1.0010064056534702,6.839210500742865
23,23,male,48,75,75,same,valid,anti,1,2,3,0.864534527763908,1,f,same,1.0497760282385116,0.056842908136465586,0.5006540995314026,0.03529475530513082,0.3533231110570796,1.0010561165761374,5.603912666567567
23,23,male,49,45,355,change,catch,anti,2,2,2,1.0300042302392285,1,f,same,1.8858762287818536,0,0.5002131155374627,0.03531528110579529,0.35329136020959595,1.001070228064009,8.064756976126091
23,23,male,50,45,45,same,valid,clock,1,1,4,0.9858740799872976,1,f,same,0.7817109986538071,0.07989718966658861,0.5007320334300402,0.03531560182113935,0.3532955295127067,1.0011016581959211,5.42709123429654
23,23,male,51,15,325,change,valid,anti,3,2,1,0.9721820882243719,0,j,change,1.350360660763954,0.048761166968905895,0.5035241837226749,0.035319771124477484,0.3532903980626543,1.001029817894505,5.983777882616096
23,23,male,52,105,155,change,valid,clock,5,2,1,0.9183961524388451,0,j,change,1.1576933105454827,0.07487250810469717,0.4997872051781087,0.03534510765939558,0.3532772487217244,1.0010436086665777,5.732369860812469
23,23,male,53,45,95,change,valid,clock,4,2,4,0.858400841301318,1,j,change,0.6227017918704405,0.09719196250850248,0.5005726377610245,0.03531784683082151,0.35330835813806516,1.001033025050674,5.073806609115309
23,23,male,54,75,25,change,valid,anti,4,0,3,1.020606941504866,1,j,change,0.8824699080539631,0.006837216016144093,0.5002416592287773,0.03534639052190869,0.3532894359157126,1.00104072222598,5.532696156896691
23,23,male,55,165,215,change,catch,clock,5,1,4,0.7999600388320687,1,f,same,0.8583530546720795,0,0.4999103599807313,0.03527422950469372,0.3533308082323856,1.0010756802298602,6.793218275531217
23,23,male,56,45,355,change,valid,anti,5,1,3,0.9411300800152276,1,j,change,0.8574714073995438,0.06872540692344498,0.4999966324858178,0.03533676905294669,0.3533099617161497,1.001055795860566,5.43905264450882
23,23,male,57,135,185,change,catch,clock,1,1,4,0.9093298422367297,1,f,same,0.8105673876461879,0,0.4996881040478911,0.035299245324040385,0.35332631821347604,1.001057078723079,6.874860608968447
23,23,male,58,45,45,same,valid,anti,4,1,3,0.9721365466045881,1,f,same,0.9803776554854267,0.05873290788773694,0.49991966073412186,0.03534125907185626,0.35325864721517064,1.0010641344672422,5.591365629611346
23,23,male,59,165,165,same,valid,clock,2,2,2,0.8056383090975032,1,f,same,0.8841039541991904,0.09113497565887656,0.4996832933134101,0.03530405605852138,0.3533003402471877,1.0010750387987173,5.297100698614713
23,23,male,60,15,15,same,valid,anti,2,0,1,0.7181528575601988,0,j,change,0.9328655588935817,0,0.49928817165459805,0.03532650615284183,0.35332279034150815,1.001050985126085,6.804162375758779
23,23,male,61,15,15,same,valid,clock,2,0,1,1.1267683057267277,0,j,change,0.7552750505367385,0.005795498540514449,0.4998875891708394,0.03534831481579204,0.3533029059724413,1.0010484194010587,5.520709089433922
23,23,male,62,45,355,change,catch,anti,1,1,3,0.9994621598850699,1,f,same,0.7395301580133946,0,0.4999273579094279,0.03533420332792048,0.3533077167066949,1.0010634930356446,6.887418550256143
23,23,male,63,105,55,change,valid,anti,4,1,2,0.8895522713562514,1,j,change,0.9588788038076927,0.04963776681277554,0.49942415508280646,0.035376858506879216,0.3532955295127067,1.0010182721316596,5.5084519794088465
23,23,male,64,165,115,change,valid,anti,3,0,1,0.9079607072037561,0,j,change,0.9456342103514999,0.018790001188505545,0.49965154246592647,0.035346069806337255,0.3532955295127067,1.0010564372919362,5.5440709782180875
23,23,male,65,45,45,same,valid,anti,2,2,4,0.995411842168096,1,f,same,0.8749956302494866,0.08530863626679061,0.49960664227751295,0.035330996171751394,0.3532881530531995,1.0010602858794755,5.509137027998804
23,23,male,66,135,135,same,valid,anti,2,1,4,1.1020382440563026,1,f,same,0.8712596138520894,0.04125629788263374,0.4998340296604056,0.03535152197196112,0.35329103949379714,1.0010371943540122,5.602787275415039
23,23,male,67,165,215,change,catch,clock,1,0,2,0.8038496780175137,1,f,same,1.0359454873225786,0,0.5006505716596621,0.03531175323360003,0.3532823801717768,1.0010689452014958,7.005791482883069
23,23,male,68,105,155,change,valid,clock,5,0,2,0.6268127248415567,1,f,same,1.614386597678731,0.031046599809361586,0.5000681520718899,0.035331958318465695,0.3533259974979046,1.0010253278755954,5.8979774710096535
23,23,male,69,45,45,same,valid,clock,3,2,4,0.9340303980688986,1,f,same,0.7358544361545682,0.08008732118037239,0.49940940216356466,0.03532297828087394,0.3532990573846746,1.0010554751449945,5.308109904115554
23,23,male,70,135,135,same,catch,clock,3,2,4,0.7882930455700716,1,f,same,0.7928112873942155,0,0.49991934001855043,0.035285775267539066,0.3533320910948987,1.0010327043351026,6.734255348013221
23,23,male,71,45,45,same,catch,anti,1,0,3,1.1096581267577221,1,f,same,0.8188893168660343,0,0.4994899017874559,0.03535729485338379,0.3533016231097008,1.0010519472730266,7.086475197296068
23,23,male,72,45,45,same,valid,clock,5,1,1,1.0414451189806186,0,j,change,1.0034804060387614,0.03342090489596389,0.5007060554639793,0.03529828317709871,0.35330932028500683,1.0010583615855921,5.697952583476763
23,23,male,73,75,25,change,catch,anti,1,2,1,0.7996665840289552,0,j,change,0.9215564842768345,0,0.49991966073412186,0.03529732103038441,0.3533343361041261,1.0010404015101813,6.8871882764324255
23,23,male,74,135,185,change,valid,clock,5,2,4,0.8344331206883453,1,j,change,1.054043470438046,0.07498897479122127,0.49970061195745075,0.03530052818655349,0.3533340153885547,1.001049060832429,5.508480843815505
23,23,male,75,75,75,same,catch,clock,3,0,2,0.794254187022716,1,j,change,0.9980882141173879,0,0.5002984258956076,0.035312715380541704,0.3532810973092637,1.0010766423768018,6.910523866534959
23,23,male,76,45,45,same,valid,anti,1,0,1,0.7761433752818903,0,j,change,1.0222057089306418,0.018780890764795943,0.5003195931274149,0.035334524043719284,0.35329969881581746,1.0010256485911668,5.450528170538746
23,23,male,77,105,105,same,valid,anti,2,1,2,0.9712439950005773,1,j,change,0.8829731108808119,0.045610904535888314,0.49967752043198743,0.03534703195327893,0.3532903980626543,1.0010301386100764,5.485191436764353
23,23,male,78,105,105,same,catch,clock,1,0,4,1.1717467488253988,1,f,same,0.8023381452437661,0,0.500274692938774,0.035349597678305145,0.35327917301560774,1.0010218000038549,7.122793676898937
23,23,male,79,135,135,same,catch,anti,5,0,2,0.9581469307354382,1,f,same,0.9486938374811871,0,0.5002211334283402,0.03533003402480972,0.3533029059722139,1.0010381565009538,7.087759663402494
23,23,male,80,135,135,same,valid,clock,5,0,4,0.8181721967127942,1,j,change,0.7351905547961906,0.0295273625433998,0.49959092721132947,0.03533067545595259,0.3533099617161497,1.001047457254117,5.214400003592118
23,23,male,81,135,135,same,valid,clock,5,1,3,0.7685735242189367,1,f,same,1.25004498036742,0.03874637708366724,0.49952165263471215,0.03531367752748338,0.3532923223565376,1.0010580408700207,5.673124062107263
23,23,male,82,15,65,change,catch,clock,4,1,4,0.7778598453444374,1,j,change,0.6604811311767662,0,0.5005232475537014,0.03528834099256528,0.3533352982510678,1.001050343694942,6.56972085232087
23,23,male,83,105,155,change,valid,clock,1,0,1,0.7071587256941712,0,j,change,1.3798155051256344,0.018741823951455655,0.5002628264603572,0.03534767338464917,0.3532714758403017,1.0010548337136242,5.744978154454657
23,23,male,84,135,135,same,catch,clock,2,1,3,0.6096242912585694,1,j,change,0.9268970409814301,0,0.49947482815264266,0.03531592253693816,0.35329969881604484,1.0010477779699158,6.71009551873658
23,23,male,85,165,165,same,valid,anti,3,1,2,0.9202518130855424,1,j,change,1.0807507439799338,0.03225005342184792,0.500252242844681,0.03532810973092637,0.35330579241281157,1.0010500229791433,5.6510293207852555
23,23,male,86,165,165,same,valid,anti,4,2,4,0.7670315234602185,1,f,same,0.7089454324802773,0.06997242636403248,0.49923397071302134,0.03535665342201355,0.35329488808156384,1.0010532301355397,5.132110466009408
23,23,male,87,105,155,change,valid,clock,2,0,2,0.8364709478139503,1,j,change,0.8586888439388076,0.02832081249829818,0.4989286494310363,0.0353213747027894,0.3532807765936923,1.0010763216612304,5.331084047700642
23,23,male,88,75,25,change,valid,anti,1,1,3,1.0982419331198798,1,f,same,1.0869953980513856,0.02599066906392103,0.5005508290980742,0.03532522329010135,0.3532833423187185,1.0010689452014958,5.815813012523449
23,23,male,89,75,75,same,catch,anti,2,1,1,1.2885468919930645,0,j,change,1.0687017784000545,0,0.49987347768319523,0.035331316887095454,0.3532810973094911,1.0010506644105135,7.511382678854261
23,23,male,90,135,135,same,valid,clock,1,0,1,0.8448560580136473,0,j,change,0.713408190500104,0.018691258695768792,0.5001159387011285,0.035319450408678676,0.35335871049210255,1.0010391186478955,5.214938485138191
23,23,male,91,165,165,same,valid,clock,5,0,2,0.7805118429059803,1,j,change,0.6927781574695473,0.027335370106588652,0.5001178629947844,0.035326185437270397,0.35330579241281157,1.0010006327720475,5.085716063395239
23,23,male,92,45,45,same,valid,clock,1,2,4,0.9914256675774595,1,f,same,0.4063633829982791,0.06538583277115498,0.49920735131536276,0.03528256811114261,0.35329360521882336,1.0010718316423208,5.037238292035454
23,23,male,93,105,105,same,catch,anti,5,0,4,1.0556252399355799,1,j,change,0.6077426526453564,0,0.5002365277787248,0.03533484475929072,0.35329360521905073,1.0010734352204054,6.839843593400474
23,23,male,94,15,15,same,valid,clock,1,1,2,0.8386826028124688,1,j,change,1.0502250301231015,0.02025948793594312,0.500375718362875,0.03530020747098206,0.35332054533205337,1.0010455329602337,5.544558786694324
23,23,male,95,15,15,same,valid,anti,5,2,3,1.1650428299690248,1,f,same,0.6449475902550148,0.06117551492317025,0.49982088031970306,0.03531303609611314,0.35333593968243804,1.001029817894505,5.4141359263405775
23,23,male,96,165,115,change,catch,anti,2,1,1,0.6577774983986728,0,j,change,0.9359646340458312,0,0.5008186266506982,0.0353419005032265,0.35331156529423424,1.0010564372919362,6.746784104178687
23,23,male,97,165,165,same,valid,clock,1,0,1,0.6350929610293861,0,j,change,0.768657230998997,0.018637566947352607,0.5002464699632583,0.035313356811911945,0.3533170174600855,1.0010096128096393,5.097003970780179
23,23,male,98,135,135,same,valid,clock,2,0,2,0.6318409045206863,1,j,change,0.8890192419758023,0.02651575699488759,0.49976218935876204,0.035328430446497805,0.35330707527555205,1.001031742188161,5.144176108802185
23,23,male,99,45,45,same,valid,clock,3,1,4,0.8092665650426625,1,f,same,0.44308885073792226,0.014707432077284699,0.4997676415243859,0.03532041255562035,0.3533128481569747,1.0010506644105135,4.9086614708594425
23,23,male,100,15,15,same,valid,clock,2,1,2,0.8009895360110022,1,j,change,0.916588599136503,0.009280139260895298,0.4994645652523104,0.03533516547486215,0.3532964916596484,1.0010679830547815,5.355401669068442
23,23,male,101,45,45,same,catch,anti,5,0,1,1.093192906924969,0,j,change,0.7008553806620057,0,0.5050703537847312,0.03536723703791722,0.35325479862740394,1.001069586632866,6.998076989070341
23,23,male,102,75,25,change,catch,anti,1,2,4,0.7406330990718288,1,f,same,0.4648484442245717,0,0.499947883709865,0.03537557564436611,0.35327436228089937,1.001063493035872,6.380486121512149
23,23,male,103,75,75,same,valid,anti,3,0,1,0.6378847906064493,0,j,change,0.6688476398696821,0.01858462324734761,0.4999443558378971,0.03533195831869307,0.3532903980626543,1.0010583615855921,4.9673354335932345
23,23,male,104,15,15,same,valid,anti,1,1,2,0.7045099352892521,1,j,change,0.9410033973406371,0.004255786422261404,0.5000174790018264,0.03533163760289426,0.3532698722622172,1.0010516265574552,5.273598336383884
23,23,male,105,135,85,change,valid,anti,2,0,3,0.9855726072930793,1,j,change,0.6893208429562492,0.02582358642755367,0.4995880407707318,0.03534029692491458,0.3532817387404066,1.0010349493445574,5.3201944691306835
23,23,male,106,165,165,same,valid,anti,1,0,1,0.7937990915409046,0,j,change,0.8449458583907017,0.018534176893642756,0.49958836148630326,0.03531111180245716,0.3533077167066949,1.0010480986854873,5.27295882941371
23,23,male,107,165,165,same,catch,anti,5,1,4,0.808922116453914,1,j,change,0.48976933169592485,0,0.5004235049921135,0.035345428374967014,0.3532772487217244,1.0010849809832507,6.4518177680949975
23,23,male,108,105,105,same,valid,anti,4,0,1,0.6506986629685798,0,j,change,0.4932394748345814,0.02523140330469828,0.5000181204331966,0.035368199184858895,0.3532496671773515,1.0010378357853824,4.778637901467846
23,23,male,109,105,155,change,valid,clock,3,2,2,1.1106436858949564,1,f,same,1.2227466279157397,0.056924693888009636,0.4999138878526992,0.03529892460846895,0.3533218281945665,1.001016668553575,5.957141166513338
23,23,male,110,135,135,same,valid,clock,5,2,4,0.7676472974737862,1,f,same,0.3754059859008976,0.05301914960220028,0.49950144755007386,0.035302773196008275,0.35329136020959595,1.0010782459548864,4.754597378406288
23,23,male,111,45,45,same,valid,clock,4,1,2,0.7448408881641626,1,j,change,0.7066513535642116,0,0.5004321643141338,0.0352860959831105,0.3533224696259367,1.0010554751449945,6.592736688938203
23,23,male,112,45,355,change,valid,anti,5,0,2,0.6718646118201832,1,j,change,0.6791400459330816,0.032009916661039,0.5004263914329385,0.03532522329032872,0.3532685893994767,1.0010609273108457,5.003651026755051
23,23,male,113,75,125,change,valid,clock,1,1,2,1.2328767518688437,1,f,same,1.4442296362410616,0,0.4990787443471163,0.035322978280646566,0.35329360521882336,1.0010856224143936,7.828189428763835
23,23,male,114,75,75,same,valid,clock,3,1,2,1.0712681448878811,1,f,same,0.9903224058034539,0,0.49980099595018146,0.03534382479688247,0.3532794937311792,1.0010464951074027,7.216281642205104
23,23,male,115,15,325,change,valid,anti,3,1,1,0.7782610606000162,0,j,change,0.642996356349613,0,0.5005222854067597,0.035330354740381154,0.35327211727167196,1.0010458536760325,6.5927520832885875
23,23,male,116,105,105,same,valid,anti,2,0,1,0.9062532171788007,0,j,change,0.8748234059551123,0.025212067384590614,0.5000312697741265,0.03532650615284183,0.3532804558778935,1.001064775898385,5.450162875433762
23,23,male,117,135,85,change,catch,anti,5,1,2,0.7013303605133387,1,j,change,0.7224408255603976,0,0.49968329331318273,0.0353380519154598,0.3533122067256045,1.001035911491499,6.580216271379413
23,23,male,118,75,75,same,valid,clock,5,2,1,0.6784290193766083,0,j,change,0.8622677096766438,0.04903334845727125,0.5002666750478966,0.03531367752748338,0.35330964100057827,1.001045532960461,5.179471826254257
23,23,male,119,75,75,same,valid,clock,3,0,1,0.6481791209632775,0,j,change,0.5913778168053341,0.031514445870904406,0.5004000927510788,0.03533516547463478,0.3532865494748876,1.0010452122448896,4.885740566069671
23,23,male,120,105,155,change,catch,clock,5,2,2,0.991867293002997,1,j,change,1.2472486607716746,0,0.49913005884809536,0.035372368488197026,0.3532618543713397,1.0010596444483326,7.369204628439547
23,23,male,121,165,115,change,valid,anti,2,0,2,0.8247285863785692,1,f,same,1.126222768436719,0.03743186139526808,0.5003946405852275,0.03532875116206924,0.3532932845034793,1.0010150649754905,5.580063610738534
23,23,male,122,105,105,same,valid,clock,3,0,1,0.6767731645684307,0,j,change,0.639335066694457,0.0312684549170526,0.4998077309785458,0.03532394042758824,0.3533122067256045,1.001034628628986,4.944215043679833
23,23,male,123,15,65,change,valid,clock,1,1,3,0.9580301902451538,1,j,change,0.6720958477910699,0,0.4990697643090698,0.03530598035240473,0.35329585022827814,1.0010686244859244,6.780227047424432
23,23,male,124,135,135,same,valid,anti,2,0,4,0.8652904545085676,1,f,same,0.8127014294616401,0.03681724734474817,0.5000918850284961,0.03536306773503384,0.35330964100057827,1.001007047084613,5.320746420733258
23,23,male,125,105,55,change,valid,anti,3,1,1,0.6588858916231857,0,j,change,0.7858716425485,0,0.49965571176880985,0.035383914250814996,0.35325351576489084,1.0010176307005167,6.604223440014948
23,23,male,126,105,55,change,valid,anti,4,2,1,0.6391660495562519,0,j,change,0.40647338845997183,0.06230167951036775,0.4994122886043897,0.035351201256389686,0.35328270088734826,1.0010609273108457,4.708127286902936
23,23,male,127,45,355,change,valid,anti,1,2,2,0.8801995620949583,1,f,same,1.248802207293238,0.07441577448226733,0.49967303041307787,0.03537461349765181,0.3532663443902493,1.001058040870248,5.74464781735378
23,23,male,128,15,325,change,catch,anti,2,0,1,1.0567435753443988,0,j,change,0.7751555711352012,0,0.49928688879208494,0.03533644833737526,0.35327885229980893,1.0010708694953792,6.9921463156026675
23,23,male,129,165,115,change,valid,anti,3,1,2,0.8446338020805797,1,j,change,1.0961236063703836,0,0.4999898974574535,0.0353370897687455,0.3532955295127067,1.0010211585722573,7.169366397404474
23,23,male,130,45,355,change,valid,anti,3,0,2,0.6915783602898955,1,j,change,0.7127167275973534,0.031050992171760855,0.49988406129887153,0.03536274701923503,0.3532759658592113,1.0010638137514434,5.050147737655834
23,23,male,131,105,105,same,valid,anti,5,1,1,0.6758613700267233,0,j,change,0.9538801299668194,0,0.4991621304113778,0.035374292781853,0.3532855873281733,1.001029817894505,6.745199768956354
23,23,male,132,105,105,same,valid,anti,2,2,2,1.035639845325477,1,j,change,0.9184561262618445,0.07100940121536084,0.4999369793783899,0.035333882612349043,0.35331894175374146,1.0010301386100764,5.626755637459155
23,23,male,133,45,45,same,valid,clock,4,0,1,0.7087372880348539,0,j,change,1.0110066397758146,0.02549664162589088,0.4996871419009494,0.03532650615284183,0.3533099617161497,1.0010218000036275,5.36718283709547
23,23,male,134,165,165,same,catch,clock,4,1,2,0.6523400855733144,1,j,change,0.5519131168525746,0,0.49993633794701964,0.03531880897753581,0.3532878323374007,1.0010554751449945,6.369177046895402
23,23,male,135,165,165,same,valid,anti,3,0,1,0.7380183045238482,0,j,change,0.6802647956544661,0.03068948878925104,0.49993024435002553,0.03535697413781236,0.3532907187782257,1.0010692659172946,5.096907756090786
23,23,male,136,165,165,same,valid,anti,2,0,1,1.0001988436918055,0,j,change,0.9559092977706314,0.03563767757832864,0.4995928515052128,0.035343183365739606,0.3532762865750101,1.0010625308889303,5.591176407388502
23,23,male,137,105,55,change,valid,anti,5,1,1,0.9297530136846035,0,j,change,0.6424206717902052,0.00040503527670357475,0.4995777778703996,0.0353332411809788,0.3532785315842375,1.0010772838079447,5.22613851643996
23,23,male,138,75,75,same,valid,anti,3,2,2,0.7008258748242042,1,j,change,1.0803354172367108,0.06777748430449254,0.49970285696690553,0.035352484118902794,0.35328270088734826,1.0010298178942776,5.43833167576804
23,23,male,139,135,185,change,valid,clock,5,0,1,0.7101522854036375,0,j,change,0.45365129936340054,0.04075395228922926,0.4995742499984317,0.03531945040890605,0.3532929637876805,1.0010567580075076,4.825247183555575
23,23,male,140,135,185,change,valid,clock,1,2,3,0.7395683231736712,1,j,change,0.6047131727850683,0.06477973625388314,0.5005107396439143,0.03531463967419768,0.35330675455975324,1.0010436086665777,5.026661411206533
23,23,male,141,75,75,same,valid,clock,2,0,3,0.8182408298580413,1,j,change,0.5946571341428353,0.04563414843016722,0.5002599400197596,0.03536595417540411,0.3532955295127067,1.0010487401166301,5.0497381837938065
23,23,male,142,15,65,change,valid,clock,4,2,4,1.0175162049590654,1,j,change,0.7192795315754665,0.06171293241732373,0.5004456343706352,0.035303414627378515,0.3533218281945665,1.00101378211275,5.368629264595938
23,23,male,143,15,325,change,valid,anti,5,2,4,0.6849356981192614,1,j,change,0.48043875181315343,0.058762022012353976,0.4997997130878957,0.03533997620934315,0.35331445173505927,1.0010471365385456,4.825727294856506
23,23,male,144,165,215,change,valid,clock,5,2,4,1.0509803154366182,1,f,same,1.4774698872074623,0.0560008093003182,0.5002275477409057,0.03533516547486215,0.35390200277288386,1.0004371354064006,6.145641137809207
23,23,male,145,165,165,same,valid,clock,5,1,1,0.6526515004520661,0,j,change,0.668508322730986,0.006561587465497676,0.49989656920865855,0.0353528048347016,0.35330675455975324,1.0010330250509014,4.967806244141002
23,23,male,146,105,155,change,valid,clock,3,1,1,0.7222362089873968,0,j,change,0.5417942179462898,0.012818867327261924,0.4996605225035182,0.035287058130052174,0.3533247146351641,1.0010529094199683,4.908680393082022
23,23,male,147,45,45,same,valid,anti,1,2,1,0.6577367675135974,0,j,change,0.5972475543028395,0.05339476541323934,0.49970830913275677,0.035313356811911945,0.3532952087971353,1.0010426465198634,4.8607917763381465
23,23,male,148,15,325,change,valid,anti,1,1,2,0.6472025418638623,1,f,same,0.9067884915684772,0.018601193791118936,0.5002143983999758,0.03529796246152728,0.3532968123752198,1.0010631723200731,5.179442320416001
23,23,male,149,75,75,same,catch,anti,4,0,2,0.7496631684073236,1,j,change,0.7136397471863347,0,0.5004020170447347,0.03533580690623239,0.35326730653719096,1.0010362322070705,6.61682980936348
23,23,male,150,105,105,same,valid,clock,2,1,1,0.7423463619782069,0,j,change,0.46805078981037695,0.015263790279485795,0.49990747354013365,0.03532650615284183,0.35330932028500683,1.0010487401168575,4.884742178307079
23,23,male,151,165,165,same,valid,clock,5,2,4,0.918697625132836,1,f,same,0.4842549471188704,0.06261898293084045,0.5099968666083896,0.035326506152614456,0.35327821086866606,1.0010198757099715,5.04857623105886
23,23,male,152,105,155,change,valid,clock,4,2,2,0.689632578550345,1,j,change,0.5943845258557303,0.060021911548895246,0.4989382709002257,0.03533837263125861,0.3532798144467506,1.001055154429423,4.943011718628668
23,23,male,153,135,185,change,catch,clock,1,2,2,0.6743902474224797,1,j,change,1.172219804382621,0,0.49926187297296565,0.03534991839387658,0.35332150747899504,1.001042646519636,7.004111253686915
23,23,male,154,75,125,change,valid,clock,3,2,2,0.6845742516020437,1,j,change,0.5089567858135524,0.05754173902277829,0.5003070852176279,0.03534093835628482,0.3533077167066949,1.0010529094199683,4.873926685047991
23,23,male,155,105,105,same,valid,clock,3,1,1,0.6648595409853897,0,j,change,0.4538985711155874,0.021152164156870767,0.4993298646868425,0.03533292046540737,0.35330450955052584,1.0010448915290908,4.755242658258112
23,23,male,156,105,55,change,catch,anti,2,2,2,0.6110803402279998,1,j,change,0.5293219077320828,0,0.4990691228781543,0.035318488261964376,0.3533086788536366,1.0010051227907297,6.297155540987887
23,23,male,157,15,15,same,valid,anti,1,2,3,0.7690052074597133,1,f,same,0.6308130109200647,0.05521108329306226,0.5005732791921673,0.035312715380541704,0.35331060314751994,1.0010420050884932,5.06201614033489
23,23,male,158,165,115,change,valid,anti,2,1,2,0.6640846920183776,1,f,same,0.8247866359079126,0.02665439163305494,0.49982761534784004,0.0353175261150227,0.35331669674451405,1.0010182721316596,5.12021993395183
23,23,male,159,75,75,same,valid,anti,5,2,1,0.6874241307084503,0,j,change,0.51225245964838,0.05298497883752726,0.5001624424676265,0.03533099617152402,0.35329232235631025,1.001053230135767,4.849605215092879
23,23,male,160,15,15,same,valid,clock,5,0,1,0.5897941230143715,0,j,change,0.5033936524603178,0.04058504002552599,0.5004244671388278,0.03534895624716228,0.35327340013418507,1.0010583615855921,4.732783904693633
23,23,male,161,105,105,same,valid,anti,1,0,2,0.8005713228269542,1,j,change,0.9170340731493525,0.04521611191756095,0.4995675149702947,0.035296358883442736,0.35332728036019034,1.0010445708135194,5.320625831655661
23,23,male,162,15,15,same,valid,clock,4,0,4,0.7290488504429504,1,f,same,0.39448696242857295,0.04043283341396273,0.4997936194909016,0.0353585777158969,0.35330354740358416,1.0010288557475633,4.766750255850866
23,23,male,163,75,75,same,catch,clock,1,2,1,1.1553033376553685,0,j,change,1.044941560801135,0,0.49994852514100785,0.035285133836168825,0.3533218281945665,1.001084660267452,7.370313983811002
23,23,male,164,105,55,change,catch,anti,5,2,2,0.7276325702116537,1,f,same,0.6715025238715953,0,0.49979650593149927,0.035377179222678024,0.3532990573846746,1.001041363657123,6.59286657876919
23,23,male,165,75,125,change,valid,clock,5,1,3,1.0113966299843469,1,f,same,0.44627419839548566,0.02356116108429887,0.49989432419920377,0.03536210558809216,0.3532942466501936,1.001033025050674,5.1088547340993955
23,23,male,166,105,55,change,valid,anti,4,0,2,0.8310765108833493,1,f,same,0.97838921856669,0.03579657174694953,0.49938374491307513,0.0353066217835476,0.3533388261230357,1.001039439363467,5.438152075014159
23,23,male,167,105,105,same,valid,clock,1,2,4,0.7363335853087847,1,f,same,0.5491453409479163,0.061001702371040495,0.49924102645672974,0.035345428374967014,0.35330932028477946,1.0010493815480004,4.919117441895196
23,23,male,168,75,25,change,valid,anti,5,1,3,0.8259110649137256,1,j,change,0.627718105070926,0.02041430445320519,0.500670456028729,0.035314960389996486,0.3533208660476248,1.001024365728881,5.097805439144622
23,23,male,169,135,135,same,valid,anti,5,1,3,0.9514654619733847,1,j,change,0.5724886282255284,0.01739586477992555,0.4999180571560373,0.035323940427815614,0.3533317703790999,1.001045532960461,5.15566799132921
23,23,male,170,75,75,same,valid,clock,4,2,2,2.0158446350849317,1,j,change,0.905632632430752,0.058750875952395615,0.5001374266482799,0.035346069806337255,0.3532605715088266,1.0010776045235161,6.545608168242325
23,23,male,171,45,45,same,valid,anti,3,2,4,0.7657547545290981,1,f,same,0.549078952812124,0.05662920804473617,0.4999834831451153,0.03531047037108692,0.3532920016407388,1.0010740766517756,4.955498461045863
23,23,male,172,15,325,change,valid,anti,5,0,4,0.7764778816861053,1,f,same,0.47606066272032876,0.031441627988275406,0.500301633052004,0.035373330634911326,0.35327211727167196,1.0010740766517756,4.885802464186554
23,23,male,173,105,55,change,valid,anti,2,2,3,0.8286191877107285,1,j,change,0.7751135573873853,0.05461278503570871,0.4997121577202961,0.03537397206628157,0.3532615336557683,1.0010426465198634,5.226740178965429
23,23,male,174,105,105,same,valid,clock,5,2,3,0.7840297726738754,1,f,same,0.7489938348830947,0.05250856694329761,0.49944083229547687,0.03531399824305481,0.3533176588916831,1.0010634930354172,5.155591981724228
23,23,male,175,15,15,same,valid,clock,1,2,4,0.6726186142709594,1,f,same,0.43347828610876604,0.05044770644872751,0.49987989199598815,0.03532105398699059,0.353306113128383,1.001049060832429,4.719739758507785
23,23,male,176,165,215,change,valid,clock,5,1,4,0.8200547974729488,1,f,same,0.799949134500821,0.014566289261025128,0.5000113854048323,0.035327468299783504,0.35329841595330436,1.0010477779696885,5.297352139670238
23,23,male,177,165,115,change,catch,anti,3,1,1,0.6743168035427516,0,j,change,0.8624797027096065,0,0.4998657805081166,0.035289303139506956,0.3533134895878902,1.0010727937892625,6.674650668515369
23,23,male,178,105,105,same,valid,clock,2,0,1,0.6528323840684607,0,j,change,0.6421352348775144,0.02714149795761317,0.5007163183640841,0.03529796246175465,0.35327083440915885,1.0010968474612127,4.955961895134351
23,23,male,179,15,65,change,catch,clock,5,0,1,0.5965657128690509,0,j,change,0.4881789028768253,0,0.4999844452918296,0.03528898242393552,0.35333369467298326,1.0010461743918313,6.286192518537973
23,23,male,180,135,185,change,catch,clock,3,2,3,0.6792968758768438,1,j,change,1.0980738781286163,0,0.5007448620553987,0.035336448337147885,0.35326826868413264,1.0010644551825862,6.935147129900088
23,23,male,181,75,75,same,valid,anti,3,1,2,0.6924244081274082,1,f,same,0.8262853400565291,0.011703641192271241,0.49971921346423187,0.03535729485338379,0.35330418883449966,1.0010545129985076,5.1795019735236565
23,23,male,182,15,15,same,valid,clock,3,1,3,1.2924695648880515,1,f,same,0.4842475706591358,0.00889139886062626,0.4992150484904414,0.03531014965574286,0.3533462025825429,1.0010266107383359,5.414204559485825
23,23,male,183,15,15,same,valid,anti,1,0,4,0.9825732747021902,1,f,same,0.6815470167516651,0.031144362511612927,0.4994748281524153,0.03534510765939558,0.3532746829964708,1.00105387156691,5.285074183129382
23,23,male,184,75,125,change,valid,clock,2,2,4,0.7903793007562854,1,j,change,0.7225408888375568,0.048436069452088226,0.5000357597932634,0.03532586472147159,0.35331413101948783,1.0010522679890528,5.167801305120065
23,23,male,185,15,65,change,valid,clock,5,2,4,0.7518238296202071,1,j,change,0.6389370585952747,0.04653453226504067,0.4998859855932096,0.03532073327141916,0.3532794937309518,1.0010782459548864,5.025623896136949
23,23,male,186,165,115,change,valid,anti,5,0,4,0.7307175338760317,1,j,change,0.48552979175610744,0.0270395300373501,0.5007034897389531,0.03532361971201681,0.35331605531291643,1.0010545129980528,4.850705269710488
23,23,male,187,165,115,change,valid,anti,4,1,4,0.6891143020889103,1,j,change,0.45378856565412207,0.006245765041464069,0.49941357146644805,0.03533548619088833,0.3533006609632139,1.0010593237325338,4.766327552647908
23,23,male,188,165,165,same,catch,anti,4,1,4,0.7300767440437994,1,j,change,0.5789132037666604,0,0.5004825166683986,0.03530469748966425,0.3532980952377329,1.0010702280642363,6.498819606116285
23,23,male,189,45,45,same,valid,anti,1,1,4,0.6380201326028327,1,f,same,0.8796280468386612,0.0037268319677931094,0.5004081106417289,0.0353322790342645,0.35329103949379714,1.0010355907757003,5.1798653443347575
23,23,male,190,75,75,same,valid,anti,5,0,1,0.6349980292025066,0,j,change,0.8680136509401564,0.023207509436851598,0.5001092036727641,0.03531688468365246,0.3532679479685612,1.0011026203428628,5.120749756175883
23,23,male,191,15,325,change,valid,anti,4,1,3,0.9413908218243705,1,j,change,0.5002724479295466,0.0011453212447604666,0.4994587923711151,0.03531688468365246,0.3533186210383974,1.001019234278374,5.073155235666491
23,23,male,192,105,105,same,valid,anti,3,0,3,0.9054934418463745,1,f,same,0.779505116537166,0.02666464171355179,0.4996986876635674,0.03534478694382415,0.35330066096275914,1.0010464951074027,5.308618238392228
23,23,male,193,15,65,change,valid,clock,3,2,4,0.7903344005680992,1,f,same,0.6673938359094791,0.0447176524319029,0.5002458285321154,0.03535408769675996,0.35326506152796355,1.0010782459548864,5.1087604437034315
23,23,male,194,135,135,same,valid,anti,4,2,1,0.870655385601367,0,j,change,0.7753874485370034,0.042814156511486595,0.5003943198694287,0.03534767338487654,0.35331605531291643,1.0010384772167527,5.309780832558317
23,23,male,195,165,115,change,valid,anti,1,1,1,0.6786413331251424,0,j,change,0.5700165521338931,0,0.49926508012913473,0.03537653779130778,0.3532499878933777,1.0010766423770292,6.356286844212718
23,23,male,196,135,135,same,valid,anti,2,2,3,0.9244086083922411,1,j,change,0.8779128596388546,0.049221304385745984,0.5001897032962006,0.0353380519154598,0.35328238017154945,1.0010570787235338,5.41564906269241
23,23,male,197,15,15,same,valid,clock,3,2,3,0.7494598346966086,1,f,same,0.7019602460145506,0.04745784517091803,0.4990328820117611,0.03536627489120292,0.3532499878933777,1.0010695866326387,5.072154602894443
23,23,male,198,165,165,same,valid,clock,2,0,1,0.7174020622655917,0,j,change,0.9289493003107054,0.022993361808128415,0.4997086298481008,0.03531111180245716,0.3533160553133712,1.0010452122446623,5.272991542408363
23,23,male,199,75,25,change,valid,anti,3,1,1,0.8007772222626954,0,j,change,0.4600088453371427,0.002900409404596488,0.5005601298512374,0.03529379315841652,0.35332824250690464,1.0010134613971786,4.896777994545573
23,23,male,200,75,125,change,valid,clock,5,0,1,0.599076916267677,0,j,change,0.45921475343220663,0.02631931336577842,0.5007384477426058,0.03530950822414525,0.3533259974979046,1.0010201964250882,4.685793291719165
23,23,male,201,75,75,same,valid,clock,5,0,1,1.095641891491141,0,j,change,0.9188746601616913,0.029842330577091708,0.5010235639397251,0.03531014965574286,0.3532955295127067,1.0010836981205102,5.710064088604668
23,23,male,202,105,155,change,valid,clock,5,1,4,0.7426670776103492,1,f,same,0.4751831847511312,0.006897188322622011,0.5001175422789856,0.035326506152614456,0.3533237524884498,1.001042646519636,4.885377515974142
23,23,male,203,165,215,change,valid,clock,5,0,1,0.6758552764295018,0,j,change,0.5216766884955177,0.033294613191164724,0.4992028612964532,0.03532714758421207,0.3533089995694354,1.0010487401168575,4.861033595924255
23,23,male,204,135,85,change,catch,anti,5,0,3,0.849595272908573,1,j,change,0.4978545727794881,0,0.4995030511281584,0.03537429278230775,0.3532907187782257,1.0010237242972835,6.5095552411830795
23,23,male,205,45,95,change,catch,clock,5,2,2,0.693786166701102,1,j,change,0.4427581929212465,0,0.5006871332416267,0.03534478694382415,0.3532586472147159,1.0010657380453267,6.311099615237708
23,23,male,206,165,165,same,valid,clock,3,0,2,0.8298587536282866,1,f,same,0.6784254915046404,0.03656751805526562,0.49932569538350435,0.035405081482622336,0.35326345794965164,1.0010660587608982,5.167338512463175
23,23,male,207,135,85,change,valid,anti,2,2,3,0.8819651016492571,1,j,change,0.4322993354448954,0.04577836304125604,0.49921697278432475,0.0353428626499408,0.3533083581378378,1.0010535508508838,4.966183423043276
23,23,male,208,45,45,same,valid,clock,2,2,4,0.7585460292675634,1,j,change,0.4938279880193477,0.04416039635186178,0.5007009240139269,0.03532490257475729,0.3532961709443043,1.0010461743913766,4.8857902769923385
23,23,male,209,15,15,same,valid,anti,5,1,4,0.7213574481552314,1,j,change,0.46564862972672927,0.00460523073367064,0.5000190825799109,0.03533484475929072,0.35328462518100423,1.0010708694953792,4.813704948674513
23,23,male,210,75,25,change,valid,anti,2,1,4,0.7907170143171243,1,f,same,0.5598383208357518,0.0022699012810214747,0.5005784106424471,0.03534350408153841,0.3532923223560829,1.0010612480264172,5.003558339937626
23,23,male,211,135,85,change,catch,anti,2,1,2,0.7435432727170337,1,j,change,0.653854504787887,0,0.4999305650653696,0.035335486190433585,0.35331926246954026,1.0010525887046242,6.568732086027467
23,23,male,212,165,165,same,valid,anti,1,2,2,0.6733578638031759,1,j,change,0.4521551609400376,0.0424525531810471,0.5007455034865416,0.03532810973092637,0.3533497304542834,1.0010096128098667,4.803058793268974
23,23,male,213,135,135,same,valid,anti,3,0,3,0.7580120377406274,1,f,same,0.5068211404200156,0.03308686458447013,0.49978496016910867,0.03534574909053845,0.3533122067256045,1.0010519472730266,4.885119660606051
23,23,male,214,105,105,same,catch,anti,1,2,1,0.5156914933704684,0,j,change,0.4687047289844486,0,0.49921119990312945,0.035356332706214744,0.3533086788534092,1.00104809868526,6.144174505223873
23,23,male,215,135,185,change,valid,clock,1,1,1,0.6371163559520028,0,j,change,0.4253000374919793,0,0.5005537155384445,0.03532714758421207,0.35329745380659006,1.0010564372919362,6.227970123414707
23,23,male,216,45,45,same,valid,anti,4,2,3,0.8773775852487233,1,f,same,0.7240075214231183,0.04076671343809024,0.5003260074399805,0.035372047772852966,0.35329681237499244,1.0010487401168575,5.226812339983098
23,23,male,217,105,155,change,valid,clock,2,2,1,0.6483686639016923,0,j,change,0.5158140067424029,0.03909401367601148,0.4996297338025215,0.035335806906459766,0.353277248721497,1.001053230135767,4.8020838177476435
23,23,male,218,165,165,same,valid,anti,4,0,2,0.6659130918365008,1,f,same,0.7613182951909039,0.029573064399222193,0.49964769387815977,0.03530116961792373,0.3532955295127067,1.001100375333408,5.049188156484888
23,23,male,219,15,15,same,valid,clock,4,2,4,0.7501448832867936,1,f,same,0.6458699684126259,0.04491869324837777,0.5005537155388993,0.035293472442845086,0.3533352982508404,1.0010259693067383,5.0387873485378805
23,23,male,220,75,25,change,valid,anti,4,2,3,0.8993822054781049,1,j,change,1.0997842545943968,0.043341259801053245,0.49936001195646895,0.035334524043719284,0.3532968123754472,1.0010650966141839,5.650107263343216
23,23,male,221,15,65,change,catch,clock,1,1,2,0.6648306765782763,1,f,same,0.7307880913153895,0,0.4998587247641808,0.03531367752748338,0.3533340153885547,1.0010189135628025,6.580750904337492
23,23,male,222,15,325,change,valid,anti,2,2,3,0.836327587926462,1,j,change,0.5401633789570042,0.041790596272270275,0.5003523061218402,0.03533741048431693,0.3532647408123921,1.0010567580075076,5.038954441381975
23,23,male,223,75,75,same,valid,clock,5,1,2,0.7074351825685881,1,j,change,0.5309126572669811,0.003808844999522193,0.4991717518801124,0.03531271538076908,0.3533122067256045,1.0010468158229742,4.9082451819690505
23,23,male,224,165,115,change,catch,anti,1,1,2,0.6884446478497921,1,j,change,0.5994717172106903,0,0.49963454453745726,0.035336448337147885,0.3533125274411759,1.001039439363467,6.4278000158433315
23,23,male,225,105,105,same,valid,clock,1,1,1,0.5936414277362019,0,j,change,0.45781771613883393,0.00159381551940449,0.49979971308766835,0.035432021595624974,0.35324870503018246,1.0010599651641314,4.695808920192121
23,23,male,226,75,25,change,valid,anti,2,2,1,0.6891713894715394,0,j,change,0.42350627496171,0.04024895031012929,0.5000784149719948,0.03542592799885824,0.35323074495499895,1.001052267988598,4.755085507598324
23,23,male,227,135,135,same,valid,clock,4,2,4,0.6780871365131134,1,f,same,0.4764057527404475,0.04556154909848889,0.5001893825806292,0.03530982894017143,0.35330643384395444,1.00105964444856,4.779321987910862
23,23,male,228,105,55,change,catch,anti,1,1,4,0.6864542866369447,1,f,same,0.453332828740713,0,0.4999587880411127,0.03535440841278614,0.3533041888349544,1.0010375150695836,6.286738376543781
23,23,male,229,135,185,change,valid,clock,4,2,4,0.800549834879348,1,j,change,0.5729873410332402,0.04420436920803253,0.5001897032966554,0.03534606980610988,0.35331797960725453,1.0010352700605836,5.050084877392237
23,23,male,230,45,355,change,valid,anti,3,1,1,0.6668922366611696,0,j,change,0.7108338061216273,0.005225478073250106,0.49956526996083994,0.035323298996445374,0.3533083581378378,1.001029176463362,5.049180780025381
23,23,male,231,75,125,change,valid,clock,3,1,4,0.7639850456716886,1,j,change,0.5053035140490465,0.009005922348461787,0.49988406129887153,0.035272946642180614,0.3533032266882401,1.001081132395484,4.908169172364069
23,23,male,232,105,55,change,valid,anti,2,0,1,0.5853169327911019,0,j,change,0.6318803525432486,0.026257182098683524,0.5002881629952753,0.035342541934369365,0.3532785315842375,1.0010468158229742,4.8496356830778495
23,23,male,233,15,15,same,valid,anti,2,1,2,0.7699420178205401,1,j,change,0.8595034616441808,0.006919096320438273,0.5003728319225047,0.03529475530513082,0.3533478061608548,1.0010471365385456,5.273699361808212
23,23,male,234,15,65,change,catch,clock,4,1,2,0.7552644669208348,1,j,change,1.042537476423604,0,0.5003468539562164,0.03530309391180708,0.3533279217913332,1.0010208378566858,6.958649812846488
23,23,male,235,165,115,change,catch,anti,5,2,1,1.268546423747921,0,j,change,0.5850196293999943,0,0.4997612272122751,0.03531624325296434,0.35329809523818767,1.0010269314534526,7.051932840863628
23,23,male,236,75,25,change,valid,anti,4,1,2,0.9781958270405084,1,j,change,1.1065927267468396,0.004930361497554492,0.5002368484942963,0.03532971330878354,0.35331669674451405,1.0010631723203005,5.769079613486156
23,23,male,237,45,355,change,catch,anti,2,0,3,0.9224910496286611,1,f,same,0.9960972114736251,0,0.498897860730267,0.03530245248020947,0.35331926246954026,1.0010573994386505,7.086056663395993
23,23,male,238,45,95,change,catch,clock,1,0,2,0.8738776155560117,1,j,change,0.7010330571224586,0,0.49998284171397245,0.035338372631031234,0.35327468299692555,1.0010654173297553,6.781473348370582
23,23,male,239,165,165,same,valid,anti,3,2,1,0.8521035898661466,0,j,change,0.8614014567547201,0.0427657483220624,0.49992062288083616,0.03536499202846244,0.35331284815674735,1.0010493815480004,5.4029487236643945
23,23,male,240,75,125,change,valid,clock,4,1,1,0.8599806865045139,0,j,change,0.7173873093465772,0.0029026848350877654,0.49968874547903397,0.03535697413781236,0.3532952087971353,1.001048419401286,5.250090842702775
23,23,male,241,75,125,change,valid,clock,1,0,1,0.9655926648488276,0,j,change,0.8368458643876693,0.029401111916225492,0.4995675149702947,0.03534927696273371,0.3533057924132663,1.001038477216298,5.461478364363302
23,23,male,242,75,75,same,valid,anti,5,1,3,1.9444844448107688,1,j,change,1.1233446663545692,0.006193280571654497,0.5000277419021586,0.03531399824305481,0.3533051509816687,1.0010349493445574,6.73347440544967
23,23,male,243,105,105,same,valid,clock,5,1,1,0.6534314808695854,0,j,change,0.6404283862839293,0.004311279258245565,0.5005062496247774,0.03533484475883597,0.35328783233762806,1.0010458536762599,4.932562803337078
23,23,male,244,135,85,change,catch,anti,4,0,1,1.2410110624441586,0,j,change,0.7403268156435843,0,0.5001897032966554,0.03532810973092637,0.3532134263109583,1.0011455962376203,7.193779592030751
23,23,male,245,135,85,change,valid,anti,3,2,2,0.730883985289438,1,j,change,0.6093882445534291,0.047645793721008634,0.4992172934998962,0.03535697413781236,0.3533070752750973,1.0010410429417789,5.025103374665832
23,23,male,246,15,65,change,catch,clock,3,1,2,0.7045080109951414,1,j,change,0.8100183224842112,0,0.5001111279661927,0.035317526115250075,0.35329007734708284,1.0010317421879336,6.68731348381516
23,23,male,247,15,15,same,valid,anti,3,1,1,0.6529943454625027,0,j,change,0.87319224625071,0.007474684772608098,0.5001037515071403,0.03533067545595259,0.35330611312883775,1.001041684372467,5.190990328178941
23,23,male,248,15,325,change,valid,anti,3,0,2,0.6492961735098106,1,j,change,0.5192854327433452,0.03251591672898252,0.499718572033089,0.03533292046540737,0.3533041888349544,1.0010484194008313,4.82603582329466
23,23,male,249,105,105,same,valid,clock,1,0,1,0.7093562692048181,0,j,change,0.6279608868044306,0.02924089739519739,0.4992705322947586,0.03531367752748338,0.35330964100057827,1.0010404015101813,5.014063380464904
23,23,male,250,135,135,same,valid,anti,3,2,4,0.8797605023946744,1,f,same,0.5713318069410889,0.046324933088385006,0.49981959745718996,0.03530405605852138,0.3533324118106975,1.0010564372919362,5.08465834324079
23,23,male,251,135,185,change,valid,clock,4,1,2,0.7291726466769433,1,j,change,0.4632868798121308,0.010898601356091442,0.502010726655044,0.03534510765939558,0.3533115652944616,1.0010285350317645,4.863748453749849
23,23,male,252,105,155,change,catch,clock,4,2,1,0.6786714803947689,0,j,change,0.43302447348924034,0,0.4993183189244519,0.03530565963637855,0.3533016231099282,1.0010599651636767,6.2862473609111476
23,23,male,253,105,155,change,catch,clock,3,0,3,0.9540513921142519,1,f,same,0.5434593735076305,0,0.49959188935827115,0.0352960381678713,0.3532939259343948,1.0010792081020554,6.686625548784377
23,23,male,254,15,15,same,valid,clock,3,0,1,0.6760002398950746,0,j,change,0.7523501239725192,0.032258265254202084,0.49973685282384395,0.03531880897753581,0.35332631821347604,1.0010179514160882,5.108506436923108
23,23,male,255,135,135,same,valid,clock,3,2,2,0.728110436503357,1,f,same,0.7342591966007603,0.04504912915986495,0.49954891346396835,0.03533388261212167,0.3532512707556634,1.0010785666704578,5.1321547247666786
23,23,male,256,105,55,change,valid,anti,1,2,1,0.6321863152566038,0,j,change,0.4721290097872952,0.04380596768099254,0.49921953850935097,0.03532233684973107,0.3533073959911235,1.0010253278755954,4.766091185226742
23,23,male,257,165,215,change,valid,clock,4,2,1,0.6401670030440982,0,j,change,0.40322004908875897,0.04834765185262804,0.5005232475537014,0.0353332411809788,0.35330932028500683,1.0010548337136242,4.696776519253945
23,23,male,258,75,125,change,valid,clock,1,2,1,0.8319151822611275,0,j,change,0.49885873342327613,0.05310765651028421,0.5004424272142387,0.03531592253693816,0.3533462025825429,1.0010064056532428,4.955739639201056
23,23,male,259,135,135,same,valid,clock,4,0,2,0.6109411496436223,1,f,same,0.7725609816720862,0.03511858868827619,0.5005017596063226,0.035292189580104605,0.3533029059722139,1.0010760009454316,5.061724289109861
23,23,male,260,15,15,same,catch,anti,5,0,1,0.6887233497336638,0,j,change,0.6297174463206829,0,0.500492458852932,0.03531175323405478,0.35329488808156384,1.0010134613976334,6.463664682826675
23,23,male,261,15,325,change,catch,anti,1,1,1,0.6928304341176954,0,j,change,0.5306179196013545,0,0.50018040254281,0.035307583930716646,0.35332984608521656,1.0010173099849453,6.40486403741852
23,23,male,262,135,135,same,catch,clock,2,2,3,0.699162322840948,1,j,change,0.490665731887475,0,0.5000068953859227,0.035282247395571176,0.3533202246167093,1.0010513058418837,6.381030055224073
23,23,male,263,105,155,change,valid,clock,4,1,2,1.2990872112395664,1,j,change,0.9737321068741949,0.008947631859616889,0.4994331351203982,0.035323298996445374,0.35330354740381154,1.0011401440719965,5.944436337465959
23,23,male,264,165,165,same,catch,clock,4,1,3,0.8372874898132068,1,j,change,0.5567892773215135,0,0.49943826657045065,0.03540059146371277,0.35325640220571586,1.0010256485911668,6.533162477425321
23,23,male,265,105,155,change,valid,clock,3,0,1,0.6220055182329816,0,j,change,0.6594590104573399,0.032110236121469266,0.49987700555493575,0.03535023910990276,0.3532785315842375,1.0010163478377763,4.9673626944218086
23,23,male,266,75,125,change,valid,clock,4,0,2,0.7979241360003471,1,j,change,0.6365316913547758,0.03488257097958483,0.5001127315449594,0.035342221218343184,0.35333658111403565,1.0009897284407998,5.108807268185956
23,23,male,267,165,115,change,valid,anti,1,0,1,0.7377828992498507,0,j,change,0.7027052684279624,0.031880621067367665,0.4997516057428584,0.035342541934369365,0.35327789015309463,1.001048419401286,5.073258826815618
23,23,male,268,135,135,same,catch,anti,1,2,1,0.6234323820799546,0,j,change,0.5572681057606133,0,0.4999126049901861,0.035328751162523986,0.3533019438250449,1.000987483431345,6.3456044479407865
23,23,male,269,45,45,same,catch,clock,1,2,4,0.7313740387753569,1,f,same,0.5630169334644961,0,0.4999331307903958,0.03532297828087394,0.3533106031477473,1.0010532301353123,6.4979135844560005
23,23,male,270,15,65,change,valid,clock,5,1,2,0.7905123977438961,1,f,same,1.258903466839456,0.007104103387938515,0.5002868801329896,0.03530854607743095,0.353315734597345,1.0010461743918313,5.733384925787959
23,23,male,271,15,65,change,valid,clock,4,0,4,0.6477634735042557,1,f,same,0.3796650894942104,0.03457427469827293,0.4992766258919801,0.035332599749835936,0.3532859080437447,1.0010721523581196,4.67203908112424
23,23,male,272,105,105,same,valid,anti,5,0,1,0.597809768805746,0,j,change,0.4888896087172725,0.031664363988266525,0.5002522428449083,0.03533163760266689,0.3532881530531995,1.0010327043351026,4.743608057274741
23,23,male,273,165,165,same,valid,anti,5,0,2,0.7016863548647052,1,f,same,0.6117961775189542,0.034284551640135136,0.5003211967054995,0.03530149033349517,0.3533183003223712,1.0010554751452219,4.955560038447402
23,23,male,274,15,15,same,catch,clock,5,2,2,0.66027811818185,1,j,change,0.7265982622984666,0,0.5005161918097656,0.03534318336551223,0.3532756451431851,1.0010798495331983,6.534797806433289
23,23,male,275,45,355,change,catch,anti,5,2,3,0.8630743094909121,1,f,same,0.7384204819263687,0,0.49976251007456085,0.035340617640486016,0.3533003402471877,1.001042646519636,6.804870515874427
23,23,male,276,15,15,same,catch,anti,4,2,1,0.6580988554624128,0,j,change,0.4632660332958949,0,0.4992634765508228,0.03532522329032872,0.3532913602093686,1.0010477779696885,6.333295061268018
23,23,male,277,165,165,same,catch,clock,1,2,1,0.6463677190736234,0,j,change,0.5431450721885085,0,0.499254175797887,0.035356653422240925,0.35329168092494,1.0010304593256478,6.368350883427411
23,23,male,278,105,105,same,valid,clock,4,0,2,0.6020088985760594,1,j,change,0.46710852728347163,0.0314602551113643,0.49969355621351497,0.03535408769721471,0.35330130239435675,1.0010590030169624,4.767483732501205
23,23,male,279,135,85,change,valid,anti,3,1,1,0.6514982070393671,0,j,change,0.5829555035925296,0.005344709784604246,0.4989600795629485,0.035323619712471555,0.35329392593484954,1.0010497022635718,4.872073269410066
23,23,male,280,165,215,change,catch,clock,3,2,1,0.5892014405262671,0,j,change,0.4173822099683093,0,0.5002413385132058,0.03537012347896962,0.35328045587812085,1.0010224414349977,6.168822463692777
23,23,male,281,75,75,same,valid,anti,2,0,3,0.7083768036645779,1,f,same,0.5028696031176878,0.028664727466334583,0.5005017596063226,0.03532714758421207,0.35326377866522307,1.0010792081016007,4.932918797688217
23,23,male,282,45,45,same,valid,clock,4,2,2,1.1051251320145639,1,j,change,0.8000177676462954,0.05746404957908957,0.499201257718596,0.03529988675518325,0.35332631821347604,1.0010493815480004,5.591135035072057
23,23,male,283,135,135,same,valid,anti,1,2,4,0.7042485520487389,1,f,same,0.6073991662033222,0.05627896716904729,0.4998173524477352,0.03531977112470486,0.3533304875163594,1.0010256485911668,4.9907560133378865
23,23,male,284,105,155,change,valid,clock,1,2,3,0.7489896655802113,1,f,same,0.5640746536191728,0.055131986032922464,0.5001117693977903,0.03536210558786479,0.3532705136935874,1.0010445708135194,4.979631029493703
23,23,male,285,105,55,change,valid,anti,5,2,1,0.6497836612707033,0,j,change,0.5550558093304971,0.05401304542076163,0.4992977931237874,0.03531688468365246,0.35330707527555205,1.0010606065952743,4.8721916134786625
23,23,male,286,45,95,change,valid,clock,1,1,1,0.5818692397465384,0,j,change,0.6167784948625012,0.008516058760490747,0.5004831580995415,0.03531014965574286,0.3532817387404066,1.0010824152582245,4.838855789254012
23,23,male,287,75,75,same,valid,anti,4,1,1,0.7252804417662446,0,j,change,0.5186565093886202,0.011700736913236087,0.4995768157236853,0.03532618543704302,0.35333754326074995,1.0010452122446623,4.896597752360776
23,23,male,288,135,135,same,valid,clock,1,2,4,0.6953169424123189,1,f,same,0.49502201231734944,0.0581012646095235,0.5000950921848926,0.03523734720738503,0.35331252744163066,1.0010118578188667,4.849786419424618
23,23,male,289,135,185,change,valid,clock,2,1,1,0.5800280113035114,0,j,change,0.5312006599046981,0.014680808175963594,0.5000556441623303,0.03534446622825271,0.3532952087971353,1.0010497022635718,4.778808201468564
23,23,male,290,15,325,change,valid,anti,4,2,1,0.6174786170872721,0,j,change,0.57351876683515,0.056967669815612104,0.5004055449167026,0.035317526115250075,0.35330162310947344,1.001092357442758,4.849732539198612
23,23,male,291,45,355,change,valid,anti,4,2,3,0.7321514534673952,1,j,change,0.4606085835689555,0.06129570595708031,0.5004251085701981,0.035286416698909306,0.3533340153885547,1.001037835785155,4.861651294232161
23,23,male,292,135,135,same,valid,clock,3,0,3,0.7575886931062996,1,f,same,0.4399528932881367,0.026042863485188,0.49988726845549536,0.03564497677507461,0.3529943775342872,1.001024365728881,4.8493011766736345
23,23,male,293,105,155,change,catch,clock,1,0,1,0.6084443784484392,0,j,change,0.3786612495659938,0,0.5004770645027747,0.035329713309238286,0.3532762865747827,1.0010320629039597,6.15785366836144
23,23,male,294,105,105,same,valid,clock,5,0,2,0.7669247251546949,1,j,change,0.49824969443807277,0.02353227940035868,0.5000649449152661,0.03529764174618322,0.35332246962570935,1.0010375150695836,4.908069429802708
23,23,male,295,45,95,change,valid,clock,2,0,3,0.7579911912243915,1,j,change,0.40751860070486146,0.02097750527872419,0.5000514748589922,0.03532810973092637,0.35326506152796355,1.001077283808172,4.803116201367175
23,23,male,296,45,355,change,catch,anti,4,1,2,0.9344963978824126,1,j,change,0.8279636449587997,0,0.4994892603558583,0.035313036095885764,0.35330707527555205,1.001049060832429,6.957618712089243
23,23,male,297,45,355,change,valid,anti,4,1,2,0.6218185410193655,1,j,change,0.4101077380018978,0.017549113916512954,0.49979618521592784,0.035409892217103334,0.35326698582139215,1.0010667001924958,4.696848038839562
23,23,male,298,165,215,change,valid,clock,2,1,1,0.6703893199128288,0,j,change,0.8491360081229686,0.015861316255068536,0.4990194119550324,0.03530886679300238,0.3532855873281733,1.0010869052766793,5.202044113152624
23,23,male,299,135,135,same,valid,clock,1,1,2,0.658699876556966,1,j,change,0.5099744165140692,0.018890909280029455,0.5001743089455886,0.035329392593212106,0.3532810973092637,1.0010150649754905,4.814794419676218
23,23,male,300,105,105,same,catch,clock,4,0,2,0.7110406677043102,1,f,same,1.1458197764163742,0,0.4994735452896748,0.03535697413781236,0.35330066096275914,1.0010211585722573,7.051445994534333
23,23,male,301,135,135,same,valid,anti,1,1,1,0.7205030617119519,0,j,change,0.67944953651795,0.017204833380096457,0.5098413195269131,0.03539738430754369,0.3532708344087041,1.0010769630926006,5.09469321465167
23,23,male,302,15,15,same,valid,anti,2,2,4,0.6538500147689774,1,f,same,0.40276944362540235,0.06012814046030429,0.49987219482045475,0.03531399824305481,0.3532952087971353,1.0010506644107409,4.69604240117269
23,23,male,303,135,135,same,valid,clock,3,1,2,0.6835316050819529,1,j,change,0.4236422583894637,0.020195780414480557,0.49989785207117166,0.03535440841278614,0.35328013516209467,1.0010654173297553,4.779159064370106
23,23,male,304,105,55,change,valid,anti,3,2,2,0.6541274337905634,1,j,change,1.0594196265783467,0.05897702060477686,0.49980356167543505,0.03534831481556466,0.35331060314729257,1.001047457254117,5.391666268444624
23,23,male,305,15,65,change,valid,clock,2,2,3,1.0832840767575362,1,f,same,0.6128766684828406,0.057878949530607515,0.4994703381335057,0.03531560182136673,0.35327917301538037,1.001067341623184,5.332473708534053
23,23,male,306,15,325,change,valid,anti,1,2,2,0.6965686955245474,1,j,change,0.47071208812485565,0.056824628341531236,0.4996977255168531,0.03531399824305481,0.3532753244280684,1.001070548779353,4.825799135158377
23,23,male,307,135,85,change,catch,anti,4,2,1,0.6042686609189332,0,j,change,0.4919883631537232,0,0.50017815753381,0.03535504984392901,0.35327564514363985,1.001042646519636,6.274805189307244
23,23,male,308,135,85,change,valid,anti,1,1,1,0.6176867615322408,0,j,change,0.5103692174570824,0.018495093699528176,0.49993730009373394,0.03533773119988837,0.3532987366688758,1.0010294971789335,4.802447829989887
23,23,male,309,165,115,change,catch,anti,2,1,1,0.6032160722147637,0,j,change,0.4608725325342675,0,0.5002567328633631,0.03530694249911903,0.3533032266882401,1.0010702280637815,6.227844082171032
23,23,male,310,45,355,change,valid,anti,1,0,3,0.8825330890335863,1,f,same,0.7336633069562595,0.01845051379336815,0.5001986833340197,0.0353313168875502,0.35327340013418507,1.0010535508513385,5.2978216673554925
23,23,male,311,15,15,same,valid,clock,4,1,2,0.6945266990956043,1,j,change,0.7828222783186902,0.02143025136544005,0.4990758579060639,0.03533452404326454,0.35329264307210906,1.0010702280642363,5.1200926098458694
23,23,male,312,165,165,same,valid,clock,4,1,2,0.6459514301832314,1,j,change,0.5289659133804889,0.019748769714669906,0.49973107994264865,0.035329392593212106,0.35330354740381154,1.0010311007567907,4.825789192973389
23,23,male,313,45,95,change,valid,clock,3,2,1,0.5498894012139317,0,j,change,0.452858811036549,0.055805178655132875,0.5002198505658271,0.035335486190433585,0.3532923223565376,1.0010461743913766,4.661760786548712
23,23,male,314,135,85,change,valid,anti,1,2,2,0.6840845188321509,1,f,same,0.8949547261777298,0.05977865118988282,0.49987957127996197,0.035354729128357576,0.35327789015309463,1.0010599651636767,5.226769684803912
23,23,male,315,135,85,change,valid,anti,4,0,1,0.5409962774538144,0,j,change,0.4311941493770064,0.016079675405790972,0.49956110065795656,0.03536627489074817,0.3532875116220566,1.0010695866326387,4.625557764573841
23,23,male,316,105,105,same,catch,anti,5,0,1,0.7352498871882744,0,j,change,0.5260477218448614,0,0.4998378782479449,0.035366595606774354,0.3532913602093686,1.0010359114917264,6.462509144404066
23,23,male,317,45,95,change,catch,clock,2,0,1,0.5421793974201137,0,j,change,0.3920094341706317,0,0.50068328465386,0.035311432518028596,0.3533292046540737,1.0010311007567907,6.15786745913374
23,23,male,318,165,215,change,valid,clock,4,0,1,0.6812638248484291,0,j,change,0.3504876641541159,0.018354824737350256,0.5001643667610551,0.03534799410044798,0.35331156529400687,1.0010439293823765,4.709019517791148
23,23,male,319,75,75,same,valid,clock,4,1,1,0.6793141945208845,0,j,change,0.5187097481834826,0.01813165527531893,0.4989427609189079,0.035290265286676004,0.3533381846914381,1.0010529094201956,4.825034869807041
23,23,male,320,45,95,change,valid,clock,2,1,1,0.5945817659694512,0,j,change,0.7597099062963935,0.02095968390224215,0.49954378201346117,0.03534703195327893,0.3532775694375232,1.001052909419741,5.014149011538393
23,23,male,321,45,45,same,valid,clock,2,1,4,0.6806711423600973,1,f,same,0.4625633453465525,0.02363999669748898,0.5000165168553394,0.03532169541813346,0.3532810973092637,1.001033987197843,4.778656182259056
23,23,male,322,135,135,same,valid,clock,4,1,1,0.5762310589357185,0,j,change,0.8384459146759582,0.02208298801883915,0.5005652613012899,0.0353018110490666,0.35332022461625456,1.0010522679890528,5.097799666263654
23,23,male,323,15,65,change,valid,clock,2,0,4,0.6712196526841581,1,f,same,0.5210676495103144,0.020658526830483664,0.4999020213745098,0.035319450409133424,0.3533070752750973,1.0010590030174171,4.802742567655969
23,23,male,324,75,75,same,catch,anti,4,0,2,0.8317314122041353,1,j,change,0.5198261592991003,0,0.49990971854958843,0.03531111180245716,0.3533243939195927,1.0010416843729217,6.533819303039763
23,23,male,325,15,325,change,valid,anti,2,1,2,0.9353482186011206,1,j,change,0.4576172688693987,0.024644007146716468,0.5001749503771862,0.03535344626607184,0.35331862103794265,1.0010192342788287,5.037900890531091
23,23,male,326,15,15,same,valid,anti,3,2,3,0.811407983317622,1,f,same,0.4869184904428039,0.05870825437411836,0.49984140612014016,0.03535023910944801,0.3532913602098233,1.001021158572712,4.932084295614004
23,23,male,327,75,75,same,valid,anti,2,1,1,0.6253011920675817,0,j,change,0.46006400842588846,0.02313052591538664,0.4992888130859683,0.03531399824305481,0.35332792179178796,1.0010169892689191,4.742983303223355
23,23,male,328,105,155,change,valid,clock,4,0,2,0.735924031446757,1,f,same,0.7875759254170589,0.018263939147882186,0.5001887411494863,0.035329713309238286,0.35327917301538037,1.0010182721316596,5.179828462036767
23,23,male,329,165,115,change,valid,anti,5,2,2,0.6241578408394162,1,j,change,0.4940768633496191,0.05768473401252913,0.49970927127969844,0.035348635531590844,0.35329007734708284,1.0010371943540122,4.743533009816929
23,23,male,330,15,325,change,catch,anti,1,1,2,0.7866278900087309,1,j,change,0.6848109397383269,0,0.5000437776834588,0.035346711237707495,0.3533227903417355,1.0010246864444525,6.627822979082794
23,23,male,331,15,15,same,valid,anti,3,0,3,1.0767029919884408,1,f,same,0.6154850487182557,0.016016359835385158,0.5002143984002032,0.0353685199006577,0.3532612129397421,1.0011680463321682,5.379528464634859
23,23,male,332,105,105,same,catch,anti,2,1,2,0.6702449978783989,1,j,change,0.4528055722416866,0,0.500478026649489,0.035321374702562025,0.3533266389290475,1.0010663794764696,6.274845599476521
23,23,male,333,135,185,change,catch,clock,2,2,3,0.9186815893513085,1,f,same,0.5554820404058773,0,0.500143520245274,0.03532169541813346,0.35332407320402126,1.0010259693067383,6.663445185048204
23,23,male,334,75,25,change,catch,anti,2,2,1,0.7429133872155944,0,j,change,0.564085237234849,0,0.4999119635590432,0.035332599749835936,0.3532541571962611,1.0010801702487697,6.474471516763515
23,23,male,335,45,355,change,valid,anti,2,2,1,0.626620936893687,0,j,change,0.4046914924088014,0.05669956651356947,0.500042494821173,0.03531977112425011,0.3533154138822283,1.0010343079129598,4.696325593075471
23,23,male,336,165,115,change,valid,anti,4,2,3,0.7572974833124135,1,j,change,0.4027736129287405,0.06051121378105884,0.499788167324823,0.03530341462692377,0.3533016231099282,1.0010798495331983,4.826057311242039
23,23,male,337,45,355,change,valid,anti,3,2,2,1.048311319946606,1,f,same,0.9262511196984633,0.05947137416593823,0.49999053888859635,0.03533420332814785,0.3532884737687709,1.0010381565007265,5.614765042124418
23,23,male,338,165,215,change,valid,clock,4,1,3,0.8259909231060192,1,f,same,0.7313817359504355,0.025596086518267502,0.49993986581876015,0.035314639674652426,0.3532884737687709,1.001057720154222,5.2261481379086945
23,23,male,339,45,45,same,catch,clock,3,2,2,0.8257019583215879,1,j,change,0.7019015550536096,0,0.5004847616778534,0.03530116961792373,0.35330001953161627,1.0010760009454316,6.69875950400683
23,23,male,340,105,55,change,catch,anti,1,1,3,0.9241546016119173,1,j,change,0.7598375511179256,0,0.5007214498141366,0.03532939259366685,0.3533179796067998,1.0010272521694787,6.8760292967313035
23,23,male,341,75,75,same,valid,clock,3,2,2,0.81210746411125,1,f,same,1.153141714295998,0.05847184895588031,0.49980227881269457,0.035339655493771716,0.35329937810001866,1.0010362322068431,5.650374419464697
23,23,male,342,135,85,change,valid,anti,5,2,1,0.6708517918541475,0,j,change,0.64151336726718,0.057513640416609946,0.4995476306007731,0.03532137470301677,0.35328975663105666,1.0010461743918313,4.955177424698377
23,23,male,343,105,105,same,valid,clock,4,1,3,0.7706742116088208,1,j,change,0.6073138558454048,0.02418425007508751,0.5001454445391573,0.03523830935364458,0.3533680112454931,1.0010493815480004,5.014739128301699
23,23,male,344,45,355,change,valid,anti,4,0,1,0.7350959436848825,0,j,change,0.5630445150090964,0.013854533748931697,0.5001201080040119,0.035352484118902794,0.35323619712107757,1.0010644551825862,4.920769448115607
23,23,male,345,75,75,same,valid,anti,1,1,1,0.6900912019045791,0,j,change,0.4635412073084808,0.022723757844166026,0.49965154246592647,0.03533612762157645,0.35330354740381154,1.001047457254117,4.813559023061771
23,23,male,346,15,65,change,catch,clock,2,1,1,0.7290992027969878,0,j,change,0.42835517460207484,0,0.5005912392675782,0.03530886679300238,0.35328238017154945,1.0010564372919362,6.333773248275065
23,23,male,347,105,55,change,valid,anti,5,0,2,0.7378787932238993,1,j,change,0.6402863092589541,0.015825538054645316,0.5008311345604852,0.035320412555847724,0.3532881530531995,1.001066700192041,5.062048211897945
23,23,male,348,165,215,change,catch,clock,2,0,1,0.7067552654289102,0,j,change,0.5393279147356225,0,0.500080980697021,0.03532682686864064,0.3532977745221615,1.0010429672352075,6.404255960580031
23,23,male,349,75,125,change,valid,clock,2,0,1,1.427215671961676,0,j,change,0.7260286713362802,0.013716699351961986,0.49976090649624894,0.03535312555050041,0.3532897566315114,1.0010529094201956,5.827347870945687
23,23,male,350,165,165,same,catch,clock,2,2,2,0.8058910330155413,1,f,same,0.8222520202680244,0,0.4997727729746657,0.035339655493771716,0.35332792179178796,1.0010455329602337,6.780797921249359
23,23,male,351,45,95,change,valid,clock,3,0,1,0.7138222343805865,0,j,change,0.4235344979374531,0.015643679194565357,0.5020383081996442,0.03534574909053845,0.3532615336557683,1.0010480986857146,4.828567873209522
23,23,male,352,15,15,same,valid,anti,4,1,2,0.7024836539258104,1,f,same,0.6098321149879666,0.02511433848443681,0.4990813100721425,0.0353361276220312,0.35328783233762806,1.0010285350322192,4.966093943381566
23,23,male,353,75,125,change,valid,clock,2,1,1,0.6007135281383853,0,j,change,0.3725673318417648,0.023755368415264433,0.49995718446325554,0.03531367752748338,0.3532859080437447,1.00106990734821,4.626128317683197
23,23,male,354,15,65,change,valid,clock,3,0,2,0.7899784062165054,1,j,change,0.7235039978809255,0.01770165313048072,0.49982921892615195,0.035350559825019445,0.3533106031477473,1.0010618894580148,5.143721334035945
23,23,male,355,75,75,same,valid,anti,4,0,2,0.6607604744926903,1,j,change,0.5105760790397653,0.01562433556017262,0.5004235049918861,0.035309187508573814,0.35330611312883775,1.0010580408697933,4.81479474039179
23,23,male,356,45,45,same,valid,anti,2,1,4,0.693629016041541,1,f,same,0.5887219706564792,0.02606745168856639,0.5001191458572976,0.03535216340333136,0.3532836630347447,1.0011215425652153,4.9207758624284
23,23,male,357,165,115,change,catch,anti,3,2,3,0.6819495148693022,1,j,change,0.5054917741249483,0,0.4997156855920366,0.03535825700055284,0.35330643384395444,1.0010471365385456,6.333665808538171
23,23,male,358,15,15,same,valid,anti,4,0,2,0.6562175375647712,1,f,same,0.9894446071189122,0.01361386469336634,0.49983980254182825,0.0353685199006577,0.3533170174600855,1.0010327043351026,5.308871283026292
23,23,male,359,75,75,same,valid,clock,1,2,2,0.7035567684306443,1,j,change,0.563125335348559,0.06116482779300414,0.5000283833333015,0.03534703195327893,0.35326891011482076,1.0010638137514434,4.908622343552452
23,23,male,360,15,325,change,valid,anti,1,0,1,0.6883872397511368,0,j,change,0.6050342091325547,0.011558174517859565,0.4994950332370536,0.03533195831869307,0.3532865494748876,1.0010057642221,4.955118733737891
23,23,male,361,165,215,change,valid,clock,3,2,4,0.7041969168326432,1,f,same,0.4738044282489682,0.06017916480065574,0.5001034307915688,0.035329392593212106,0.35327660729035415,1.0010596444481052,4.826668274521126
23,23,male,362,135,85,change,valid,anti,5,1,1,0.7209940773441303,0,j,change,0.4588475340333389,0.02473061363297685,0.49968810404743635,0.03531175323360003,0.35332503535073556,1.001048419401286,4.849758837880472
23,23,male,363,75,75,same,valid,clock,2,1,3,0.7544864107976537,1,j,change,0.6505674902750798,0.02698340488689971,0.4997435878522083,0.035388724985295994,0.3532807765936923,1.0010497022635718,5.014753560504687
23,23,male,364,15,15,same,valid,anti,5,0,4,0.657119710637744,1,f,same,0.5441463463916989,0.013429793027814746,0.49963454453745726,0.03532105398699059,0.35328622875931615,1.0010336664822717,4.837647332752567
23,23,male,365,165,215,change,valid,clock,2,2,4,0.6227402777462885,1,f,same,0.49440720045095077,0.05919952989771038,0.49995493945380076,0.03530277319623565,0.3533086788534092,1.0010766423765745,4.731707903747974
23,23,male,366,45,355,change,valid,anti,5,2,2,0.7019493416828482,1,j,change,0.6250455817094007,0.05826231952922428,0.5003333838994877,0.03533516547486215,0.3532673065369636,1.0010670209080672,4.944750959501107
23,23,male,367,75,125,change,valid,clock,5,2,1,0.5910029002311603,0,j,change,0.45962334514752,0.057361798182035295,0.499635827399743,0.03531303609634051,0.3533003402471877,1.0010561165763647,4.695760171415714
23,23,male,368,135,85,change,catch,anti,3,1,3,0.6696455803621575,1,j,change,0.5747301097776472,0,0.5004642358771889,0.03532939259366685,0.353277248721497,1.0010654173297553,6.380684965203727
23,23,male,369,165,115,change,valid,anti,2,2,2,0.694317913219038,1,f,same,1.3356196081690541,0.06081974507083149,0.5008555089484616,0.03534735266885036,0.3533035474033568,1.001054833714079,5.709998021184674
23,23,male,370,15,325,change,catch,anti,1,2,1,0.6394550143409106,0,j,change,0.751956285176675,0,0.5002955394547826,0.035360502009552874,0.35326025079348256,1.0010487401164028,6.545654672008823
23,23,male,371,45,355,change,catch,anti,2,0,2,0.6264894434848429,1,j,change,0.5541725584798769,0,0.5000008017887012,0.035328751162523986,0.3533872541834171,1.0009515632800685,6.35744526907547
23,23,male,372,75,125,change,catch,clock,4,0,1,0.6674682419361488,0,j,change,0.33411513113878755,0,0.5001319744824286,0.035353766981643275,0.35330322668778535,1.0010246864439978,6.1690761497575295
23,23,male,373,165,165,same,valid,clock,3,2,4,0.627009964955505,1,f,same,0.35141004231218176,0.0598784820431795,0.4995248597911086,0.03536114344115049,0.3532419700018181,1.001081132395484,4.613323746074002
23,23,male,374,165,115,change,valid,anti,5,1,1,0.7013210597597208,0,j,change,0.40875463875090645,0.02565973080448966,0.4997968266470707,0.035299245324040385,0.35330290597266867,1.0010679830547815,4.84908597648473
23,23,male,375,135,135,same,valid,anti,5,2,2,0.7181810805359419,1,j,change,0.5464962298274259,0.058957347547780925,0.4998545554612974,0.03531752611479533,0.3533330532418404,1.001052909419741,4.908060770480915
23,23,male,376,15,325,change,valid,anti,2,0,3,0.8396088295576192,1,j,change,0.5107659426935243,0.011415177359065637,0.5005100982125441,0.03532233684973107,0.3533269596446189,1.0010400807946098,4.97978850086929
23,23,male,377,135,185,change,catch,clock,5,0,4,0.7074342204223285,1,f,same,0.46281959713633114,0,0.5001278051790905,0.03535857771612427,0.3532903980626543,1.0010080092315548,6.298823903705852
23,23,male,378,15,15,same,catch,clock,4,1,2,0.7053598317143042,1,j,change,0.8195371624424297,0,0.4999424315442411,0.035320091839821544,0.3533195831851117,1.0010189135632572,6.687006558955545
23,23,male,379,135,85,change,valid,anti,1,0,2,0.5802210821134395,1,f,same,1.6505713388628465,0.009379566601625922,0.49988181628941675,0.03531207394917146,0.35332792179178796,1.001049060832429,5.885674177933652
23,23,male,380,15,15,same,valid,clock,5,1,4,0.6993679015608905,1,f,same,0.601810375599598,0.028051281827057933,0.4997532093211703,0.035286416698909306,0.35333369467298326,1.0010695866326387,4.979031611977462
23,23,male,381,105,105,same,valid,anti,4,2,1,0.6707199777292772,0,j,change,0.5474772989455232,0.05807535187168472,0.4994825253279487,0.03533676905271932,0.35323395211116804,1.0011125625273962,4.861185615134218
23,23,male,382,105,105,same,valid,clock,3,2,4,0.8299806255686235,1,j,change,0.64302201360033,0.061396597994786195,0.49992607504646003,0.03531816754639294,0.35328398374986136,1.0010888295705627,5.132782365258208
23,23,male,383,105,105,same,catch,clock,2,0,1,0.6870251604623263,0,j,change,0.7792386018463731,0,0.4996332616747168,0.035312394665197644,0.3533038681189282,1.0010529094201956,6.603770589542819
23,23,male,384,45,45,same,valid,clock,5,2,2,0.6872891094271836,1,j,change,1.1704555476908354,0.0605062810343365,0.5006816810760029,0.035287058130052174,0.3533436368575167,1.0010615687419886,5.475009677594244
23,23,male,385,45,45,same,valid,clock,2,0,4,1.013644525849486,1,f,same,0.7633651023547827,0.007445570729930184,0.4993645019753785,0.035310149655288114,0.35330932028500683,1.0010208378566858,5.473446830319062
23,23,male,386,15,325,change,catch,anti,5,2,2,0.6467336556102055,1,j,change,0.5777560617661948,0,0.49954281986674687,0.035338372631031234,0.3533112445788902,1.0010015949187618,6.356380493177312
23,23,male,387,45,355,change,valid,anti,2,0,2,0.5845943604722379,1,j,change,0.6067859579152355,0.005608051725078889,0.5007038104545245,0.03530341462692377,0.353344599004231,1.001020196425543,4.8390228820981065
23,23,male,388,105,105,same,valid,clock,4,2,1,0.6112483952192633,0,j,change,0.5476379774777342,0.05960809823552354,0.4997304385115058,0.03531463967419768,0.3533272803606451,1.001037835785155,4.778760735554897
23,23,male,389,15,65,change,valid,clock,5,0,2,0.8750674705511301,1,j,change,0.9847326530525606,0.0038244240038792787,0.4995155590381728,0.03531912969310724,0.35324870503018246,1.0010756802298602,5.497116926826038
23,23,male,390,135,185,change,valid,clock,4,0,3,0.690382090982439,1,j,change,0.6907906826977523,0.002000272238550538,0.4993638605437809,0.035329392593212106,0.3533147724506307,1.0010497022640266,5.00218567703223
23,23,male,391,45,45,same,valid,clock,5,0,1,1.205009129170321,0,j,change,0.9815450603859972,0.00015043559778485371,0.4995594970791899,0.03536435059777432,0.35327628657523746,1.001021158572712,5.767256345118312
23,23,male,392,75,25,change,valid,anti,1,2,3,0.7272624643724157,1,j,change,0.5779074395445605,0.06275988750287631,0.5007625014150108,0.035319450409133424,0.3533285632229308,1.0010490608319742,4.967739214574067
23,23,male,393,165,165,same,catch,anti,4,0,4,0.6845274271199742,1,j,change,0.5775158457577163,0,0.5006037471771378,0.035302452480664215,0.35330707527555205,1.0010676623387553,6.416750400172987
23,23,male,394,15,65,change,valid,clock,2,1,3,0.861005052233395,1,f,same,0.8591926881967993,0.0267280626792607,0.5002342827692701,0.03552246340404963,0.35308032932334754,1.0011103175183962,5.392002699142722
23,23,male,395,105,105,same,valid,clock,2,2,3,1.0083652258304028,1,f,same,0.8042111245349588,0.06191898696671186,0.4991756004678791,0.03530373534294995,0.3533237524884498,1.0010272521694787,5.461117879992344
23,23,male,396,75,75,same,valid,clock,4,0,2,0.6838776572490133,1,j,change,0.8016688117195372,0.0018658165002438665,0.5002326791909582,0.03534125907208363,0.3532855873281733,1.0010352700601288,5.108706884192998
23,23,male,397,15,65,change,valid,clock,4,1,1,0.6179144696307048,0,j,change,0.8409301779615816,0.02545323518853787,0.5002067012246698,0.03530854607743095,0.35332054533228074,1.0010506644102861,5.097488251384675
23,23,male,398,165,165,same,valid,clock,2,1,3,0.670239545712775,1,f,same,0.6684935698117442,0.02776254057221117,0.4999279993403434,0.03537461349787918,0.35324934646132533,1.0010564372919362,4.967834467116518
23,23,male,399,45,45,same,valid,anti,3,1,4,0.7479284175537941,1,j,change,0.5119670227359165,0.026489822565360782,0.4994379458548792,0.035311432518028596,0.3532785315842375,1.0010801702487697,4.8965217427557945
23,23,male,400,75,75,same,catch,clock,2,0,1,0.5398118746247746,0,j,change,0.42975221189544754,0,0.49978656374696584,0.03533292046540737,0.3533045095500711,1.001044250097948,6.109692764046031
23,23,male,401,75,25,change,valid,anti,3,2,3,0.7810535316084497,1,f,same,0.5566160908806523,0.06107387261973496,0.5022932771266824,0.03531656396808103,0.3533089995694354,1.001050022979598,5.052674656120871
23,23,male,402,165,165,same,catch,clock,1,1,2,0.6452185949642626,1,j,change,0.4059284926015607,0,0.49906559500595904,0.03531014965574286,0.3533115652944616,1.0010237242977382,6.250189623117421
23,23,male,403,105,105,same,valid,anti,1,2,2,0.6819594570542904,1,f,same,0.8465212135747606,0.06021956377425253,0.4997458328616631,0.03532297828087394,0.35328943591548523,1.0010554751452219,5.202326663623808
23,23,male,404,165,165,same,valid,clock,1,2,2,0.716494437026995,1,j,change,0.4386915187069462,0.059364735807227176,0.5002827108296515,0.035305980351949984,0.35327949373140655,1.0010792081016007,4.791469092474017
23,23,male,405,45,95,change,valid,clock,5,2,3,0.7320513901900085,1,f,same,0.8577789736909835,0.05854452738523591,0.49931896035514,0.03532618543749777,0.3532977745221615,1.00105387156691,5.24933363309583
23,23,male,406,45,45,same,catch,clock,5,2,3,0.7873937589379238,1,f,same,0.8404487837983652,0,0.5000854707159306,0.035310149655288114,0.3532920016409662,1.001074718082691,6.769654656614875
23,23,male,407,135,185,change,valid,clock,3,1,2,0.6857185649769235,1,j,change,0.4540942076509964,0.02526018156012394,0.5002410177976344,0.035329392593212106,0.3533147724506307,1.0010516265574552,4.79108263013768
23,23,male,408,135,135,same,valid,anti,4,1,4,0.663518308212133,1,f,same,0.5328840962570212,0.02405789136009076,0.49962075376515713,0.03531656396808103,0.3532445357272991,1.0010853016988221,4.8612478339669
23,23,male,409,105,105,same,valid,anti,3,2,2,0.6473968955369855,1,f,same,0.9722930558327789,0.05775600669978098,0.49994916657260546,0.03535376698118853,0.3533259974979046,1.0010301386100764,5.238799407446095
23,23,male,410,165,115,change,valid,anti,1,2,4,0.6419354290392221,1,f,same,0.6713524289561974,0.056994147340617946,0.49956687353915186,0.035288982423480775,0.35333850540746425,1.001058682301391,4.955665553890412
23,23,male,411,75,125,change,valid,clock,4,2,3,0.7269805553319202,1,j,change,0.6079411756218178,0.05625433855246223,0.49979169519701827,0.035286095982883126,0.3533343361041261,1.001039439363467,4.966804649222013
23,23,male,412,75,75,same,catch,anti,1,0,4,0.7369605843691716,1,f,same,0.5520160665701042,0,0.5006236315466595,0.03532265756484776,0.3532714758403017,1.001072473073691,6.48685466803181
23,23,male,413,15,15,same,valid,clock,1,0,2,1.5122710611549337,1,j,change,0.5687352931836358,4.5664977493919956e-05,0.5008808454836071,0.03529283101124747,0.35331445173505927,1.001049060832429,5.7449755887296305
23,23,male,414,75,125,change,valid,clock,3,0,1,0.7091221467935611,0,j,change,0.48791848178370856,0,0.5001967590405911,0.03533773119988837,0.353330166800788,1.0010211585722573,6.3572791383780896
23,23,male,415,75,25,change,valid,anti,5,0,2,0.6318530917146745,1,j,change,0.4005539400395719,0,0.49966501252265516,0.035332599749835936,0.3532717965563279,1.0010676623387553,6.215212055572465
23,23,male,416,15,325,change,catch,anti,2,1,1,0.6560279946261289,0,j,change,0.337845053939418,0,0.5004584629959936,0.03532490257430254,0.3532993781004734,1.001065738044872,6.1577840730692515
23,23,male,417,165,215,change,valid,clock,2,0,1,0.6152044225400459,0,j,change,0.32724347800694886,0,0.49886835489223813,0.035328751162523986,0.35328943591548523,1.001029817894505,6.108913745775681
23,23,male,418,75,25,change,valid,anti,3,0,2,0.624248603363867,1,f,same,1.5825007288262896,0,0.4992249906754296,0.03532618543749777,0.3533134895878902,1.0010567580075076,7.3810662960904665
23,23,male,419,45,95,change,valid,clock,3,1,2,0.5839000111286623,1,j,change,0.5968389625877535,0.022808699176354835,0.4993590498092999,0.03532073327141916,0.35328879448434236,1.0010766423770292,4.8610817032695195
23,23,male,420,15,15,same,valid,clock,5,2,1,0.5902270891178887,0,j,change,0.42695076084964967,0.055532319735865504,0.49921568992158427,0.03530020747120943,0.3533173381756569,1.0010355907757003,4.660088254527636
23,23,male,421,75,25,change,valid,anti,2,0,1,0.7251361197322694,0,j,change,0.5025052701598725,0,0.49998765244845345,0.03532169541813346,0.35329103949379714,1.0010634930354172,6.357226861730396
23,23,male,422,105,105,same,valid,anti,3,1,2,0.6078045507624665,1,j,change,0.6026272383146534,0.0215562785888532,0.5000405705272897,0.03528834099233791,0.3533413918480619,1.0010365529228693,4.884748913335443
23,23,male,423,45,355,change,valid,anti,1,1,3,1.0123719262214763,1,f,same,0.8856446720956228,0.02028524469443105,0.5002448663849464,0.03532939259366685,0.35330547169724014,1.001033987197843,5.544562635282091
23,23,male,424,45,95,change,valid,clock,1,0,1,0.6861656425680849,0,j,change,0.4341655797079511,0,0.4997015741046198,0.03532778901535494,0.35330322668778535,1.0010134613971786,6.286129658274149
23,23,male,425,105,155,change,catch,clock,4,2,3,1.0503427327603276,1,f,same,0.8585397111696693,0,0.4995357641228111,0.03532778901535494,0.3532977745221615,1.0010760009454316,7.07519177992981
23,23,male,426,45,45,same,valid,anti,3,0,1,0.6144574758332055,0,j,change,0.7266797240690721,0.001371622238535125,0.5002217748597104,0.035327468299783504,0.35333914683906187,1.000970485502421,4.99089648678455
23,23,male,427,15,15,same,valid,clock,2,2,4,0.7741151696245652,1,f,same,0.4299667706532091,0.058367201917743194,0.49981703173216374,0.03531496038976911,0.3533471647292572,1.0010211585722573,4.838058169476881
23,23,male,428,165,165,same,valid,clock,4,0,2,0.7499001772598604,1,f,same,0.8860029114566714,0.0029065696948050446,0.4991278138386406,0.035304376774092816,0.3533029059722139,1.0010599651641314,5.284124864858313
23,23,male,429,135,85,change,valid,anti,5,0,1,0.5424904915830666,0,j,change,0.45729751538419805,0.001257800024013822,0.5005691098890566,0.0353342033276931,0.35330611312883775,1.0010407222257527,4.673760361921268
23,23,male,430,165,215,change,valid,clock,1,0,4,0.7522016326347511,1,f,same,0.5118121170858103,0.0027713094324227916,0.49917271402728147,0.03533163760266689,0.3533218281945665,1.001033987197843,4.907943067843917
23,23,male,431,45,95,change,valid,clock,4,1,1,0.6311843996222706,0,j,change,0.4725837845535352,0.019020572327028196,0.49974422928335116,0.035326506153069204,0.3532746829964708,1.0010711902109506,4.731551073803985
23,23,male,432,165,115,change,valid,anti,3,2,4,0.749486774810066,1,f,same,0.6556909224968877,0.05761858862402017,0.4999738616761533,0.035373009919567266,0.3532689101152755,1.0010583615858195,5.061511333930412
23,23,male,433,135,135,same,valid,anti,3,1,1,0.766824661877763,0,j,change,0.5155606413932219,0.021196523723781002,0.4996807275883839,0.03533292046540737,0.35328302160314706,1.0010500229791433,4.9200978695821505
23,23,male,434,135,135,same,valid,clock,2,1,2,0.8307673410140524,1,j,change,0.6430871188736091,0.023236845260933087,0.4996890661946054,0.03535504984392901,0.3533083581378378,1.0010246864444525,5.120550912484305
23,23,male,435,15,15,same,catch,anti,1,1,4,0.7386536421909113,1,f,same,0.6480251774596582,0,0.49968906619506015,0.03533388261212167,0.3533173381756569,1.0010269314539073,6.568508226516315
23,23,male,436,75,75,same,valid,anti,4,2,1,0.6537897202297245,0,j,change,0.4623715573984555,0.05689419491938072,0.5004510865364864,0.03530694249911903,0.35332631821347604,1.001043608666805,4.802736794774319
23,23,male,437,105,55,change,valid,anti,1,0,3,0.7912035399308479,1,j,change,0.5036768443633264,0.001147453830754458,0.49989047561166444,0.035292189580104605,0.35329969881604484,1.001082735973796,4.95519762978347
23,23,male,438,15,15,same,catch,clock,2,2,4,0.6577880820145765,1,f,same,0.6123404319464498,0,0.5002192091342295,0.03529283101170222,0.35332118676296886,1.0010599651641314,6.428507193812038
23,23,male,439,45,45,same,catch,clock,4,1,4,0.692515491366521,1,j,change,0.45744119598703037,0,0.4998750812610524,0.03530982893971668,0.3533003402471877,1.0010509851263123,6.344952433060826
23,23,male,440,165,165,same,valid,clock,4,2,4,0.8893171867980527,1,f,same,0.5634774811123862,0.05971360432697159,0.5000354390772372,0.035363709166176704,0.35328270088757563,1.0010535508513385,5.108383282120485
23,23,male,441,15,15,same,catch,clock,1,2,4,0.653837506858963,1,f,same,0.4244434060383355,0,0.5000347976460944,0.03528353025785691,0.3533372225451785,1.0010506644102861,6.2272279874423475
23,23,male,442,135,85,change,valid,anti,3,0,1,0.5962754652218791,0,j,change,0.479023113013227,0,0.500741975614801,0.03530373534294995,0.35331765889122835,1.0010525887041695,6.251993969263367
23,23,male,443,45,45,same,catch,clock,5,1,1,0.7242798089946518,0,j,change,0.3614263122162811,0,0.49947450743684385,0.035325544005900156,0.35330932028500683,1.00105611657591,6.262205554987304
23,23,male,444,135,185,change,valid,clock,1,0,2,0.6332937463334929,1,j,change,0.45892033648215147,0.0010404013363538578,0.49993762080930537,0.03527679522994731,0.35335069260145247,1.001042646519636,4.732323357045971
23,23,male,445,45,355,change,valid,anti,2,1,2,0.6520706844426059,1,j,change,0.745305605114936,0.022051373693353443,0.4993770098844834,0.03531912969310724,0.35331509316620213,1.001018592847231,5.025477649808636
23,23,male,446,15,325,change,valid,anti,5,1,3,0.7484980085164352,1,f,same,0.7181352182005867,0.020852830783058413,0.49965571176880985,0.035381669241360214,0.3532326692488823,1.0010657380453267,5.108056152175777
23,23,male,447,75,75,same,valid,clock,2,2,2,0.6524946705080765,1,j,change,0.5500619462241048,0.058944392670988166,0.49995814660996984,0.035303414627378515,0.35332599749744986,1.0010391186478955,4.814168703478117
23,23,male,448,75,25,change,catch,anti,4,1,3,0.6574429919946851,1,j,change,0.5788506642184075,0,0.5002519221288821,0.03532778901535494,0.3533089995694354,1.0010227621505692,6.368778397364622
23,23,male,449,135,135,same,valid,anti,5,0,1,0.6066284865396483,0,j,change,0.45983437603354105,0,0.5005508290983016,0.03531784683082151,0.3532945673659924,1.001043608666805,6.251751828961005
23,23,male,450,165,165,same,valid,anti,2,1,2,0.8056594763293106,1,j,change,0.3973878353199325,0.019633995435337892,0.49950593756875605,0.03534446622825271,0.35327660729035415,1.0010545129980528,4.861172465793516
23,23,male,451,135,85,change,valid,anti,4,1,2,0.686789113757186,1,j,change,0.4691316014905169,0.01846276946042516,0.5087932208411985,0.03532361971201681,0.3533073959911235,1.0010214792882834,4.811484955069318
23,23,male,452,105,105,same,catch,anti,5,1,1,0.579600818081417,0,j,change,0.4612596363017474,0,0.49936995414054763,0.03532490257475729,0.35330483026609727,1.0010317421883883,6.1921166814786375
23,23,male,453,135,135,same,valid,anti,1,0,1,0.546454536794954,0,j,change,0.318181337108399,0.0009364725445442368,0.49987347768319523,0.03528481312059739,0.3533304875168142,1.0010493815480004,4.53192034578251
23,23,male,454,165,165,same,valid,clock,3,1,1,0.5799994676117421,0,j,change,0.36419088096408814,0.01734847241953988,0.4991316624259525,0.035379744947476865,0.35328302160314706,1.001074718082691,4.60117054791408
23,23,male,455,135,185,change,valid,clock,3,0,2,0.7359711766448527,1,j,change,0.7383281158245154,0.0023906310028631306,0.500011385405287,0.035303414627378515,0.3533314496635285,1.0010185928476858,5.120245270486521
23,23,male,456,15,15,same,catch,anti,3,0,2,0.6902265439011899,1,f,same,1.2199576847792741,0,0.5004071484950146,0.035280964532830694,0.35332054533228074,1.0010910745800174,7.005756845594988
23,23,male,457,165,165,same,catch,anti,5,0,2,0.9172839106267929,1,f,same,0.7916044344710826,0,0.49945173662717934,0.03531880897753581,0.35330130239435675,1.0010256485911668,6.910520659378562
23,23,male,458,45,45,same,valid,clock,3,0,3,0.7851349587413097,1,j,change,1.058287179680974,0.0008355087621438884,0.49943858728647683,0.035302131764638034,0.3533211867634236,1.001043608666805,5.544472193473666
23,23,male,459,165,165,same,valid,clock,1,1,1,0.5843990446524003,0,j,change,0.42619098551722345,0.019337329799633568,0.499058539262478,0.03530245248020947,0.3533170174600855,1.0010413636568956,4.672152293742329
23,23,male,460,105,105,same,valid,anti,5,2,2,0.6902117909817207,1,j,change,0.8950442058394401,0.05820580117200763,0.49942030649526714,0.03532714758421207,0.35331413101948783,1.0010173099844906,5.261122177582365
23,23,male,461,15,15,same,catch,anti,2,0,3,0.7506124866781647,1,j,change,0.4541384664084944,0,0.5003539097001521,0.03534478694382415,0.3532871909064852,1.0010343079134145,6.3698649819261846
23,23,male,462,45,95,change,valid,clock,5,1,2,0.659042080135805,1,j,change,0.39387728201199934,0.021362832257788456,0.49911626807579523,0.03531592253693816,0.3533032266882401,1.0010391186478955,4.731241262503318
23,23,male,463,165,215,change,valid,clock,3,1,3,0.7260386135208137,1,j,change,0.5739940674020545,0.020207329323748968,0.49956045922635894,0.03530982893971668,0.35331509316620213,1.0010638137514434,4.95543367648861
23,23,male,464,105,155,change,catch,clock,4,1,4,0.7277477071238536,1,f,same,0.40405615474128354,0,0.499225311391001,0.035328430446497805,0.35331124457843543,1.0010516265574552,6.297073758501938
23,23,male,465,75,25,change,valid,anti,5,2,1,0.6265430029952768,0,j,change,0.7612163076200886,0.05749338622401587,0.500726581264189,0.035332599749835936,0.35328270088757563,1.001036873637986,5.038883563227955
23,23,male,466,165,115,change,catch,anti,1,0,2,0.6744810099462484,1,j,change,0.514723894308645,0,0.49950657900035367,0.03531463967419768,0.35329745380659006,1.0010503436951694,6.356207948167139
23,23,male,467,75,75,same,catch,clock,1,2,1,0.6080361074486973,0,j,change,0.3785990307328575,0,0.5002317170442439,0.035299245324040385,0.3533073959911235,1.0010551544296504,6.1693952618111325
23,23,male,468,45,45,same,valid,anti,5,2,3,0.7677929023707293,1,f,same,0.4510515784504605,0.060252804436935314,0.4999635987755937,0.035403157189193735,0.3532313863861418,1.001072473073691,4.88506096964511
23,23,male,469,165,215,change,catch,clock,5,2,1,0.6294182186366015,0,j,change,0.6816769065821973,0,0.4994411530110483,0.03532522329032872,0.35326602367467785,1.0010968474616675,6.486156790816494
23,23,male,470,15,325,change,valid,anti,4,0,1,0.6028571914225722,0,j,change,0.3934763874717646,0,0.4997801494341729,0.035331637603121635,0.3532666651058207,1.0010865845615626,6.156402750842062
23,23,male,471,75,25,change,valid,anti,1,0,1,0.6173897788571594,0,j,change,0.4055567831837834,0.000737361676060394,0.49997899312620575,0.035301169617468986,0.3532955295127067,1.0010695866330934,4.685314783996546
23,23,male,472,165,215,change,valid,clock,1,1,2,0.7604995081828747,1,j,change,0.49623656241601566,0.019058197635596186,0.49906463285879,0.035300207470754685,0.35333273252626896,1.0010474572545718,4.907194838274336
23,23,male,473,15,65,change,valid,clock,1,0,1,0.6000894155181413,0,j,change,0.4473931752354474,0.002155653946753572,0.4998731569676238,0.0352979624612999,0.35331348958834496,1.0010327043351026,4.695999104561906
23,23,male,474,75,75,same,valid,clock,1,1,3,0.9373520498697872,1,j,change,0.5813089495377426,0.017968818495060823,0.5003715490597642,0.035311432518028596,0.3532817387404066,1.0010622101735862,5.1915551084066465
23,23,male,475,75,75,same,valid,anti,1,0,1,0.6238589338709062,0,j,change,0.3895537145763228,0.0035115847593849836,0.49981061741937083,0.03531175323360003,0.35326987226244455,1.001076321661003,4.661393887865415
23,23,male,476,105,105,same,catch,clock,5,0,2,0.6307062126143137,1,j,change,1.275273434130213,0,0.4997583407712227,0.03538423496684118,0.3532942466499662,1.00105387156691,7.07581845827508
23,23,male,477,75,75,same,valid,clock,1,0,2,0.6812054546030595,1,j,change,0.411027229719366,0.004826827767275388,0.4999231886058624,0.03532073327141916,0.35330322668778535,1.001025007160024,4.743967258782504
23,23,male,478,165,165,same,valid,anti,5,2,4,0.6653467080304836,1,f,same,0.5465831437636552,0.05949299937746877,0.49975545433062507,0.035372689203541086,0.3532855873281733,1.0010541922824814,4.872777560938175
23,23,male,479,105,55,change,valid,anti,3,0,3,0.6958711390248027,1,j,change,0.44263279310916914,0.0033817241175061186,0.4997897709031349,0.035329392593212106,0.3532948880811091,1.0010416843729217,4.778127322181717
23,23,male,480,105,155,change,valid,clock,2,1,3,0.6853507041469129,1,f,same,0.49444344131734397,0.01692709001533274,0.5001823268366934,0.03533259974938119,0.3533195831851117,1.0010256485911668,4.838149252716448
