subject,age,gender,ntrial,memory_ori,test_ori,type,trial_type,which_change,trial,quest,pas,pas_rt,vis,test_key,test,test_rt,contrast,fix_dur,target_dur,mask_dur,retention_dur,trial_dur
24,24,female,1,45,95,change,valid,clock,3,0,1,1.0416113159790257,0,j,change,1.7375322242028233,0.2,0.5018556779064056,0.03534768142890243,0.35329881545794706,1.0010744073601927,6.559664887533472
24,24,female,2,45,45,same,catch,anti,5,2,1,0.32007268766710695,0,j,change,2.2079359896956703,0,0.49917447028519746,0.03534254993110153,0.35327861018504336,1.0010397697496956,7.79327857169892
24,24,female,3,135,135,same,catch,clock,1,2,1,0.3921756845256823,0,f,same,1.4027314963000208,0,0.49973540714245246,0.03533549412168213,0.35330875773524895,1.0010798595767483,7.075534686039191
24,24,female,4,15,325,change,valid,anti,3,2,1,0.28947805611187505,0,j,change,3.0270333720550298,0.2,0.4997110325275571,0.035332286935499724,0.3533119649209766,1.0010320725027668,7.145592460290118
24,24,female,5,75,75,same,valid,anti,3,1,1,0.41754099906393094,0,j,change,2.121125799310903,0.2,0.5004961516974618,0.035330041905126564,0.35332671797732473,1.0010352796889492,6.32283471637902
24,24,female,6,105,105,same,valid,clock,4,0,2,2.3327423558321243,1,f,same,1.5660507158759174,0.3150270229513009,0.49906189805142276,0.03535249220794867,0.3533174171375322,1.0010564471176622,7.7582650790668595
24,24,female,7,105,55,change,valid,anti,5,0,1,0.7583901593266091,0,j,change,0.6805947277707673,0.23704404819608071,0.49936529786100436,0.035322986095707165,0.353291438929773,1.0010837081999853,5.237525809830913
24,24,female,8,135,185,change,valid,clock,3,0,1,0.5534381356242193,0,j,change,1.504415974609401,0.2914418032347298,0.49985792165352905,0.035293479982556164,0.35331164420222194,1.0010525984944252,5.87431646845198
24,24,female,9,15,15,same,catch,clock,2,0,1,0.3508809178197225,0,f,same,1.4586744443072348,0,0.5000311097055601,0.035317854597451515,0.35330202264412947,1.0010365625635131,7.086855732428376
24,24,female,10,135,185,change,catch,clock,5,0,1,0.9629842610547712,0,f,same,1.2526018297639894,0,0.500399936112899,0.035306950164795126,0.35331934144915067,1.0010574092739262,7.652578032442307
24,24,female,11,15,65,change,catch,clock,1,1,1,0.349554425628412,0,j,change,0.7974078238662514,0,0.5008964085286607,0.03531721316039693,0.35327668587342487,1.0010795388579936,6.487050023765278
24,24,female,12,75,125,change,catch,clock,3,2,1,0.4940644605931084,0,j,change,0.8103382362660341,0,0.5009416298535143,0.03531945819077009,0.35329689114632856,1.001058050710526,6.663980862078915
24,24,female,13,75,125,change,catch,clock,1,2,2,1.7289953361096195,1,j,change,0.990573438469255,0,0.5001417576277163,0.0350994452210216,0.3534325551204347,1.0011237980265832,8.10055715237786
24,24,female,14,165,165,same,valid,clock,1,2,2,1.383912048692764,1,f,same,3.30608807318049,0.3670372117912738,0.5001863375150606,0.03534094633778295,0.3533119649209766,1.0010641443641362,8.524181221411709
24,24,female,15,75,75,same,catch,anti,5,1,1,1.184692228795484,0,j,change,0.8957007028229782,0,0.49963117359266107,0.035328438311807986,0.3532859867132174,1.0010785767021844,7.452125049470851
24,24,female,16,75,75,same,valid,anti,1,1,2,1.1652791310320936,1,f,same,2.5724978014736735,0.33948538693435915,0.5004053883294546,0.03530887447686837,0.3533148513888591,1.001026620286666,7.559154303498417
24,24,female,17,75,125,change,valid,clock,4,1,1,1.2357438972057935,0,j,change,0.8910961456676887,0.277883819201003,0.4992052592724576,0.03533517340292747,0.35331036132765803,1.0010535606502344,5.873103831368553
24,24,female,18,15,325,change,valid,anti,3,1,1,0.4342238192584773,0,j,change,1.0033390015005352,0.3477553019009776,0.49991244381817523,0.035352171489194006,0.35328726958778134,1.0010747280789474,5.226207008471192
24,24,female,19,75,125,change,valid,clock,1,2,1,0.3371676312813179,0,j,change,1.6308778902357517,0.3227502669243441,0.5003803722770499,0.03527776477085354,0.3533841266098534,1.001030468909903,5.768739428312983
24,24,female,20,165,215,change,valid,clock,1,2,2,1.0958015367550615,1,f,same,1.477410184355449,0.410545444309991,0.5000372033591702,0.0353226653769525,0.353286628150272,1.0010320725027668,6.463709085124719
24,24,female,21,75,25,change,valid,anti,5,2,2,1.270336286296697,1,f,same,1.3073972465663246,0.38602135432929263,0.4996170619738223,0.03531945819077009,0.3532920803668276,1.0010426562171233,6.486799221808269
24,24,female,22,135,135,same,valid,anti,1,2,2,1.1914500907314505,1,f,same,1.56129991103262,0.3675055704312141,0.4996250799390509,0.0353226653769525,0.3533206243237146,1.001049391307788,6.674786192935244
24,24,female,23,105,155,change,valid,clock,4,2,1,0.5142203426685228,0,j,change,1.3092535659097848,0.3520309877693225,0.5001330982249783,0.035342870649856195,0.3532622535358314,1.0010875568232223,5.6387842455319515
24,24,female,24,75,75,same,catch,anti,5,0,2,0.5582999091084275,1,f,same,1.7455540382002255,0,0.5002235408746856,0.03532619328188957,0.35327283724973313,1.001074086641438,7.676744821516877
24,24,female,25,15,15,same,valid,clock,2,1,2,1.1038554226142878,1,f,same,1.4905205198974727,0.4073765424767183,0.49994194993041674,0.03535024717803026,0.35327187509437863,1.0010744073601927,6.427981993574122
24,24,female,26,15,325,change,valid,anti,2,2,2,0.8958437433252584,1,j,change,0.803743299386042,0.3950139620174385,0.49940955703004875,0.035313685255914606,0.3533385845662451,1.0010195644767919,5.544231587063223
24,24,female,27,75,25,change,catch,anti,4,2,2,1.379666696386721,1,f,same,1.0816164731345452,0,0.4992232195145334,0.03535088861508484,0.3533324909121802,1.0010593335855447,7.75824647738682
24,24,female,28,105,55,change,valid,anti,3,1,2,1.1071892926165674,1,f,same,1.8253837879306047,0.37650295421635604,0.49976683756722196,0.03531881675371551,0.3532965704275739,1.00105901286679,6.8277789145472525
24,24,female,29,45,355,change,valid,anti,3,0,2,0.7468423648761018,1,f,same,2.457025629907548,0.33731702807792585,0.5003354716714057,0.03531785459790626,0.3533174171375322,1.0010519570569159,7.00573220380511
24,24,female,30,135,135,same,valid,clock,1,2,2,0.6044176423461067,1,f,same,0.7971599083766705,0.3838417746156222,0.49904233421557365,0.035314647411723854,0.3532863074319721,1.001047787715379,5.237151210488264
24,24,female,31,75,125,change,valid,clock,3,2,2,0.7409228614001222,1,j,change,0.7391528153643776,0.37337252315987923,0.5003608084416555,0.03533100406093581,0.35334499893860993,1.0010060942954624,5.2627583468624834
24,24,female,32,135,185,change,valid,clock,3,2,2,0.7940694638032255,1,f,same,1.4254316391479733,0.3640226493325389,0.4994958303373096,0.035322986095707165,0.35331966216790534,1.0009935862690327,6.097665874064205
24,24,female,33,45,355,change,valid,anti,2,2,2,0.6764430253001592,1,j,change,0.9718453956675148,0.3554719661360529,0.5000375240779249,0.03530053579243031,0.35331164420222194,1.0010731244856288,5.54478322308114
24,24,female,34,75,75,same,valid,clock,4,0,2,0.8569777786901795,1,f,same,0.9588562917615491,0.2962009779365705,0.49993104549776035,0.03533196621674506,0.35329753258338314,1.0010827460437213,5.697775944692694
24,24,female,35,15,15,same,valid,anti,1,0,2,0.5017434263909308,1,j,change,0.659402283131385,0.2658502725737619,0.49990827447572883,0.035305346571931295,0.3533061919861211,1.0010907640094047,4.967702994036699
24,24,female,36,135,135,same,catch,clock,1,0,2,0.5129041134728141,1,f,same,0.7197579985618177,0,0.499227709574825,0.03535024717757551,0.353283741683299,1.001087877541977,6.6032774876703115
24,24,female,37,45,355,change,valid,anti,4,1,1,0.9592469270342008,0,j,change,0.6573528911817448,0.35305790245920365,0.5007338041909861,0.03532491040732566,0.3533116442026767,1.0010513156198613,5.438865900491237
24,24,female,38,45,45,same,valid,anti,1,1,2,0.5422889944125018,1,f,same,0.5610128678722504,0.3854282313712304,0.5003043619653909,0.035323948251061665,0.3533283215706433,1.0010779352651298,4.920583015127249
24,24,female,39,105,105,same,valid,anti,4,1,2,1.3522638564872977,1,j,change,0.6650302533871582,0.36775805898465563,0.4997293134888423,0.03525114512603977,0.3533020226436747,1.001057729992226,5.839192327897763
24,24,female,40,15,325,change,valid,anti,5,1,2,0.5377415251705315,1,j,change,0.5702983132123336,0.35269600912114857,0.49946055128975786,0.03531400597466927,0.35330907845354886,1.0010647858016455,4.907617002961615
24,24,female,41,15,65,change,valid,clock,5,0,2,0.7470829038379634,1,f,same,0.6635347424853535,0.2417536102228205,0.5003300194548501,0.03532202393989792,0.35330073976956555,1.0010545228060437,5.297585501979029
24,24,female,42,15,15,same,valid,anti,2,2,2,1.3534104255359125,1,j,change,0.6119894881267101,0.34808616576518975,0.4999336112468882,0.035331324779690476,0.35326834718944156,1.001075369516002,5.827580069005762
24,24,female,43,135,135,same,valid,anti,3,2,1,0.5595577675162531,0,j,change,1.6349782777283508,0.34109553750932275,0.49967350845008696,0.035317854597451515,0.35330138120662014,1.0010586921480353,5.979769069768281
24,24,female,44,105,105,same,valid,clock,2,2,2,0.9931414324191792,1,f,same,0.7177801268635449,0.3636290667988511,0.5002661964504114,0.035336135558736714,0.3533203036049599,1.0010695965811465,5.556730632925337
24,24,female,45,105,55,change,catch,anti,2,0,2,0.5911989039118453,1,j,change,0.9026862749751672,0,0.49989031423365304,0.03533356980960889,0.353291438929773,1.0010432976546326,6.8276980934560925
24,24,female,46,45,45,same,valid,clock,3,1,2,0.5539698870875327,1,f,same,0.8332991233478424,0.33928464202853237,0.5004538168404906,0.03532811759305332,0.35329304252309157,1.0010468255595697,5.25062684453269
24,24,female,47,45,95,change,valid,clock,2,1,2,0.8766955591372607,1,j,change,1.0326270254181509,0.3275946490180738,0.5000792174978415,0.0353104780697322,0.35335237546632925,1.0009961520181605,5.673773684267871
24,24,female,48,105,155,change,valid,clock,2,2,1,2.3790169204730773,0,j,change,1.403618603988889,0.3575077971892023,0.49988325842423365,0.035320099627824675,0.35330587126736646,1.0010208473513558,7.594161061039813
24,24,female,49,135,135,same,catch,anti,1,0,2,1.528119646003688,1,f,same,0.8474941292456606,0,0.4994737007527874,0.03536243448525056,0.35329753258338314,1.0010750487972473,7.793740727223394
24,24,female,50,165,165,same,valid,anti,1,2,2,1.2538526323623955,1,f,same,1.2106008406676665,0.37716105700199754,0.5000939705541896,0.03534126705653762,0.3533100406093581,1.0010641443641362,6.3099755035118505
24,24,female,51,165,165,same,valid,clock,4,1,1,0.4380474265858538,0,f,same,1.4902299488326207,0.3171364538522242,0.5128973783821493,0.0353226653769525,0.353319020730396,1.0010452219662511,5.828221506235877
24,24,female,52,75,75,same,catch,clock,5,2,1,0.5851228897518013,0,j,change,0.6381989340593464,0,0.4995663884324131,0.0353653209526783,0.35329881545794706,1.0010599750221445,6.521150751219011
24,24,female,53,45,355,change,valid,anti,3,1,1,0.5918987119298436,0,j,change,0.7674613646317994,0.3340464570088018,0.5001802438614504,0.035336135558736714,0.3533058712678212,1.001071520892765,5.250309974541324
24,24,female,54,45,95,change,valid,clock,5,0,1,0.38667856746542384,0,j,change,0.8343963017296119,0.2212952472261826,0.4997289927705424,0.035358265143258905,0.3532584049125944,1.0010336760960854,5.026385199733795
24,24,female,55,135,85,change,valid,anti,3,2,1,0.4275974519546253,0,j,change,1.6104538873978527,0.37211286195829657,0.49924310406868244,0.03533741843330063,0.35330330551823863,1.0010487498707334,5.8381974587537115
24,24,female,56,45,45,same,catch,anti,4,2,1,0.858971044881855,0,f,same,0.6855944102594549,0,0.49984573434630875,0.03533100406093581,0.3532606499425128,1.0010638236458362,6.886474269707378
24,24,female,57,15,15,same,valid,anti,5,1,2,1.0414711619441732,1,f,same,0.6771563034999417,0.34930617336436115,0.5004801157665497,0.035322344658197835,0.3533305666005617,1.0010599750225992,5.544629278146203
24,24,female,58,135,185,change,catch,clock,4,1,1,0.40661090866660743,0,f,same,1.3302850098043564,0,0.49995862729838336,0.03530021507413039,0.3533283215706433,1.0010583714292807,6.981215831440295
24,24,female,59,45,355,change,catch,anti,5,2,1,0.5136404834124733,0,f,same,2.014091413785536,0,0.5004701734897026,0.035309195195168286,0.35331228563973127,1.0010570885547168,7.888086201466194
24,24,female,60,165,115,change,valid,anti,5,0,1,0.4408389614104635,0,j,change,1.3157035379754234,0.23813585462592335,0.500533355056632,0.03534960574052093,0.35330587126736646,1.001075369516002,5.592636685462821
24,24,female,61,165,215,change,catch,clock,1,1,1,0.36191267601816435,0,f,same,0.5865221850685884,0,0.4990561251161125,0.035350567896330176,0.3532959289905193,1.001055164243553,6.262105363762203
24,24,female,62,135,135,same,valid,anti,4,2,3,1.5169730705406437,1,f,same,1.5064339361347265,0.38893158263167416,0.4996545860517472,0.035328438311807986,0.3532731579684878,1.0010339968143853,6.886443801439327
24,24,female,63,135,135,same,valid,clock,2,2,2,0.8645108175182941,1,f,same,1.099561321078454,0.38436058393884737,0.500528544277131,0.03530566729023121,0.3533417917524275,1.0010580507109808,5.839820294945639
24,24,female,64,165,165,same,valid,clock,5,2,2,0.9535371735323679,1,f,same,1.1966476566053643,0.3798246754782582,0.49920686286532145,0.03535024717757551,0.3532850245574082,1.001080180295503,6.0031818493789615
24,24,female,65,15,15,same,catch,clock,3,0,1,1.2443750765714867,0,j,change,0.9761523259476235,0,0.49989031423365304,0.035332286935044976,0.35332928372645256,1.0010266202862113,7.569692155030225
24,24,female,66,135,185,change,valid,clock,4,2,2,1.34170676183885,1,j,change,0.9624092125777679,0.37568274952966574,0.5005590125460913,0.03534960574052093,0.35328887318064517,1.0010436183729325,6.121785838220603
24,24,female,67,165,115,change,valid,anti,1,1,1,0.5611748307728703,0,f,same,0.8246701890125223,0.3405394377596744,0.49989384213813537,0.03532106178408867,0.35329881545794706,1.001046504840815,5.226110472168784
24,24,female,68,135,185,change,valid,clock,4,1,3,1.9125846135884785,1,j,change,0.8011332912979015,0.3544236078911532,0.5005089804417366,0.03531593028583302,0.35333152875637097,1.0010445805291965,6.451888359133136
24,24,female,69,75,75,same,valid,clock,4,2,2,3.844580079910429,1,f,same,1.0815933813942138,0.3718728672557694,0.500051314978009,0.03535698226869499,0.3532824588087351,1.0010561263993623,8.794775044756534
24,24,female,70,105,105,same,valid,anti,1,0,2,1.5676049182839051,1,j,change,0.9487555797022651,0.2546284050295883,0.4998964078872632,0.03534351208691078,0.3533296044447525,1.0010516363381612,6.29821346902736
24,24,female,71,105,105,same,valid,anti,5,1,2,1.886116347733605,1,f,same,1.4348751987654396,0.346413771060194,0.4998239254805412,0.035326834718944156,0.3532484626352925,1.001100385567952,7.157508439710455
24,24,female,72,75,75,same,valid,anti,2,0,1,1.6387557015750644,0,j,change,0.9386843737552226,0.23823951411017683,0.5004018604245175,0.03530887447641362,0.35332126576076917,1.001046504840815,6.369741096691087
24,24,female,73,135,85,change,valid,anti,5,1,1,0.28557170338126525,0,j,change,3.15000073765259,0.3392856240187766,0.4996654904848583,0.03536788670180613,0.3532895146181545,1.0010535606502344,7.216762165979617
24,24,female,74,105,105,same,valid,clock,2,1,3,1.4021041706887445,1,f,same,1.0901546441018581,0.351000191963978,0.49980853098668376,0.03531689244164227,0.3533116442026767,1.0010686344253372,6.345646148586184
24,24,female,75,15,15,same,valid,clock,5,1,3,1.44025140490794,1,f,same,0.9008793462985523,0.34440190910635193,0.49964945455394627,0.03532170322114325,0.3533017019253748,1.0010262995679113,6.1567149818570215
24,24,female,76,45,355,change,valid,anti,4,0,2,0.6854994775490013,1,j,change,0.7148266291383152,0.25212129134029493,0.499753367384983,0.035313364536705194,0.3533167757004776,1.0010481084336789,5.1914901805580485
24,24,female,77,75,75,same,valid,anti,5,2,3,1.0795927386739095,1,f,same,0.9207016810146342,0.3680074838556353,0.4995974981384279,0.03534415352396536,0.35329400467844607,1.0010772938276205,5.850782457205241
24,24,female,78,15,65,change,valid,clock,5,2,3,1.0703669469962733,1,f,same,0.9509813668896641,0.3644573302258518,0.4997152018700035,0.03532202393989792,0.3532898353364544,1.001064144364591,5.814744589316888
24,24,female,79,15,65,change,valid,clock,2,1,3,0.5887316156072302,1,f,same,0.8788139055895954,0.33810351680773937,0.5003345095151417,0.03532555184438024,0.35329047677396375,1.0010904432911047,5.309612129321067
24,24,female,80,135,85,change,valid,anti,2,0,2,1.2740524528880997,1,j,change,0.7048619017714373,0.2382568579941695,0.49928896683059065,0.0353297211863719,0.35329849473964714,1.0010712001740103,5.685179400371453
24,24,female,81,75,125,change,valid,clock,1,0,3,1.2108378517241363,1,j,change,0.7551961226404273,0.2260892912783874,0.5001212316365127,0.03530983663222287,0.353311323483922,1.0010157158535549,5.7328067561302305
24,24,female,82,75,25,change,catch,anti,2,2,1,0.9977892865872491,0,f,same,0.9535002908914976,0,0.5004749842687488,0.03529508357587474,0.35334660253147376,1.0010336760956307,7.263861618897408
24,24,female,83,135,135,same,catch,anti,3,2,1,0.4530083085364822,0,j,change,0.9629181930199593,0,0.5009291218275393,0.035357623705749575,0.3533049091115572,1.0010599750225992,6.747009459274523
24,24,female,84,75,75,same,valid,clock,3,0,2,1.0448951538774054,1,f,same,0.8166913513096006,0.2151809765352225,0.4994669656621227,0.035319137472470175,0.353316134263423,1.001041694061314,5.67335226000796
24,24,female,85,45,95,change,valid,clock,4,0,2,0.7128718491799191,1,j,change,0.6560324926444991,0.20525076958438448,0.49969018581759883,0.03532426896981633,0.3532779687479888,1.0010744073601927,5.156070658159479
24,24,female,86,45,45,same,valid,clock,2,2,3,1.090480173495962,1,f,same,1.3866227624266685,0.36085615324502907,0.49955291825062886,0.03538937484881899,0.3533081162977396,1.0010535606502344,6.309803919053138
24,24,female,87,15,15,same,catch,anti,3,1,1,1.0058181563940707,0,j,change,1.3846375141997669,0,0.4999320076535696,0.03532619328188957,0.3533029847999387,1.0010923676027232,7.7117685771445394
24,24,female,88,165,165,same,valid,clock,1,1,1,0.6945735693225288,0,j,change,1.7604979220641326,0.33240123414790257,0.499495188900255,0.03534960574052093,0.35330907845354886,1.0010320725027668,6.297423218360109
24,24,female,89,75,125,change,valid,clock,3,0,2,0.8557834225680381,1,j,change,0.820152546602003,0.19609660478117294,0.5005141119395375,0.035308553757658956,0.35330715414193037,1.0010439390916872,5.379776702871368
24,24,female,90,165,165,same,valid,anti,2,0,3,1.1303214434387883,1,f,same,0.7000844772833261,0.18757049212689142,0.5002312381211595,0.03531721316039693,0.3533029847999387,1.0010644650828908,5.639424399887048
24,24,female,91,135,85,change,valid,anti,4,1,3,1.427951525305616,1,j,change,0.6560212674930881,0.3416681178107227,0.499693393004236,0.03533998418242845,0.35329528755301,1.001042976935878,5.850819660564412
24,24,female,92,45,355,change,valid,anti,4,2,2,0.8664707289740363,1,j,change,1.1972550976620369,0.3574525793731348,0.4995865937053168,0.03535345436375792,0.3532882317435906,1.0010817838883668,5.814644845827388
24,24,female,93,15,65,change,catch,clock,1,1,3,0.8825454666744008,1,f,same,2.600054586308488,0,0.5005000003206987,0.03531817531620618,0.3533068334231757,1.0010602957408992,8.85482254959743
24,24,female,94,15,15,same,valid,clock,5,0,1,0.7756573288374966,0,j,change,2.5312110527329423,0.17956994959448586,0.4993527898350294,0.03534639855433852,0.3532792516225527,1.0010779352651298,7.1224532536584775
24,24,female,95,165,165,same,catch,anti,4,2,1,0.8619655945899467,0,j,change,1.369571115825238,0,0.4996359843717073,0.0353470399913931,0.3533017019253748,1.0010657479574547,7.5227488920772885
24,24,female,96,105,105,same,valid,clock,4,2,2,1.3507343494125053,1,f,same,1.541528570576702,0.354298708535732,0.49953303369647983,0.03534190849404695,0.353259046349649,1.001095254070151,6.710195773056967
24,24,female,97,135,185,change,valid,clock,2,0,2,1.88904482940643,1,j,change,0.8922629199887524,0.18683106195468746,0.4992931361725823,0.035358906580768235,0.3532882317435906,1.0010702380177463,6.66312839200009
24,24,female,98,135,135,same,catch,anti,4,2,1,0.37837131390097056,0,j,change,2.2203099552980348,0,0.49911706165312353,0.0353480021476571,0.353278930903798,1.0010721623298195,7.88730012014139
24,24,female,99,135,85,change,valid,anti,4,0,1,0.48397721871515387,0,j,change,0.8470387088123061,0.17948469114048754,0.4998114174541115,0.03533260765425439,0.3532539148518481,1.0011106485635537,5.097376265154708
24,24,female,100,45,45,same,catch,clock,2,1,2,0.6040597203718789,1,j,change,1.1951325818681653,0,0.4992812695836619,0.035320099627824675,0.35328919389939983,1.0010458634033057,7.1455029797966745
24,24,female,101,45,45,same,catch,anti,1,1,1,1.0577729684241604,0,j,change,2.05533743126216,0,0.5077158484386928,0.03535537867583116,0.3533132477955405,1.0010522777756705,8.496538163270088
24,24,female,102,45,45,same,valid,clock,1,0,2,0.6484808521367995,1,f,same,0.41008044264299315,0.18619334910426846,0.49981975613854956,0.035326193281434826,0.3532984947391924,1.001063182208327,4.861413317134975
24,24,female,103,135,85,change,valid,anti,2,2,2,0.5646523827149394,1,j,change,0.6697300639707464,0.3510675475673713,0.49938550313390806,0.035296366450438654,0.3533257558215155,1.0010590128663353,4.967119286157413
24,24,female,104,135,185,change,valid,clock,1,0,2,1.2620752162124518,1,j,change,1.5262950778032973,0.17940097879079195,0.4998078895496292,0.035390978442137566,0.3532773273109342,1.0010583714297354,6.580761116588292
24,24,female,105,15,15,same,catch,anti,2,2,2,0.24976731864444446,1,j,change,0.6178361884776677,0,0.500064785160248,0.035329721186826646,0.35325840491213967,1.0010923676022685,6.180736164680184
24,24,female,106,165,215,change,catch,clock,4,0,1,1.4241907788264143,0,j,change,0.8780586132515964,0,0.49992366897004104,0.035329079749317316,0.3532933632413915,1.0010586921480353,7.581782284658402
24,24,female,107,15,15,same,valid,anti,5,0,2,0.6217858382206032,1,f,same,1.3631108807639976,0.17294304753718764,0.49997498394805007,0.035329079749317316,0.3533023433624294,1.0010484291524335,5.83946461800133
24,24,female,108,15,325,change,catch,anti,5,0,2,1.1228932795979745,1,f,same,0.9568931731191697,0,0.4989336106054907,0.03533966346321904,0.35330394695574796,1.0010250166933474,7.416155173928928
24,24,female,109,45,95,change,catch,clock,5,2,1,1.192931169295207,0,j,change,1.0338409453756867,0,0.4997309170821609,0.03532875903056265,0.35330394695574796,1.001057729992226,7.546506764917467
24,24,female,110,75,75,same,valid,clock,1,0,2,1.12559661680325,1,j,change,1.065407995771693,0.16668888254654424,0.49971167396506644,0.035287065610646096,0.35331549282545893,1.0010837081999853,6.003484928470243
24,24,female,111,15,15,same,catch,clock,5,2,1,0.9967014090452722,0,f,same,1.4599537908616185,0,0.49963694652751656,0.03532715543769882,0.3532609706612675,1.001075369516002,7.770251937301055
24,24,female,112,135,85,change,valid,anti,3,0,2,0.6147566483364244,1,j,change,0.5933842805543463,0.16087546540455708,0.5000509942597091,0.03537462179247086,0.35328181737122577,1.0010670308320186,4.990892874209749
24,24,female,113,15,65,change,catch,clock,4,0,1,0.7172426024644665,0,j,change,2.2664741927351315,0,0.4997004488136554,0.03529893219956648,0.3533033055186934,1.0010769731088658,8.324188469652654
24,24,female,114,75,75,same,valid,anti,5,1,3,0.8432606435280832,1,f,same,0.6689414168963594,0.33626556659392004,0.49921263580017694,0.035336135558736714,0.3532920803672823,1.0010426562171233,5.355392466576632
24,24,female,115,45,355,change,catch,anti,4,0,2,0.35954801767047684,1,j,change,0.6711030603610197,0,0.49980500308220144,0.03531721316039693,0.35330330551823863,1.0009990384855882,6.3215037341269635
24,24,female,116,15,15,same,valid,anti,4,1,2,0.8890631103677151,1,f,same,0.9194912889615807,0.3313072991749854,0.5003524697576722,0.03532042034657934,0.3532863074319721,1.0010766523901111,5.650855452761334
24,24,female,117,105,105,same,valid,clock,2,0,2,0.5591584728408634,1,f,same,0.915899881911173,0.1552189122168961,0.4995153941731587,0.03533324909130897,0.3533004190508109,1.001057729992226,5.261142566479975
24,24,female,118,165,165,same,catch,clock,3,2,2,0.9088998774213906,1,f,same,0.7329081032121394,0,0.5001812060172597,0.03530213938574889,0.3532991361767017,1.0010805010138029,7.016572813709445
24,24,female,119,15,325,change,valid,anti,1,1,2,0.6811915851135382,1,j,change,1.071227435039873,0.3264439882260784,0.5005635026063828,0.035287065610646096,0.35336584564811346,1.0010311103469576,5.580901270623144
24,24,female,120,105,155,change,catch,clock,2,2,2,0.42347493487795873,1,j,change,0.9595201792944863,0,0.4989987164840386,0.035324589688570995,0.3533081162977396,1.0010609371784085,6.686166251549821
24,24,female,121,165,165,same,valid,anti,3,0,2,0.5704006224505065,1,f,same,2.344013370117864,0.1498818586073091,0.5001254009785043,0.035337739151600545,0.3533222279165784,1.001025337412102,6.71102034061596
24,24,female,122,45,45,same,valid,clock,3,0,2,0.7622124837794217,1,f,same,0.5920205850034108,0.14469080541922263,0.4990221289431247,0.035358265143258905,0.35329945689500164,1.001053881368989,5.178076765924743
24,24,female,123,105,55,change,valid,anti,3,2,2,0.9217289427383548,1,j,change,0.4919990327125561,0.34797475317735327,0.4999025015413281,0.03528802776691009,0.3533203036049599,1.0010635029275363,5.17910883842751
24,24,female,124,45,355,change,valid,anti,1,0,1,0.6943881939632774,0,j,change,0.9070214284934082,0.13958127756321145,0.5004300836626498,0.035331966217199806,0.35329528755301,1.00109044329065,5.368800108274627
24,24,female,125,135,135,same,valid,clock,1,0,2,0.49416612839377194,1,f,same,0.9745824083274783,0.14422757080055976,0.4993223215665239,0.03529540429462941,0.3533241522281969,1.0010724830485742,5.237440177960707
24,24,female,126,165,115,change,valid,anti,1,2,2,1.6908490640471427,1,f,same,0.5686687419297414,0.34509066191611915,0.500153303497882,0.03532042034657934,0.35327540299886095,1.0010805010138029,6.098607824636474
24,24,female,127,105,55,change,valid,anti,4,1,2,0.31346684635445854,1,f,same,1.242277576829565,0.3219530492578912,0.49969275156672666,0.03535954801736807,0.353315172107159,1.0010214887884104,5.320699692559174
24,24,female,128,15,15,same,valid,clock,4,1,2,0.2979091070619688,1,f,same,1.0322889879980721,0.3174869621870838,0.4996872993501711,0.035316892442097014,0.3533100406093581,1.0010436183729325,5.143540502591804
24,24,female,129,165,165,same,valid,anti,5,1,2,0.5828239787197163,1,j,change,1.2687612371782961,0.3133572488065643,0.5000833868398331,0.03531336453715994,0.3532859867136722,1.0010978198192788,5.697435341523487
24,24,female,130,135,135,same,valid,anti,2,2,2,0.3815576533402236,1,f,same,1.551962829995773,0.342357224530833,0.5002135985978384,0.03529508357587474,0.3533119649209766,1.0010949333513963,5.685571959956178
24,24,female,131,15,65,change,valid,clock,1,2,2,0.40009390641080245,1,j,change,1.4175865411075392,0.33949249136750503,0.500637909325178,0.03532170322114325,0.3532972118650832,1.0010397697496956,5.568743469367291
24,24,female,132,105,55,change,valid,anti,1,0,3,0.8783857462381093,1,j,change,0.6133705024826668,0.1393793244355317,0.5000205259912036,0.03532330681400708,0.35330555054906654,1.001029506753639,5.24966051934598
24,24,female,133,165,165,same,valid,anti,4,0,2,0.6426957297599074,1,j,change,0.8960865273165837,0.13479185696027995,0.5006241184250939,0.035313685255914606,0.35330202264412947,1.0010647858016455,5.309789486715545
24,24,female,134,45,355,change,valid,anti,2,1,2,1.37865258412603,1,j,change,0.9218190646693074,0.30921223281422966,0.4993107756963582,0.035325231126080325,0.35331805857458676,1.0010423354983686,6.026174166885539
24,24,female,135,135,135,same,valid,clock,4,1,2,1.0734096044961916,1,f,same,0.5465590420521949,0.3053425836175835,0.5006138554290374,0.03535794442495899,0.3533049091115572,1.001070238018201,5.439704258950769
24,24,female,136,105,105,same,valid,anti,2,2,2,0.30927377118223376,1,f,same,0.6636380138793356,0.3367738891927397,0.4994983960859827,0.03534543639898402,0.35330266408118405,1.0010612578971632,4.766640324977743
24,24,female,137,105,55,change,valid,anti,5,2,2,0.46991370744945016,1,j,change,0.5798182038602135,0.33421167261422113,0.5001786402685866,0.03536243448525056,0.3532997776137563,1.0010416940617688,4.802718924130204
24,24,female,138,45,45,same,valid,anti,5,0,2,0.3675531542999124,1,j,change,0.6840357177907208,0.13024986428656748,0.49975721600822,0.03534703999184785,0.3532943253976555,1.0010359211264586,4.802260617229422
24,24,female,139,45,355,change,catch,anti,4,1,2,0.3612147923122393,1,j,change,0.5513537853453272,0,0.5002097499741467,0.03532298609525242,0.3533174171375322,1.0010686344248825,6.180847774758149
24,24,female,140,165,115,change,valid,anti,5,2,2,0.3417458895096388,1,j,change,0.6258955265525401,0.3315483514219119,0.49991372669273915,0.03531881675326076,0.35329432539720074,1.0011266844944657,4.778609222969408
24,24,female,141,165,115,change,valid,anti,1,0,1,0.7283093189926149,0,j,change,1.0267225957168193,0.12588290372112218,0.5004897373250969,0.03526397387031466,0.3533745050513062,1.0010243752562928,5.509795387938084
24,24,female,142,15,15,same,catch,anti,4,2,2,0.2622698924119504,1,j,change,0.5378191390759639,0,0.49949550961855493,0.035309195195168286,0.35330715414193037,1.0010596543038446,6.0622636704706565
24,24,female,143,15,65,change,valid,clock,2,0,2,0.22760341732100642,1,j,change,0.8339841783094926,0.13003707520171162,0.500322642926676,0.035342870649856195,0.3540986876837451,1.000246953333317,4.83797488003529
24,24,female,144,135,85,change,valid,anti,5,0,2,0.18693565550711355,1,j,change,0.6435732158902283,0.12587559936188758,0.4997578574457293,0.035322344658197835,0.353311323483922,1.0010484291524335,4.6140687069073465
24,24,female,145,135,135,same,catch,clock,5,1,1,0.7373231156657312,0,j,change,1.7986608714950307,0,0.49920397639743896,0.03535120933338476,0.35329496683471007,1.0010465048403603,7.793109552988881
24,24,female,146,75,75,same,valid,anti,2,1,2,0.38858716394315707,1,f,same,1.4498729633564835,0.3016841381897021,0.5005121876283738,0.035332286935499724,0.3533081162977396,1.0010500327452974,5.628071923074003
24,24,female,147,15,65,change,valid,clock,3,2,2,0.19689460993868124,1,f,same,1.0408537786101988,0.3289464254316875,0.4989897363630007,0.0353156095675331,0.35331068204686744,1.0009990384855882,5.060160718512179
24,24,female,148,75,25,change,valid,anti,3,1,2,0.2519536574432095,1,j,change,0.6535437161924165,0.2979782649646897,0.5003524697576722,0.03533485268462755,0.3532997776137563,1.0010442598104419,4.661478936163803
24,24,female,149,45,45,same,valid,clock,4,0,2,0.44373440906610995,1,f,same,1.525000978191656,0.12191111193513952,0.5002584992039374,0.03536179304819598,0.3533013812070749,1.00105933358509,5.7687981198191665
24,24,female,150,105,105,same,valid,anti,5,0,2,0.4110852540638916,1,f,same,1.2152195094417948,0.11789068983950363,0.499461834163867,0.035300856511184975,0.3532991361767017,1.0010769731093205,5.426304314499248
24,24,female,151,75,75,same,valid,clock,5,0,1,0.6779006914052843,0,j,change,0.8171371501844078,0.11408653453814108,0.5011106485640084,0.03531785459790626,0.35335750696413015,1.001049070589488,5.310459147183792
24,24,female,152,135,135,same,catch,anti,2,0,2,1.6038182192551176,1,j,change,0.6261011071846951,0,0.4991930719647826,0.03533870130786454,0.35330073976956555,1.0010638236458362,7.5341902079471765
24,24,female,153,135,85,change,valid,anti,2,1,2,0.3476968234108426,1,j,change,0.802270238787969,0.2945194205860367,0.4997629889435302,0.0353297211863719,0.35330330551823863,1.0010336760960854,5.037540113880823
24,24,female,154,15,325,change,valid,anti,5,2,2,0.37508009947396204,1,j,change,0.5624195397172116,0.3264777925930533,0.500250481238254,0.03532362753276175,0.35327027150106005,1.0010760109530565,4.70849083289977
24,24,female,155,105,105,same,valid,clock,1,0,2,0.49805933166089744,1,f,same,0.7220267620441518,0.11752172135900055,0.5001802438614504,0.03533741843284588,0.3533148513888591,1.0010590128663353,5.097732262817317
24,24,female,156,15,325,change,catch,anti,4,0,1,1.8906849844033786,0,j,change,0.45858111518964506,0,0.49942366864888754,0.035294121420065494,0.3533116442026767,1.001061899333763,7.722601169083646
24,24,female,157,165,215,change,catch,clock,3,0,2,0.29305374794967065,1,j,change,0.5313034196942681,0,0.5004983967273802,0.03534639855433852,0.35329368396014615,1.0010426562171233,6.1100324631383955
24,24,female,158,45,95,change,valid,clock,1,2,2,0.2367669895875224,1,j,change,0.5696119753765743,0.32413385920802146,0.5000949327099988,0.0352992529178664,0.3533203036049599,1.0010362418452132,4.60233232991186
24,24,female,159,45,45,same,valid,anti,2,1,3,0.8467856618253791,1,f,same,0.5533781612430175,0.29103856736628186,0.49962475922029626,0.03535441651956717,0.3532879110248359,1.00105901286679,5.261196126489267
24,24,female,160,105,155,change,valid,clock,3,1,2,0.22242830174991468,1,j,change,0.7440829019133162,0.28766771094723004,0.49987459902149567,0.035336135558736714,0.35330843701603953,1.0010788974204843,4.7321723747099895
24,24,female,161,105,55,change,catch,anti,5,2,2,0.3347279247773258,1,f,same,1.0876418137536348,0,0.4991613208221679,0.0354657058792327,0.35322633305077034,1.001062861490027,6.721252547307813
24,24,female,162,45,95,change,valid,clock,3,1,2,0.17009279672402045,1,j,change,0.5981026928175197,0.2845085648753385,0.5006308535157586,0.03530181866699422,0.3533193414496054,1.0010509949015614,4.5680167209857245
24,24,female,163,165,215,change,valid,clock,2,0,1,1.3870063418899008,0,j,change,1.868404982940774,0.11387742057117684,0.4996109683202121,0.03534768142890243,0.35330843701603953,1.0010602957408992,7.134677122948688
24,24,female,164,45,45,same,catch,anti,4,1,2,0.4377908516939897,1,f,same,0.8609999108402917,0,0.4990327126570264,0.03529508357587474,0.35332286935408774,1.0010683137065826,6.650205035410636
24,24,female,165,165,165,same,valid,clock,2,2,3,0.9246638387835446,1,f,same,0.7255578739946031,0.32168243168200533,0.5005715205720662,0.03530823303935904,0.3532744408430517,1.001087877541977,5.4858405938680335
24,24,female,166,135,85,change,catch,anti,3,2,2,0.412377108644705,1,j,change,0.5588634117148104,0,0.500384862338251,0.03532587256313491,0.3532917596480729,1.0010651065204001,6.274633915736558
24,24,female,167,45,45,same,valid,anti,3,2,3,1.0273595428861881,1,f,same,0.9057340639728864,0.3192706832839771,0.500319115021739,0.03531496813002377,0.3533017019253748,1.0010763316718112,5.780476126027224
24,24,female,168,135,185,change,valid,clock,4,0,1,0.4930214836572304,0,j,change,0.7819389236296956,0.11717883029009926,0.5000901219309526,0.035356661550395074,0.35329881545794706,1.0010705587369557,5.10883073048808
24,24,female,169,105,155,change,valid,clock,4,0,2,0.5170198954583611,1,j,change,0.6717759280154496,0.1206697431517799,0.4996744706058962,0.03533421124711822,0.3532994568954564,1.0010198851955465,4.991207819889496
24,24,female,170,75,75,same,valid,anti,2,2,2,0.6050866613768449,1,f,same,0.7631903548367518,0.3169579537017304,0.49955580471851135,0.03530021507413039,0.35330266408118405,1.0010840289182852,5.225708611743812
24,24,female,171,135,185,change,catch,clock,1,1,2,0.3142779437316676,1,j,change,0.5384936103228029,0,0.5005147533770469,0.035328438311807986,0.35330971989060345,1.0010311103469576,6.1457820049918155
24,24,female,172,45,95,change,catch,clock,3,2,1,0.5165436283155032,0,j,change,0.6516408926499935,0,0.5002373317752244,0.03532491040732566,0.3533187000120961,1.0010564471176622,6.474997418215025
24,24,female,173,165,215,change,valid,clock,5,2,2,0.19999756253855594,1,j,change,0.5325811626562427,0.31475888007311803,0.49996407951493893,0.03531336453715994,0.35329528755301,1.0010737659226834,4.484376192672698
24,24,female,174,75,75,same,valid,clock,1,2,3,1.1147341980336023,1,f,same,0.5137376611528452,0.312459012954144,0.4996844128831981,0.0353277968747534,0.3532901560552091,1.0010413733430141,5.438118305399712
24,24,female,175,15,325,change,valid,anti,1,0,1,1.4999932649088805,0,j,change,0.6370113130283244,0.11711747219934203,0.4996949965970998,0.035338380589109875,0.3532689886269509,1.0010532399314798,5.933259418383386
24,24,female,176,45,95,change,catch,clock,4,1,2,0.6758092853169728,1,j,change,0.5285192613978325,0,0.499684733601498,0.0353784704161626,0.3533074748602303,1.001023092381729,6.49775721472588
24,24,female,177,135,185,change,catch,clock,5,1,1,0.4613476339623048,0,j,change,0.5832235941138606,0,0.5008348305545951,0.03530149794823956,0.3533324909121802,1.0010564471176622,6.370020763323282
24,24,female,178,45,45,same,valid,anti,1,0,2,0.23353574954171563,1,j,change,0.5382296589027646,0.12047606178436603,0.49962443850199634,0.03534158777529228,0.35328213808998044,1.001092688321478,4.566499401218607
24,24,female,179,45,45,same,valid,anti,4,0,2,0.21758833713147396,1,j,change,0.6869898569530051,0.11705818750737743,0.499740859359008,0.03532234465865258,0.35327668587342487,1.0010910847281593,4.661162066171983
24,24,female,180,45,45,same,valid,anti,5,1,3,0.5453534607786423,1,f,same,0.5825558579576864,0.28131362757608036,0.49986497746294845,0.03532651400018949,0.35335205474802933,1.0010375247193224,5.026678015829475
24,24,female,181,105,105,same,valid,clock,1,2,3,0.5002338038702874,1,f,same,0.9185159836533785,0.3101995316790824,0.49957697214676955,0.03530983663222287,0.35329560827176465,1.0010760109530565,5.273643536654163
24,24,female,182,45,45,same,catch,anti,5,1,2,0.4193071964768933,1,j,change,0.5397517894493831,0,0.4996446437744453,0.03534543639852927,0.3533154928259137,1.0010362418447585,6.250751924792894
24,24,female,183,165,115,change,valid,anti,4,0,2,1.7834094184795504,1,j,change,0.6963343145184808,0.11382125687153233,0.5004589483382915,0.03536403807856914,0.3532972118650832,1.0010638236458362,6.263033844152233
24,24,female,184,165,115,change,valid,anti,3,1,2,1.084621285837784,1,j,change,0.6499269723713041,0.27818777438687403,0.49987908908178724,0.03533805987035521,0.35327668587342487,1.001077935264675,5.473113837789697
24,24,female,185,105,155,change,catch,clock,4,1,2,0.5400417190771805,1,f,same,1.4468889973627483,0,0.5005772935069217,0.03532811759350807,0.35333794312919053,1.0010756902347566,7.311646768214814
24,24,female,186,105,105,same,valid,anti,1,1,2,1.020904118603994,1,f,same,1.204595705321026,0.2752472079878125,0.5004615140869646,0.03533902202616446,0.3532677057519322,1.0010821046066667,6.063016397059982
24,24,female,187,15,325,change,valid,anti,2,1,2,0.39735753518743877,1,f,same,0.5615086988509574,0.27242374112081336,0.49977645912531443,0.035335494121227384,0.35329624970881923,1.0010481084336789,4.743222093150507
24,24,female,188,75,25,change,valid,anti,4,2,2,0.5921819064669762,1,f,same,0.7182647326908409,0.3079728198770249,0.5002023734459726,0.035341267056992365,0.35327796874753403,1.0010388075938863,5.038576355725581
24,24,female,189,15,15,same,valid,clock,5,2,2,0.1965020503539563,1,f,same,0.43401439000263053,0.30585729151081825,0.499841885722617,0.035338380589109875,0.3533353773800627,1.001038166156377,4.413707770178007
24,24,female,190,165,165,same,valid,anti,3,2,2,0.21364895038414033,1,f,same,0.49908915913374585,0.3038220035924304,0.5000618986923655,0.035375904667034774,0.3532863074319721,1.0010169987281188,4.519624772049156
24,24,female,191,135,85,change,valid,anti,1,2,2,0.4170541482067165,1,j,change,0.5492912439331121,0.30166775448156863,0.5004332908488323,0.0353277968747534,0.3532978533021378,1.001067992987828,4.755639035047352
24,24,female,192,135,185,change,catch,clock,3,1,1,0.39142584440378414,0,j,change,1.018581153676223,0,0.5003890316797879,0.035322986095707165,0.3533132477955405,1.0010330346590308,6.675786835014151
24,24,female,193,105,155,change,valid,clock,5,2,2,0.19345778926117418,1,j,change,0.5854259688426282,0.29952331355581663,0.5000779346232775,0.0353175338791516,0.35331228563973127,1.001053881368989,4.554943268084116
24,24,female,194,105,105,same,catch,anti,1,2,2,0.5930927473332304,1,f,same,1.2219626183209584,0,0.4999060294458104,0.035313043818405276,0.3532757237176156,1.0010519570569159,7.216187438221368
24,24,female,195,165,165,same,valid,clock,3,0,2,0.1953811387948008,1,f,same,0.7785223082246375,0.11053848277700126,0.5007046187970445,0.03537750826035335,0.35329015605566383,1.0010686344253372,4.779747453334039
24,24,female,196,75,125,change,valid,clock,4,0,2,0.11719795843328029,1,f,same,0.6862031341906913,0.10731061361111889,0.4996186655666861,0.03534960574052093,0.3532279366440889,1.0010974991005241,4.602208532526674
24,24,female,197,165,215,change,valid,clock,3,0,1,0.42018500332596886,0,j,change,0.6083919874226922,0.1042499159769524,0.49936882576594144,0.03530791232060437,0.3533401881595637,1.0010525984944252,4.82521508993932
24,24,female,198,15,15,same,valid,anti,4,2,1,0.5174650528961138,0,j,change,0.8584187674268833,0.2974254413673978,0.5003633741907834,0.03529604573168399,0.3533379431287358,1.001029186035339,5.120677434687423
24,24,female,199,165,165,same,valid,clock,5,1,2,0.2896826745877661,1,f,same,0.4372546101694752,0.2694979288763415,0.5003377167017788,0.03530181866699422,0.3533526961850839,1.001061578615463,4.508746317348596
24,24,female,200,15,325,change,catch,anti,2,0,2,0.27818106361837636,1,f,same,0.8717872814540897,0,0.49965683108212033,0.035355378675376414,0.35331773785628684,1.001054202087289,6.439569557132472
24,24,female,201,15,65,change,valid,clock,1,0,2,1.063957706194742,1,f,same,0.8703716294876358,0.1070250161748711,0.5070256619796965,0.035306950164795126,0.3533135685142952,1.001041694061314,5.846237232993644
24,24,female,202,135,85,change,valid,anti,3,1,2,0.18615406424260073,1,j,change,0.6073464447381411,0.2666981636900363,0.49924631125486485,0.03532747615599874,0.35330651270442104,1.0010596543038446,4.5420689814422985
24,24,female,203,135,135,same,valid,clock,2,0,2,0.29528755310320776,1,f,same,0.3677189658237694,0.1040690889231477,0.5006295706411947,0.035364358796869055,0.3533167757004776,1.0010365625635131,4.426677310248579
24,24,female,204,105,155,change,valid,clock,1,1,2,0.0851225690330466,1,f,same,0.7384898899867949,0.2640363507760622,0.4998082102679291,0.0353104780697322,0.35334018815910895,1.0010307896286577,4.566705623287817
24,24,female,205,15,15,same,valid,anti,3,0,2,0.2593327513359327,1,f,same,0.6467983622824249,0.10106908186760379,0.5002912125023613,0.0353794325715171,0.3532635364103953,1.0010410526242595,4.672775607938547
24,24,female,206,15,15,same,valid,anti,2,1,2,0.15051068025059067,1,j,change,0.5950664496899662,0.2613088103011769,0.500665491125801,0.035328438311807986,0.35325295269603885,1.0010920468839686,4.449695285244161
24,24,female,207,75,25,change,valid,anti,2,0,2,0.12772105690874014,1,f,same,0.37769940840234995,0.0980741475960718,0.5003450932299529,0.035349926459275594,0.35330939917230353,1.0010359211264586,4.3087529241520315
24,24,female,208,75,125,change,valid,clock,3,1,1,0.3116201485700003,0,j,change,0.886228599248625,0.25860222596446775,0.4996542653329925,0.035356020112885744,0.3533212657612239,1.0010323932215215,4.978753353915181
24,24,female,209,105,55,change,valid,anti,4,2,2,0.1551085023147607,1,f,same,0.41201245157935773,0.3049178691545631,0.5004140477317378,0.03534736071014777,0.35329400467844607,1.0010513156198613,4.272836608618945
24,24,female,210,135,135,same,valid,clock,2,1,3,0.9850368730189984,1,f,same,1.353249104072347,0.2631775749240534,0.5002735729785854,0.035318496034960845,0.35332607654027015,1.0010372040005677,6.133778469389654
24,24,female,211,165,165,same,valid,anti,5,0,2,0.32090463175381956,1,j,change,0.5837826066594971,0.0952299843552451,0.5000455420431535,0.03535249220840342,0.3533305666005617,1.0010288653170392,4.661755074891062
24,24,female,212,135,135,same,valid,anti,5,0,1,1.671822752933167,0,j,change,1.584358296573555,0.09246214566081835,0.4996728670125776,0.03530823303935904,0.3533049091115572,1.0010538813685343,7.039767825380295
24,24,female,213,135,185,change,valid,clock,5,2,1,0.8350698108206416,0,j,change,0.7673561689261987,0.3029803773243285,0.5002790251946863,0.035327476156453486,0.3532709129385694,1.0010766523901111,5.3677500755293295
24,24,female,214,45,355,change,valid,anti,1,1,3,0.5414422972689863,1,j,change,0.6369920699116847,0.26060616487781674,0.50054201445937,0.03531593028628777,0.35331228563973127,1.0010673515507733,4.920779294919157
24,24,female,215,165,165,same,valid,anti,3,1,3,1.6660411584616668,1,f,same,0.6620087633154981,0.2580701530266838,0.5000096215585472,0.03533485268462755,0.3532712336568693,1.0010333553773307,6.14553344806518
24,24,female,216,105,105,same,valid,clock,5,0,2,0.2777824103795865,1,j,change,1.7904732459737716,0.0950353654647564,0.49920173136752055,0.0353165717228876,0.35329368396014615,1.0010904432911047,5.850193617828154
24,24,female,217,15,15,same,catch,anti,5,2,3,1.3699389800763129,1,j,change,0.80763970983935,0,0.4998723539911225,0.035350567896330176,0.35331870001164134,1.0010602957408992,7.41685049188618
24,24,female,218,165,215,change,catch,clock,5,1,2,0.410538108106266,1,f,same,1.2081111020597746,0,0.500177036675268,0.03534768142890243,0.35330266408118405,1.0010586921480353,6.993709745804608
24,24,female,219,135,135,same,catch,anti,2,2,2,0.25276988631776476,1,j,change,0.5615805398206248,0,0.4992710065880601,0.03536500023392364,0.35333184947512564,1.0010583714292807,6.050360519795049
24,24,female,220,15,15,same,valid,clock,2,0,1,1.5167017425924314,0,j,change,1.2770316081023338,0.09235043574494176,0.49963470149759814,0.0353156095675331,0.35329592899006457,1.0010384868755864,6.569344816770354
24,24,female,221,75,25,change,valid,anti,2,2,2,1.3386390882865271,1,j,change,0.6451841854932354,0.30952395073855027,0.49897947336694415,0.03530117722993964,0.35330779557898495,1.001067992987828,5.79116696033816
24,24,female,222,105,105,same,valid,anti,3,1,2,1.0697130017401832,1,f,same,0.5322286928985704,0.25567038955006727,0.4992014106487659,0.03536339664105981,0.3533042676745026,1.0010567678364168,5.343162503632357
24,24,female,223,75,25,change,valid,anti,1,2,2,0.2540357626912737,1,f,same,1.0018207195771538,0.30774480289285194,0.5005449009267977,0.03533581483998205,0.35326834718944156,1.001082746044176,5.0267771178814655
24,24,female,224,165,115,change,catch,anti,4,2,2,0.2857622102383175,1,j,change,0.6164211779482685,0,0.5002129571603291,0.035362113766495895,0.35328566599446276,1.0010362418447585,6.168821147416111
24,24,female,225,165,215,change,catch,clock,2,1,2,0.2709636119075185,1,f,same,0.65089778761876,0,0.5004034640173813,0.0353409463382377,0.35328983533690916,1.0010525984944252,6.192862214792967
24,24,female,226,75,75,same,valid,clock,2,2,2,0.7566836155765486,1,j,change,1.6856835700345982,0.3060471997458155,0.499632456467225,0.03533517340292747,0.3533138892325951,1.0010465048403603,6.250500802117131
24,24,female,227,45,45,same,valid,clock,2,0,2,0.6791976774843533,1,f,same,0.8473668039559925,0.09485065325361572,0.5003848623377962,0.03529508357632949,0.35334147103367286,1.001037845438077,5.332672118455321
24,24,female,228,75,75,same,valid,anti,4,0,2,0.7601836178214398,1,f,same,0.7882766441798594,0.09216130600491801,0.5003168699918206,0.035333569810063636,0.35328887318064517,1.001069275861937,5.356689131936491
24,24,female,229,45,45,same,valid,anti,3,0,2,0.36223371535197657,1,f,same,0.3456836726641086,0.08944567797354222,0.4996683769518313,0.03535730298699491,0.3533113234834673,1.0010481084336789,4.4486054833905655
24,24,female,230,105,155,change,catch,clock,1,0,2,1.172383689790422,1,j,change,0.7704344261928782,0,0.4999720974806223,0.03530053579243031,0.3533225486353331,1.0010542020877438,7.264298437651178
24,24,female,231,165,115,change,valid,anti,2,0,2,0.3306387624365925,1,j,change,1.136746399452477,0.0868129029711999,0.5000295061126963,0.03535858586155882,0.3532731579684878,1.0010795388575389,5.273962651675902
24,24,female,232,75,25,change,valid,anti,3,2,2,0.38665772075546556,1,j,change,0.7116855110230063,0.30440885963169495,0.49923701041461754,0.035356661550395074,0.353254235570148,1.0011051963469981,4.814155429221046
24,24,female,233,105,105,same,valid,anti,4,2,1,0.6554000355358767,0,j,change,0.9299608274282036,0.30267584591189595,0.4988742776613435,0.035331324779690476,0.3532994568954564,1.0010695965811465,5.485006404750493
24,24,female,234,75,125,change,valid,clock,5,2,2,0.23936673468051595,1,j,change,0.6088381070162541,0.30855376255316025,0.4995740856793418,0.03534639855433852,0.3533068334231757,1.0010660686762094,4.601700193521538
24,24,female,235,165,165,same,valid,anti,2,1,2,0.26989561891923586,1,f,same,0.5499548107472947,0.2533554363000916,0.5003989739570898,0.03532491040687091,0.3532997776137563,1.0010410526238047,4.543752433452482
24,24,female,236,165,215,change,valid,clock,4,0,2,0.13506390959810233,1,j,change,0.5754981241166206,0.08428906083327328,0.5001667736796662,0.03534254993110153,0.35330779557898495,1.001025337412102,4.449661289070718
24,24,female,237,45,355,change,catch,anti,2,0,2,0.29875740779834814,1,j,change,0.7538372378685381,0,0.4998925592640262,0.03530983663222287,0.35330009833251097,1.001070238018201,6.309758697728739
24,24,female,238,135,135,same,valid,clock,5,1,2,1.052250835311952,1,f,same,0.41346113756344494,0.25095531608535315,0.5003296987360955,0.03532875903056265,0.3533296044452072,1.001023092381729,5.2387817439266655
24,24,female,239,105,155,change,valid,clock,2,0,2,0.11914504114474767,1,f,same,0.7429514066398042,0.0817180778040954,0.4994477225450282,0.035352171489194006,0.3532981740204377,1.0010766523905659,4.590148229729493
24,24,female,240,45,45,same,catch,anti,2,0,2,0.16737983796019762,1,f,same,0.6338833443769545,0,0.4994923024328273,0.0353226653769525,0.3532737994059971,1.001093971195587,6.074274582600992
24,24,female,241,105,155,change,valid,clock,4,1,2,0.44488514745671637,1,j,change,0.7134844217343925,0.24856042358647423,0.5000859525889609,0.03533966346321904,0.3533036262369933,1.0010654272387,4.943975589465026
24,24,female,242,75,25,change,valid,anti,5,0,2,0.15336539664212978,1,j,change,0.5468252385026062,0.07910713441764541,0.49987908908178724,0.03533260765425439,0.3532596877871583,1.001061578615463,4.402428737927494
24,24,female,243,45,45,same,catch,clock,2,1,2,0.21765119798010346,1,f,same,0.7944956988426384,0,0.4990788961376893,0.035339984181973705,0.3533360188171173,1.001035279689404,6.262189712757845
24,24,female,244,165,115,change,valid,anti,3,2,2,0.1630985651690935,1,j,change,0.5234936007013857,0.30697203695863623,0.5002174472210754,0.03531176094429611,0.35333056660101647,1.0010695965811465,4.413954082074724
24,24,female,245,75,75,same,valid,clock,3,2,2,0.17613866333476835,1,f,same,1.025450625690155,0.30545212853662196,0.49975721600867473,0.03533934274491912,0.3532539148518481,1.0010833874812306,4.944156474763531
24,24,female,246,15,15,same,valid,anti,3,2,1,0.14769060146909396,0,j,change,1.2762506582748756,0.3039765164425155,0.4990259775663617,0.03533902202616446,0.3533087577347942,1.0010695965811465,5.2252021970507485
24,24,female,247,75,25,change,valid,anti,2,1,2,0.0701106928227091,1,f,same,1.0445628893921821,0.24628226728272815,0.5001032713939821,0.0353156095675331,0.3532725165314332,1.0010843496370398,4.979291840469159
24,24,female,248,165,165,same,valid,anti,4,1,1,0.5764875410436616,0,f,same,1.1675462909211092,0.24409037112937695,0.4997466322938635,0.03534351208691078,0.3532574427563304,1.001087877541977,5.520314637790307
24,24,female,249,45,45,same,catch,anti,3,0,2,0.2584623210150312,1,j,change,0.5565632178081614,0,0.499935214839752,0.035331324779690476,0.35330266408118405,1.0010449012474965,6.098218151519177
24,24,female,250,45,45,same,valid,clock,2,1,2,1.3375207424764994,1,f,same,0.6328031640814515,0.24779320181614878,0.5000965363033174,0.03531977890952476,0.3533443575011006,1.0010452219662511,5.744966481697702
24,24,female,251,135,135,same,valid,clock,1,1,1,0.1994257212481898,0,j,change,3.5644689316673066,0.24565504958136725,0.5065580542382122,0.03533196621674506,0.35327155437562396,1.0010801802950482,7.565046545892528
24,24,female,252,45,45,same,valid,clock,4,2,2,0.2069443277382561,1,f,same,2.7928205855168926,0.30935708420115093,0.49947658722021515,0.03528449986151827,0.3533328116309349,1.0010404111867501,6.8392526229972646
24,24,female,253,45,355,change,valid,anti,5,0,2,0.22527467945792523,1,j,change,0.5586379465285063,0.07658429725326603,0.4999130852552298,0.035284820580272935,0.35332286935408774,1.001070558736501,4.531237030941156
24,24,female,254,135,185,change,valid,clock,5,1,2,0.2945312986089448,1,j,change,2.142273984781241,0.24950146811894108,0.5005590125456365,0.03530823303935904,0.35331805857458676,1.0010590128663353,6.239820230802252
24,24,female,255,45,95,change,catch,clock,1,2,2,0.08302923863311662,1,j,change,0.6512823292382564,0,0.5000769724674683,0.03534062561902829,0.3533017019253748,1.0010372040005677,5.9926116052670295
24,24,female,256,135,135,same,valid,anti,2,1,2,0.5002501605194993,1,f,same,1.3904492562214728,0.24738425814668502,0.49991372669273915,0.03531945819077009,0.35332607654027015,1.0010564471176622,5.721035100086738
24,24,female,257,105,105,same,valid,anti,3,2,2,0.18966689523176683,1,f,same,0.7125918618289688,0.3078662556212929,0.5000865940260155,0.03532330681446183,0.35331420995134977,1.0010397697496956,4.673597609748413
24,24,female,258,105,105,same,catch,clock,3,1,1,0.4861103182233819,0,f,same,0.8909008280311355,0,0.4989778697740803,0.035330683342635893,0.353291438929773,1.0010407319055048,6.6391267730127765
24,24,female,259,75,75,same,valid,clock,3,1,3,0.6370953413056668,1,f,same,0.6713224318941684,0.24536506686785406,0.5000019243116185,0.035337739151600545,0.3533081162977396,1.0010612578967084,5.120917652930075
24,24,female,260,15,15,same,valid,clock,3,2,2,0.7331140045635038,1,j,change,1.618131249603266,0.3064397173923274,0.49967671563626936,0.03536756598305146,0.35328213808998044,1.0010817838883668,6.144744480272493
24,24,female,261,135,135,same,valid,anti,2,0,2,0.1862499591084088,1,j,change,0.6198025143057748,0.074153267333851,0.4996866579131165,0.03536339664105981,0.3532798930596073,1.0010715208923102,4.602193138032817
24,24,female,262,105,155,change,catch,clock,4,1,2,0.21190616543071883,1,j,change,0.5712091540790425,0,0.4999576651425741,0.03534832286641176,0.3532879110248359,1.0010833874816853,6.0747130049476254
24,24,female,263,135,135,same,valid,anti,1,1,2,0.2166040517026886,1,f,same,0.6384304928997153,0.2434022368544184,0.5000711995321581,0.03532074106487926,0.3533103613281128,1.0010439390916872,4.637898099998893
24,24,female,264,105,105,same,valid,clock,3,0,2,0.04790221161147201,1,f,same,0.7421021437471609,0.07166628120082028,0.4999631173591297,0.035309515913468204,0.35329881545794706,1.001080180295503,4.566720376344165
24,24,female,265,75,25,change,catch,anti,3,1,2,0.07388362660913117,1,j,change,0.7381146492075459,0,0.4997270684589239,0.03530053579243031,0.3532988154574923,1.0010984612563334,6.050084060349036
24,24,female,266,45,95,change,catch,clock,1,0,1,0.28121313740393816,0,j,change,1.4051558083101554,0,0.5009191795506922,0.03532555184438024,0.35328406240159893,1.0010323932215215,7.029021186030604
24,24,female,267,45,95,change,valid,clock,2,0,2,0.0841536780972092,1,j,change,0.5741013945489613,0.06912905586521556,0.5001895447016977,0.0353156095675331,0.3533020226436747,1.001066710113264,4.402426492897121
24,24,female,268,15,65,change,catch,clock,2,2,1,0.21975735712476308,0,j,change,1.7716464218387955,0,0.4993832581035349,0.03532106178363392,0.3533132477955405,1.0010388075938863,7.346121774292442
24,24,female,269,15,325,change,valid,anti,4,0,2,0.311610847729753,1,f,same,1.6019660692531943,0.06666527824765608,0.49943713883067176,0.035317854597451515,0.35331998288620525,1.001035600407704,5.649361224734548
24,24,female,270,75,75,same,valid,clock,5,2,2,0.06940639474441923,1,f,same,0.7180383053487276,0.30506166895018605,0.5005987816543893,0.03532619328188957,0.3533206243237146,1.0010609371784085,4.520683784915946
24,24,female,271,135,185,change,valid,clock,3,1,2,0.06170465792502,1,j,change,0.5015413736632581,0.24135848114775849,0.499531430103616,0.035288669203509926,0.35332928372645256,1.0010208473513558,4.284203838488793
24,24,female,272,45,95,change,valid,clock,4,2,2,0.09463476243399782,1,j,change,0.5202655678417614,0.3037179137292341,0.499785759965107,0.035348322865957016,0.3533055505486118,1.0010574092734714,4.3547112602382185
24,24,female,273,105,105,same,catch,anti,4,1,1,0.14157674251191565,0,j,change,0.33250566549395444,0,0.500282873818378,0.035355378675376414,0.35328213808998044,1.0010766523905659,5.7688305123992905
24,24,female,274,105,105,same,valid,clock,3,2,3,0.5608614886859868,1,f,same,0.8517750813184648,0.30228371356973127,0.5002004491343541,0.03533196621674506,0.35331613426296826,1.0010397697496956,5.203012638237851
24,24,female,275,75,25,change,valid,anti,5,1,2,0.24264576179984942,1,j,change,0.8050066100108779,0.23929546552089745,0.499780949185606,0.035336776996246044,0.35327700659217953,1.0010776145463751,4.790218916112281
24,24,female,276,135,135,same,valid,clock,3,1,1,0.204615269156875,0,j,change,1.0438034277126462,0.23730544152499017,0.5002450290216984,0.035313043818405276,0.35330651270442104,1.0010436183729325,5.01449134989798
24,24,female,277,15,65,change,valid,clock,4,2,2,0.8715284615318524,1,f,same,0.8648158209211942,0.30085614609584665,0.5000542014458915,0.03527231255429797,0.3533684113972413,1.0010301481911483,5.568358607029495
24,24,female,278,165,215,change,valid,clock,4,2,2,0.22775672081888843,1,j,change,0.5218014892889187,0.29941991534265816,0.49929538120295547,0.03533645627703663,0.35331228563973127,1.0010888396977862,4.472160982784317
24,24,female,279,45,45,same,valid,clock,1,2,3,0.4406016296356938,1,f,same,0.6928949280918459,0.2980266676682092,0.5001061578618646,0.035272312554752716,0.35334307462699144,1.0010397697496956,4.884748162121923
24,24,female,280,165,215,change,valid,clock,1,0,2,0.1574911209054335,1,f,same,0.8730220481215838,0.06428760714132886,0.5004223864157211,0.03531721316085168,0.35323146454857124,1.001135023178449,4.767649305740633
24,24,female,281,75,25,change,valid,anti,1,0,1,0.23403607058116904,0,j,change,0.9955865911397268,0.06185316213978284,0.5002171265023208,0.03530117722948489,0.353278930903798,1.0010875568232223,5.002819116625233
24,24,female,282,135,85,change,valid,anti,5,2,2,1.0285692935017323,1,j,change,0.7830717017777715,0.2966911718991778,0.49986433602589386,0.03534158777529228,0.35330907845354886,1.0010574092734714,5.5913406615395616
24,24,female,283,45,45,same,valid,clock,5,2,2,0.3263966173162771,1,f,same,0.5652325626892889,0.2953997202610044,0.49988005123805124,0.03532715543769882,0.35331228563973127,1.0010625407712723,4.614259213764399
24,24,female,284,105,105,same,catch,anti,4,2,1,0.3161727493093167,0,j,change,0.6820402065682174,0,0.49964432305614537,0.035392902753301314,0.35328566599446276,1.0010644650828908,6.309648370524883
24,24,female,285,15,65,change,valid,clock,2,2,2,0.20946357245884428,1,f,same,0.6932031386809285,0.2941399114076257,0.5005388072731876,0.03535024717803026,0.35329753258338314,1.0010695965806917,4.697038291878471
24,24,female,286,165,165,same,valid,clock,5,0,1,0.14023934588794873,0,j,change,0.6537977253356075,0.06408268309577428,0.5000477870735267,0.03533709771500071,0.3532705922198147,1.0010532399314798,4.567521210725772
24,24,female,287,75,75,same,valid,clock,2,1,2,1.304012382304336,1,f,same,1.3922058320754331,0.24082006361609698,0.49909493206860134,0.03534351208691078,0.3533087577347942,1.001049070589488,6.474247898812337
24,24,female,288,75,125,change,valid,clock,2,2,2,0.3273757712481711,1,j,change,0.5596456444163778,0.29279590208069284,0.4997552916966015,0.03533773915205529,0.35333730169122646,1.001042976935878,4.590571257582724
24,24,female,289,45,45,same,valid,anti,1,2,2,0.335287258041717,1,f,same,0.5767951101956896,0.29145940336067416,0.4999467607099177,0.0353409463382377,0.3533132477955405,1.001067992987828,4.637751210873375
24,24,female,290,45,355,change,catch,anti,2,0,2,0.1514600073510337,1,j,change,0.5403399873894159,0,0.4999720974806223,0.035326834718944156,0.353278930903798,1.0011093656889898,5.9327754539935995
24,24,female,291,165,165,same,valid,anti,1,1,2,0.24820830545741046,1,f,same,0.5826690716289704,0.23884767239931468,0.5007613859916091,0.035320741065334005,0.35327668587342487,1.001087877541977,4.649949422674581
24,24,female,292,135,135,same,valid,clock,5,2,2,0.26327983533019506,1,j,change,1.3068331025224325,0.290117721544515,0.4998890313595439,0.035303101541558135,0.3533231900728424,1.0010699172994464,5.403218026438481
24,24,female,293,165,165,same,catch,clock,2,2,2,0.3034103934637642,1,j,change,1.1256367066303028,0,0.5000416934199166,0.03531721316039693,0.35328181737122577,1.0010849910740944,6.68682757333363
24,24,female,294,15,325,change,valid,anti,4,1,2,0.1170956491951074,1,j,change,0.5346084250213607,0.23696397397150748,0.5002219372818217,0.03535762370620432,0.3533045883932573,1.001025658130402,4.3787106341951585
24,24,female,295,165,165,same,valid,clock,4,2,3,0.65325891806242,1,f,same,1.6357579446812451,0.2887710790480049,0.4996975623457729,0.035330041905126564,0.35327347868724246,1.0010705587369557,6.1452152951987955
24,24,female,296,105,155,change,catch,clock,3,2,2,0.14507097182240614,1,j,change,0.5895074339368875,0,0.49977261050207744,0.035346719273093186,0.35330266408118405,1.001046504840815,5.991796979984883
24,24,female,297,165,165,same,valid,clock,2,0,1,0.3067878811980336,0,j,change,1.1406254911003089,0.06621036913754694,0.5004512510913628,0.03537943257197185,0.3532898353364544,1.0010365625635131,5.298024886481926
24,24,female,298,15,15,same,valid,clock,1,0,2,0.26983692741305276,1,j,change,1.0783428982313126,0.06846391975139546,0.4991494542332475,0.03533196621674506,0.35331613426296826,1.0010647858016455,5.143109777491645
24,24,female,299,15,65,change,valid,clock,1,1,2,0.2364930958901823,1,j,change,0.7020379743667036,0.23515446965559395,0.5001872996713246,0.035305346571931295,0.35534275519103176,0.9990099416359044,4.743633254415272
24,24,female,300,135,135,same,valid,clock,3,0,1,0.29184560092744505,0,j,change,0.5221459410813623,0.06620075386950477,0.5004599104941008,0.03533645627749138,0.3533000983320562,1.0010246959750475,4.5558191506215735
24,24,female,301,15,15,same,catch,anti,2,1,2,1.3987157785222735,1,f,same,0.5155622293536908,0,0.5105426623108542,0.03531785459790626,0.35328149665292585,1.0010567678364168,7.29827600915678
24,24,female,302,105,105,same,valid,anti,2,0,2,0.054077969261015824,1,f,same,0.6215664666879093,0.06839597367244493,0.49961962772249535,0.03532715543724407,0.3533065127048758,1.0010712001735556,4.543389379979999
24,24,female,303,75,25,change,valid,anti,4,1,2,0.6516623807970063,1,f,same,0.6649449422357065,0.23338607543744444,0.4992312374802168,0.03534319136815611,0.35331998288620525,1.0010599750221445,5.167160787146258
24,24,female,304,15,65,change,valid,clock,4,1,1,0.13987148163641905,0,j,change,0.42755511709765415,0.2315382325868558,0.4998563180606652,0.035362755204005225,0.35327347868724246,1.0010817838883668,4.390716735546448
24,24,female,305,135,85,change,valid,anti,1,1,2,0.4347667958732018,1,j,change,0.6107970563161871,0.23460274272434076,0.4996205898783046,0.0353226653769525,0.3533180585750415,1.0010548435247983,4.837729530294837
24,24,female,306,75,75,same,valid,anti,1,2,2,0.6934674108192667,1,f,same,0.7189061699205013,0.28748055020873275,0.4994329694886801,0.035356020112885744,0.35330394695574796,1.0010384868751316,5.285251305485417
24,24,female,307,15,15,same,catch,anti,2,1,2,0.3166146995604322,1,j,change,1.6314555044618828,0,0.4996706219826592,0.03536756598305146,0.3532981740204377,1.0010695965806917,7.3347757118508525
24,24,female,308,105,55,change,valid,anti,2,2,2,0.18661557832956532,1,j,change,0.5952761996636582,0.28623603129707087,0.5000166773679666,0.0353480021476571,0.35331292707678585,1.0010558056806076,4.602030854413897
24,24,female,309,45,45,same,valid,anti,4,1,3,0.4261154112350596,1,f,same,0.5501212637082062,0.23282521515951898,0.5005378451173783,0.03530759160184971,0.3533334530684442,1.0010481084336789,4.755780151238014
24,24,female,310,165,215,change,valid,clock,5,0,2,0.2048625432089466,1,j,change,0.5909557992017653,0.06619024965975967,0.5000259782077592,0.035353133645003254,0.35328181737122577,1.001052919212725,4.567424995141209
24,24,female,311,45,45,same,valid,anti,5,2,2,0.33776897868438027,1,f,same,0.4314893723471869,0.2850259261793198,0.4997908914629079,0.03533453196541814,0.3533289630076979,1.0010404111867501,4.578778113392218
24,24,female,312,165,115,change,valid,anti,5,1,2,0.25188213719184205,1,j,change,0.5101122579294497,0.23104521824990543,0.4995898008914992,0.03533517340292747,0.3533049091115572,1.0010644650833456,4.531312720534061
24,24,female,313,15,15,same,valid,anti,3,1,2,0.23260053406056613,1,f,same,1.1218044399001883,0.2292379150324853,0.5001558692470098,0.03531593028628777,0.3532920803672823,1.001029506753639,5.1208159851289565
24,24,female,314,135,85,change,valid,anti,1,0,2,0.1992704934386893,1,j,change,1.0922832535493399,0.06404970893124415,0.4999688902944399,0.035359868736122735,0.35328021377836194,1.0010564471176622,4.967703956192054
24,24,female,315,45,355,change,valid,anti,5,2,2,0.13303151573518335,1,j,change,0.6252460713571963,0.2838396013845488,0.49961866556714085,0.035342229212346865,0.3533042676745026,1.0010500327452974,4.472458288940288
24,24,female,316,165,165,same,valid,anti,2,2,3,0.8473427500593971,1,f,same,0.47824244916137104,0.28256765022787467,0.4999769082601233,0.035331324779690476,0.3532859867132174,1.0010410526242595,5.1796598330083725
24,24,female,317,105,55,change,valid,anti,2,1,2,0.08981019230941456,1,j,change,0.48195027706879046,0.2274935586446574,0.49960102604291023,0.03529829076205715,0.35334499893860993,1.0010420147800687,4.3194514557098955
24,24,female,318,165,165,same,catch,anti,1,0,2,0.0745741337873369,1,f,same,0.6571864382208332,0,0.5000048107790462,0.03533036262388123,0.35330234336288413,1.0010410526238047,6.038755958150432
24,24,female,319,15,15,same,catch,clock,1,2,2,0.042620617460215726,1,j,change,0.6300674342955972,0,0.5007703661131018,0.035339022026619205,0.35329753258338314,1.0010240545375382,5.946011511232882
24,24,female,320,75,125,change,catch,clock,5,0,2,1.1376104154010136,1,f,same,0.9463068930767804,0,0.49955323896938353,0.035322986095707165,0.3533100406093581,1.0010724830481195,7.404518861141241
24,24,female,321,15,325,change,valid,anti,4,2,2,0.0012982689531781944,1,j,change,0.5773377660921142,0.2812975896466894,0.500662925377128,0.03529604573213874,0.3533283215706433,1.0010522777756705,4.343857821589609
24,24,female,322,165,215,change,valid,clock,3,1,2,0.03625242864109168,1,j,change,0.5052113567749075,0.22582128893378522,0.49958370723788903,0.03533260765425439,0.3532779687479888,1.0010795388579936,4.260138717215341
24,24,female,323,15,15,same,catch,anti,1,1,2,0.051043329725871445,1,j,change,0.7453965653603518,0,0.49976042319485714,0.035333569810063636,0.35327604443591554,1.0010785767017296,6.027133436263284
24,24,female,324,105,55,change,valid,anti,5,1,2,0.04730984432990226,1,j,change,0.544618694431847,0.22419266933303683,0.5004098783892914,0.03534575711728394,0.3532754029993157,1.0010429769354232,4.3439479435201065
24,24,female,325,75,75,same,valid,anti,5,0,2,1.0100291918079165,1,j,change,0.8936753647694786,0.06185172098971323,0.49924727341021935,0.03533036262342648,0.3533036262379028,1.0010352796889492,5.7561707865106655
24,24,female,326,135,85,change,catch,anti,4,0,2,0.07407669921576598,1,f,same,0.7580216536380249,0,0.4990394477481459,0.03534543639852927,0.3533081162977396,1.001062861490027,6.144126134782709
24,24,female,327,15,65,change,valid,clock,3,0,1,0.10863028135372588,0,j,change,0.47254007218725746,0.05960210380498751,0.5000269403644779,0.035317854597451515,0.3533084370155848,1.0010596543033898,4.390500250481637
24,24,female,328,165,115,change,catch,anti,3,0,1,0.1560510943236295,0,j,change,0.4090653682260381,0,0.4992212952029149,0.03530053579288506,0.35331517210761376,1.0010413733425594,5.9319630737418265
24,24,female,329,45,95,change,valid,clock,3,2,2,0.6393249771163028,1,j,change,0.5114839714460686,0.2800180566909215,0.5001754330824042,0.035316892442097014,0.35328149665292585,1.0010901225714406,4.9443617346769315
24,24,female,330,45,355,change,valid,anti,5,1,2,0.15262998885827983,1,j,change,0.4482209417710692,0.2224998083723585,0.49982135973186814,0.03538007400948118,0.35330490911110246,1.001062861490027,4.342736910029998
24,24,female,331,75,125,change,valid,clock,2,1,2,0.14765211523535982,1,j,change,0.48622770123620285,0.22079480400795318,0.49988903135908913,0.03530085651163972,0.35331902073085075,1.0010538813694438,4.3550922739532325
24,24,female,332,105,105,same,valid,anti,3,0,2,0.10289358748832456,1,j,change,1.2123057808248632,0.06171431739450153,0.4997174468999219,0.03533356980915414,0.3533183792933414,1.001024375255838,5.073524742479094
24,24,female,333,105,55,change,catch,anti,3,2,1,0.080173560086223,0,j,change,0.27719581603378174,0,0.4997277098964332,0.03534768142890243,0.35330587126736646,1.0010596543033898,5.649719467427531
24,24,female,334,165,215,change,valid,clock,3,2,2,0.0774965218070065,1,j,change,0.5476058676113098,0.27872628278555445,0.5008720339146748,0.03534062561902829,0.3533026640807293,1.0010769731088658,4.449938389953786
24,24,female,335,165,165,same,catch,anti,4,0,2,0.18612552028571372,1,f,same,1.0121167492734457,0,0.49970686318556545,0.03535056789587543,0.35328887318064517,1.0010506741828067,6.604181914163746
24,24,female,336,165,165,same,valid,clock,3,2,2,0.21585389086158102,1,f,same,0.41778025515031914,0.2774871350406865,0.4997947400861449,0.03535185077089409,0.35325519772595726,1.0010689551436371,4.461342502465413
24,24,female,337,45,95,change,valid,clock,1,0,1,0.21621630289700988,0,j,change,0.7081111020597746,0.05951072130283899,0.49939833187818294,0.03530310154201288,0.35332864228894323,1.0010426562166685,4.7075427886748
24,24,female,338,165,165,same,valid,clock,3,1,2,0.1467188240658288,1,f,same,0.4140124528621527,0.21905719989470163,0.4998011544594192,0.03535024717803026,0.3533007397700203,1.0010599750221445,4.4022138564550914
24,24,female,339,45,45,same,valid,clock,3,2,3,0.6029295079724761,1,f,same,0.6079493957340674,0.2762894798322043,0.49993489412099734,0.03534639855479327,0.3533071541423851,1.0010721623293648,5.096836175006501
24,24,female,340,105,105,same,valid,clock,4,1,2,0.06676912557395553,1,j,change,0.7139545952240951,0.21738136960899027,0.5002283516541866,0.03530117722948489,0.3532997776137563,1.0010833874812306,4.519675766308865
24,24,female,341,75,75,same,valid,anti,4,2,2,0.28994887103817746,1,f,same,0.6206546636649364,0.27512272423768985,0.5006282877666308,0.03530470513487671,0.35330779557898495,1.0010654272382453,4.708758953661345
24,24,female,342,165,165,same,valid,clock,4,0,2,0.04632748321182589,1,j,change,0.7672349372896861,0.061581671197473875,0.5001978833852263,0.035310478068822704,0.35330330551823863,1.0010413733425594,4.56658278805844
24,24,female,343,105,155,change,valid,clock,1,2,2,0.06742082579967246,1,j,change,0.5913666397473207,0.27397708270950527,0.500547466675016,0.035366603827242216,0.3533113234834673,1.001061899333763,4.438552879123563
24,24,female,344,165,165,same,valid,clock,1,0,1,0.1618612327520168,0,j,change,0.6296626874036519,0.05942240482124633,0.4995683127444863,0.03533902202707395,0.353286628150272,1.0010647858016455,4.578666503313798
24,24,female,345,15,15,same,valid,anti,1,1,2,0.03276910376462183,1,f,same,0.40358332494179194,0.21576910768329932,0.4997540088224923,0.035408617965913436,0.353299136176247,1.0010362418452132,4.201696409041688
24,24,female,346,105,155,change,valid,clock,1,0,2,1.5167636412852517,1,j,change,0.5667213384995193,0.06145352322839168,0.5001901861387523,0.03533998418242845,0.35329657042711915,1.0010295067540937,5.8627779748421744
24,24,female,347,165,115,change,valid,anti,2,1,2,0.11154465140771208,1,j,change,0.7066768484137356,0.2141941843065594,0.49946087200896727,0.03534190849404695,0.353296249709274,1.0010240545370834,4.543119334905896
24,24,female,348,15,15,same,valid,clock,1,2,2,0.05249458145863173,1,f,same,0.3463639168467125,0.2727469962454086,0.49955484256224736,0.035329079749317316,0.3532821380895257,1.0011148179055454,4.178357715431048
24,24,female,349,45,95,change,valid,clock,5,2,2,0.17357997022463678,1,j,change,0.5429429396681371,0.27151743812243323,0.499693393004236,0.035356020112885744,0.35331517210761376,1.0010545228060437,4.495731555953171
24,24,female,350,135,135,same,valid,anti,3,0,2,0.06164949432240974,1,j,change,0.5060025695975128,0.059337028950662146,0.5002812702250594,0.03533260765379964,0.3533318494755804,1.0010272617237206,4.2495120266266895
24,24,female,351,15,15,same,valid,clock,4,0,2,0.0732989565740354,1,j,change,0.392104484993979,0.057275494346030104,0.5110638300602659,0.03531432669296919,0.35326738503317756,1.0010811424508574,4.307625918939266
24,24,female,352,45,95,change,valid,clock,5,1,2,0.07666040837739274,1,j,change,0.4942244991816551,0.2125527373950602,0.49917030094275106,0.035325231126080325,0.35330587126736646,1.0010509949006519,4.389182738411364
24,24,female,353,75,25,change,catch,anti,1,1,1,0.05398431942558091,0,j,change,0.23018905079516117,0,0.49985503518564656,0.03530919519471354,0.35333024588271655,1.0010375247193224,5.603160425374881
24,24,female,354,15,325,change,valid,anti,2,0,2,0.07057381050253753,1,j,change,0.3379774457844178,0.05529589550150488,0.5004352151609055,0.03536532095313305,0.35330106048877497,1.0010474669961695,4.166912230219168
24,24,female,355,135,135,same,catch,anti,3,0,1,0.11104849971070507,0,j,change,0.3096121293210672,0,0.5002366903381699,0.03531657172334235,0.35331228563973127,1.0010429769354232,5.697730723368295
24,24,female,356,45,355,change,valid,anti,2,0,1,1.1546578926609072,0,f,same,0.575121279744053,0.05335091933146319,0.49992623471825937,0.03529957363662106,0.35332735941483406,1.001033034658576,5.544388097747287
24,24,female,357,45,95,change,valid,clock,4,1,3,1.5054416327402578,1,j,change,0.5955443204256881,0.21089593193063302,0.4997681204413311,0.03534960574052093,0.35329560827176465,1.0010673515507733,5.886380299153643
24,24,female,358,105,105,same,valid,anti,4,0,1,0.06540254355513753,0,j,change,0.26805116616469604,0.05515849830613098,0.4990740853581883,0.035310157350977533,0.35329945689500164,1.0010561263989075,4.0711491796982955
24,24,female,359,15,325,change,catch,anti,5,1,2,0.0953028193089267,1,f,same,0.5995815263513578,0,0.5002931368144345,0.035353454364667414,0.3533449989381552,1.0010458634033057,6.0396709683591325
24,24,female,360,105,105,same,valid,anti,2,1,2,0.043032740881244536,1,f,same,0.5536857303950455,0.20919545340075055,0.5003264915494583,0.035317213159942185,0.35331517210670427,1.0010538813685343,4.367083301529419
24,24,female,361,135,185,change,valid,clock,1,1,1,0.4180891071764563,0,j,change,1.6764356487719851,0.20753974018608218,0.49949198171452736,0.03532875903056265,0.3532875903056265,1.0010631822078722,5.956074057777187
24,24,female,362,105,105,same,valid,anti,1,2,2,1.7927125033429547,1,j,change,2.2225537027288738,0.2702777122815918,0.5000683130656398,0.03531272310010536,0.3533052298298571,1.0010477877149242,7.947629536645763
24,24,female,363,75,125,change,valid,clock,5,0,2,0.15251902021827846,1,f,same,1.803475178624467,0.05706127915791556,0.4994268758355247,0.03534062561993778,0.35327796874753403,1.001083066762476,5.767546034347106
24,24,female,364,105,55,change,valid,anti,4,0,2,0.09349204200862005,1,j,change,1.3735281420968022,0.05516990679837877,0.5001241181043952,0.03533998418242845,0.35328534527616284,1.00103399681484,5.285538669364541
24,24,female,365,105,105,same,valid,clock,5,2,2,0.02518122205401596,1,j,change,0.5417149080913077,0.26900974459758475,0.5001128929525294,0.035327796874298656,0.35328823174313584,1.0010814631705216,4.3317166977012675
24,24,female,366,45,355,change,valid,anti,1,2,2,0.07444071484405868,1,j,change,0.4946035885850506,0.2677822685775492,0.500048428511036,0.03530246010450355,0.35332286935408774,1.0010776145463751,4.343726326957039
24,24,female,367,135,85,change,valid,anti,4,2,2,0.03814370631425845,1,j,change,0.4874961433588396,0.2665955226667022,0.4993883896013358,0.035319137472470175,0.3533042676745026,1.001053239931025,4.236383410123381
24,24,female,368,135,135,same,valid,clock,3,2,1,1.3113619700843628,0,j,change,0.6958535573148765,0.2654392055841249,0.49967414988714154,0.03530149794823956,0.3532988154574923,1.0010635029266268,5.815059214278335
24,24,female,369,15,15,same,valid,clock,2,2,2,0.38891076902473287,1,f,same,0.941676999151241,0.26998434765296825,0.4998932007010808,0.035325231126080325,0.35334435750064586,1.0010942919143417,5.1326222787829465
24,24,female,370,75,25,change,valid,anti,4,0,2,0.18643373087525106,1,f,same,1.2057692147336638,0.053308743170099676,0.49986626033751236,0.035353133645003254,0.35330587126736646,1.0010872361044676,5.143750573284706
24,24,female,371,45,45,same,valid,clock,5,0,2,0.09210685831112642,1,f,same,0.4137507464729424,0.05137664498888497,0.5003691471256388,0.035315288849233184,0.3533206243237146,1.0010477877149242,4.307745867701669
24,24,female,372,135,185,change,valid,clock,2,2,3,0.6175173941746834,1,j,change,0.5389326741069453,0.268801334609193,0.5006411165113605,0.0353451156806841,0.35326257425458607,1.001087877541977,4.920700718858825
24,24,female,373,75,75,same,valid,anti,3,0,2,0.08017035289958585,1,f,same,1.2157134161088834,0.049387022623234744,0.500302758372527,0.03529412142052024,0.3533138892335046,1.0010747280784926,5.0386196527388165
24,24,female,374,45,95,change,valid,clock,2,2,2,0.6310414567296903,1,j,change,2.0041776806783673,0.26766452998788864,0.4999127645369299,0.03532138250193384,0.3532895146181545,1.0010737659231381,6.48677869581752
24,24,female,375,165,115,change,catch,anti,2,0,2,0.09359242693517444,1,j,change,1.4332677570673695,0,0.4993576006136209,0.03531817531620618,0.35330298480039346,1.0010606164596538,6.780199987299056
24,24,female,376,135,135,same,valid,anti,5,2,3,0.4702254459434698,1,f,same,0.5436857239810706,0.2665642639669516,0.5006420786676244,0.03527006752392481,0.35336392133649497,1.0010602957408992,4.826915219317016
24,24,female,377,45,95,change,valid,clock,1,1,3,0.955707155681921,1,j,change,0.5434955378423183,0.2104840485597097,0.49942366864888754,0.03533196621629031,0.3532933632413915,1.001063823646291,5.285195500446207
24,24,female,378,165,115,change,valid,anti,4,1,2,0.47066611332047614,1,j,change,0.8325303608280592,0.20884147103720319,0.499123796744243,0.035349926459275594,0.3532879110243812,1.001087877541977,5.167128715284889
24,24,female,379,105,55,change,valid,anti,1,1,2,0.1071039814642063,1,j,change,0.4628255053403336,0.20726079659510446,0.49981173817286617,0.035277444051644125,0.3533703357088598,1.0010500327452974,4.307708985060344
24,24,female,380,165,165,same,valid,anti,5,2,2,1.1082181579331518,1,f,same,1.1163506198536197,0.26549165488140053,0.5001375882857246,0.03530727088309504,0.35329528755301,1.001086915385713,6.109734836263669
24,24,female,381,105,55,change,catch,anti,5,0,1,0.2308227907788023,0,j,change,0.44292812246840185,0,0.49987491973934084,0.03534062561902829,0.35328342096454435,1.0010109050735991,5.897295636495073
24,24,female,382,135,85,change,catch,anti,5,0,1,0.044094319496252865,0,j,change,0.5723236512658332,0,0.500820077498247,0.03531464741081436,0.3533071541414756,1.0010474669961695,5.956997727387716
24,24,female,383,165,115,change,valid,anti,2,2,2,0.8725550818189731,1,j,change,0.5504374922629722,0.26443844845406916,0.5008992949960884,0.03534415352442011,0.35330234336288413,1.0010420147800687,5.191996274532357
24,24,female,384,165,215,change,valid,clock,2,1,2,0.31441168339461,1,j,change,0.5574753415494342,0.2057343160781869,0.4997046181561018,0.035310798788486863,0.35332286935408774,1.001055164243553,4.6611508410205715
24,24,female,385,165,215,change,valid,clock,4,1,3,0.33840175651130266,1,j,change,0.547223250303432,0.2042386646310383,0.4992591399995945,0.03534190849313745,0.35330683342272096,1.001024375255838,4.7080722951077405
24,24,female,386,105,105,same,valid,clock,1,1,3,0.49926876155768696,1,f,same,1.482209738428537,0.202676077127613,0.49974438726439985,0.03532042034657934,0.35333024588271655,1.001033034658576,5.791873503446368
24,24,female,387,135,185,change,valid,clock,2,1,2,0.10684195435715083,1,j,change,0.4193075171951932,0.2010962676425597,0.49977453481369594,0.0353611516102319,0.3533129270772406,1.001055164243553,4.295653493042664
24,24,female,388,135,135,same,catch,anti,4,2,2,0.05513056775453151,1,j,change,0.41096626745729736,0,0.5004281593510314,0.03527006752392481,0.3533421124702727,1.0010712001740103,5.7687551435255955
24,24,female,389,135,135,same,catch,anti,4,1,2,0.01825819003079232,1,j,change,0.53502086915978,0,0.5003171907101205,0.03535185077089409,0.3532754029984062,1.0010686344248825,5.85100279089329
24,24,female,390,105,55,change,catch,anti,3,1,2,0.0854958855006771,1,j,change,0.5176180356747864,0,0.500452533965472,0.035365320952223556,0.3532651400028044,1.0010583714292807,5.934029784496488
24,24,female,391,15,15,same,catch,anti,5,0,2,1.3838915227015605,1,j,change,0.8138719139651585,0,0.49934765833768324,0.035362113766495895,0.35329849473873765,1.0010413733425594,7.534455442242688
24,24,female,392,75,125,change,valid,clock,2,0,2,1.0364621786156931,1,j,change,0.4745423185004256,0.047442758137137137,0.4995740856793418,0.03530823303935904,0.35333890528454504,1.00102790316123,5.273387282480144
24,24,female,393,15,15,same,catch,clock,5,1,2,0.17772910694657185,1,f,same,1.268640967697138,0,0.49932777378307946,0.03533805987080996,0.3533138892325951,1.0010391283121862,6.745129406754131
24,24,female,394,15,15,same,valid,clock,3,1,2,0.1220549211384423,1,f,same,0.4441638512917052,0.19946616321857819,0.49975304666622833,0.03532555184483499,0.3532933632413915,1.001069596580237,4.355362960463026
24,24,female,395,45,355,change,valid,anti,3,2,2,0.6726322467175123,1,j,change,0.5805837591942691,0.26330869821292346,0.49948845380913554,0.03533709771454596,0.35328342096454435,1.0010808217321028,5.001680886261056
24,24,female,396,75,125,change,valid,clock,5,1,2,0.06312127204637363,1,j,change,0.542532740560091,0.19785161273681487,0.49998909556779836,0.03538231903894484,0.3533081162977396,1.0010522777756705,4.331995402178109
24,24,female,397,165,115,change,valid,anti,3,0,1,0.08648113308663596,0,j,change,0.4559207542788499,0.045576519483640054,0.49942174433726905,0.035331324779690476,0.3533315287568257,1.0010622200525177,4.319537729016702
24,24,female,398,75,75,same,catch,clock,4,1,2,0.18181666569398658,1,j,change,1.448141403554473,0,0.4993011541382657,0.03535088861553959,0.3533110027656221,1.001055164243553,6.933398930980729
24,24,female,399,15,65,change,valid,clock,5,1,2,0.16350042559406575,1,f,same,0.8048982071186401,0.19629637217551463,0.5005339964936866,0.035319778909979505,0.35329175964852766,1.0010702380186558,4.743957180216057
24,24,female,400,45,95,change,catch,clock,1,0,1,0.5895350157379653,0,j,change,0.6594311478074815,0,0.4997973058352727,0.035315288849233184,0.35329175964852766,1.0010984612563334,6.604201477999595
24,24,female,401,135,135,same,valid,anti,4,0,1,1.8271750013946075,0,j,change,0.23860663156301598,0.047406221765735695,0.5089663303178895,0.03532523112517083,0.35330683342363045,1.001058050710526,5.894845666995934
24,24,female,402,165,165,same,valid,clock,2,1,2,0.5320699371841329,1,j,change,0.8479761693242835,0.19477624228209905,0.4996661319219129,0.03534126705653762,0.3532943253976555,1.001074407359738,5.179096009683235
24,24,female,403,15,15,same,valid,anti,5,2,2,0.27607682878624473,1,j,change,1.9628771410370973,0.26218112308062913,0.5001350225365968,0.03533036262342648,0.35325712203757575,1.0010965369438054,6.086730010732026
24,24,female,404,105,55,change,valid,anti,2,0,2,0.1652990155862426,1,j,change,0.5248502404429018,0.04923221719303281,0.4995169977664773,0.0353489643030116,0.3533045883923478,1.0010673515507733,4.46047463789273
24,24,female,405,135,185,change,valid,clock,1,2,2,0.08317741063274298,1,j,change,0.47783353292652464,0.2610466071115988,0.50026780004373,0.03535537867628591,0.3533026640816388,1.0010535606497797,4.296771197416092
24,24,female,406,75,75,same,catch,clock,3,2,1,0.07970114156523778,0,j,change,0.4363129803159609,0,0.4997398972036535,0.03533517340292747,0.3533446782194005,1.0010006420789068,5.779708325662796
24,24,female,407,15,325,change,valid,anti,1,2,2,0.05354621779770241,1,j,change,0.4698983129555927,0.2598922982234247,0.5002937782519439,0.035318496034960845,0.3533138892325951,1.0010558056801528,4.284782094151524
24,24,female,408,45,355,change,catch,anti,1,2,2,0.08785252588404546,1,j,change,0.5115904500253237,0,0.49941051918540325,0.03534254993155628,0.3533033055191481,1.0010445805291965,5.8501772611780325
24,24,female,409,135,135,same,valid,anti,4,1,2,0.32488218401613267,1,f,same,0.9251426716764399,0.19319175788649495,0.4996924308488815,0.03532940046807198,0.35326642287782306,1.001069596580237,5.061339038703409
24,24,female,410,165,165,same,catch,anti,5,2,2,0.486117694751556,1,f,same,0.7735572633464471,0,0.49956702986946766,0.035352171489648754,0.3532763651546702,1.0010490705890334,6.6391889924243515
24,24,female,411,105,155,change,valid,clock,2,1,2,1.2239841077516758,1,j,change,0.561368544816105,0.19159281368395706,0.5001177037320303,0.035353133645003254,0.3533119649209766,1.0010561263989075,5.544607469279981
24,24,female,412,105,55,change,valid,anti,1,2,2,0.11048884572755924,1,j,change,0.4478383244631914,0.2587162369862663,0.49958787657942594,0.035329079749317316,0.35328726958778134,1.0010404111872049,4.31905344390816
24,24,female,413,165,215,change,valid,clock,1,1,1,0.046632165896880906,0,j,change,0.2989469524991364,0.18995181519546875,0.49985407303029206,0.035295083576784236,0.3532962497083645,1.0010974991000694,4.0842296884084135
24,24,female,414,15,15,same,valid,clock,1,1,1,0.11503406993870158,0,j,change,0.9136384949570129,0.19274507001502394,0.4998781269268875,0.035314968129569024,0.3533421124702727,1.0010570885551715,4.825708996605499
24,24,female,415,15,325,change,catch,anti,4,2,2,0.1303506288331846,1,j,change,0.6864722171085305,0,0.49972867205087823,0.035357623705749575,0.3534312722458708,1.0010500327462069,6.121181604350568
24,24,female,416,165,115,change,catch,anti,4,0,1,0.02632265960346558,0,j,change,0.5021622849017149,0,0.5005862736288691,0.035313043818860024,0.3533318494755804,1.0010423354988234,5.862994459906986
24,24,female,417,15,15,same,valid,anti,2,0,1,0.0888849191051122,0,j,change,0.5385641684179063,0.04737038119999948,0.5004063504848091,0.03533228693595447,0.3532943253976555,1.0010599750221445,4.366879324489673
24,24,female,418,75,75,same,valid,anti,4,1,2,0.2899036497137786,1,f,same,0.7764353921975271,0.19528137913604754,0.4998454136275541,0.035323627533216495,0.3532859867136722,1.001076331672266,4.8380726992127165
24,24,female,419,105,105,same,valid,clock,5,1,2,0.1918015983337682,1,f,same,0.7021014766523876,0.19387452599799368,0.4992071835840761,0.03536147232989606,0.35328919389939983,1.001042656217578,4.707159850648168
24,24,female,420,135,135,same,valid,clock,4,2,2,0.10729865766370494,1,f,same,0.5377392801410679,0.2575832359150857,0.5000115458706205,0.035310157350977533,0.35332543510321557,1.0010311103469576,4.426204571010203
24,24,female,421,15,325,change,valid,anti,5,0,2,0.08499941308491543,1,j,change,0.49683354511489597,0.04915834574849193,0.49967703635502403,0.03530919519562303,0.35332286935408774,1.0010644650828908,4.319753893362758
24,24,female,422,75,75,same,valid,clock,1,1,3,1.1222085453546242,1,f,same,0.5421488403781041,0.1923952464923179,0.49940955703004875,0.035365000234378385,0.3533177378558321,1.0010574092730167,5.438454418508627
24,24,female,423,135,135,same,catch,clock,2,0,2,0.16346129792236752,1,f,same,0.7199751250645932,0,0.4995978188562731,0.03534351208691078,0.3533100406093581,1.0010631822087817,6.1207370883503245
24,24,female,424,45,45,same,valid,clock,4,1,3,0.49146439478136017,1,f,same,0.3598575111336686,0.19089160425230117,0.5008762032566665,0.03531528884832369,0.35331068204595795,1.0010599750221445,4.567957067322823
24,24,female,425,105,155,change,valid,clock,3,2,2,0.17722750303255452,1,j,change,0.5167395873886562,0.25648388111881876,0.500067671627221,0.03532458968948049,0.3532709129385694,1.0010519570569159,4.460695933737043
24,24,female,426,15,325,change,catch,anti,2,1,2,0.1452002214236927,1,f,same,0.7384263877011108,0,0.4998806926751058,0.03534864358516643,0.3532840624011442,1.0010481084336789,6.1571816274408775
24,24,female,427,75,75,same,valid,clock,2,0,2,0.31359705811246386,1,j,change,0.5504160041155046,0.04733524436650913,0.4994567026669756,0.03532106178408867,0.35333120803807105,1.0010445805291965,4.672376633981003
24,24,female,428,135,135,same,valid,anti,5,1,2,0.6114032144987505,1,f,same,0.7972426537789943,0.1893289186378667,0.5000744067183405,0.03534479496192944,0.35326097066172224,1.0010843496374946,5.17959408569277
24,24,female,429,165,165,same,valid,anti,1,0,2,0.19975766501465841,1,j,change,0.6340953393810196,0.04558323481601759,0.49942623439801537,0.035280971957035945,0.3533328116309349,1.0010493913086975,4.578084719746585
24,24,female,430,105,105,same,catch,clock,5,1,2,0.11552958019819926,1,j,change,0.822016242474092,0,0.5002459911775077,0.035358585861104075,0.3532875903056265,1.0010712001740103,6.251814786282921
24,24,female,431,165,115,change,valid,anti,4,2,2,0.046689253809745423,1,j,change,0.4725031895468419,0.25540946104376927,0.49988967279659846,0.03537686682284402,0.3533100406093581,1.001019564476337,4.260876370029109
24,24,female,432,75,75,same,valid,clock,4,1,2,0.04071170026327309,1,f,same,0.5699791981905946,0.18778285412438395,0.4993970490040738,0.03534254993155628,0.35330587126736646,1.0010468255595697,4.390121161078241
24,24,female,433,45,45,same,valid,clock,5,1,2,0.05709240352280176,1,f,same,0.47343968790210056,0.18628897808078718,0.4997568952894653,0.03534287064940145,0.35332543510321557,1.0010529192131798,4.28374040009021
24,24,female,434,105,55,change,valid,anti,3,0,2,0.020646581556320598,1,j,change,0.4403575627693499,0.04386511570572493,0.5006308535157586,0.035312402381350694,0.3533167757004776,1.0010574092739262,4.1908118606879725
24,24,female,435,105,105,same,valid,anti,5,2,3,0.7000761385988881,1,f,same,0.5468284456883339,0.25435181557441633,0.5000833868398331,0.035318175317115674,0.3532811759341712,1.001066710113264,4.967717105655538
24,24,female,436,105,155,change,valid,clock,5,0,2,0.06476719997863256,1,j,change,0.46538323629465594,0.04209097823832339,0.49996856957568525,0.035323627532307,0.3533241522281969,1.0010683137070373,4.225751908757047
24,24,female,437,45,45,same,valid,anti,2,0,2,0.022132791617877956,1,j,change,0.4288258042506641,0.04027599385278524,0.4995481074711279,0.035645308303173806,0.353296249709274,1.0010599750221445,4.189728793925497
24,24,female,438,45,45,same,valid,anti,4,2,1,1.1036479176700595,0,f,same,1.0407713539270844,0.2532138914364907,0.500501924632772,0.035293800701765576,0.3533430746265367,1.0010564471176622,5.933862048660558
24,24,female,439,15,15,same,valid,clock,3,0,2,0.042228057875945524,1,j,change,0.7657355777655539,0.038429221684277065,0.49975048091801,0.03533934274491912,0.35330234336288413,1.0011254016199018,4.555552954171617
24,24,female,440,135,185,change,valid,clock,5,0,2,0.0016494558367412537,1,j,change,0.7860114086024623,0.03666674488111224,0.49931590719370433,0.035319458190315345,0.3532930425226368,1.0010991026938427,4.542476294083826
24,24,female,441,105,105,same,valid,clock,3,1,1,1.2232599251183274,0,j,change,0.468282853292294,0.18482516750080263,0.5003373959834789,0.03529893220002123,0.35332928372645256,1.0010625407712723,5.509590448743438
24,24,female,442,75,75,same,catch,anti,4,0,2,0.09223707006913173,1,j,change,0.4269813514956695,0,0.4999445156799993,0.03531657172334235,0.3533196621683601,1.0010327139398214,5.744659233264429
24,24,female,443,45,45,same,valid,anti,3,1,2,0.03950066677407449,1,f,same,0.647649549486232,0.18732681888577235,0.5002354074631512,0.035280009801681445,0.3533061919861211,1.0011212322779102,4.437812019122248
24,24,female,444,75,75,same,valid,clock,5,1,2,0.3210595388445654,1,f,same,1.3429665445592036,0.1858944756941982,0.49948171871801605,0.03531560956798785,0.35360798820329364,1.0007411807191602,5.379178883373243
24,24,female,445,165,115,change,catch,anti,3,1,2,0.10744811253880471,1,j,change,0.47028542032421683,0,0.49942078218191455,0.03530438441612205,0.3533081162977396,1.00103399681484,5.838109261135287
24,24,female,446,75,25,change,valid,anti,1,1,2,0.004359528133136337,1,j,change,0.775922563131644,0.18448616902214865,0.5005038489443905,0.03530823303935904,0.35332768013358873,1.0009964727369152,4.55584256308066
24,24,female,447,135,85,change,catch,anti,1,0,1,0.3339017536254687,0,j,change,0.16793371900894272,0,0.49982039757560415,0.035327796874298656,0.35325327341524826,1.001097819818824,5.85051658147313
24,24,female,448,45,95,change,catch,clock,3,1,2,0.6179263104077108,1,j,change,0.6766155719151357,0,0.4997806284682156,0.035311760943841364,0.3533174171379869,1.0010497120265427,6.674435968207945
24,24,female,449,135,135,same,valid,clock,5,0,2,0.051944549034487864,1,f,same,0.6385485173505003,0.03495809321351709,0.5007357285030594,0.035323948251061665,0.3533215864790691,1.0010545228060437,4.461817807452462
24,24,female,450,15,15,same,valid,anti,1,2,2,0.02494485243460076,1,f,same,0.9378732763780135,0.2571194138025098,0.49952661932366027,0.035324589688570995,0.3532632156920954,1.0010708794552556,4.7431810411681
24,24,female,451,15,65,change,valid,clock,4,0,2,0.7940357883489924,1,f,same,0.56050869820956,0.03321518198291157,0.5048935246268229,0.03533709771454596,0.3532689886269509,1.0010429769354232,5.090394541625756
24,24,female,452,135,135,same,valid,clock,4,0,2,0.03932908231490728,1,f,same,0.46844385403710476,0.03145359460781216,0.4995038483020835,0.035353454364667414,0.3533090784540036,1.0010574092739262,4.26035776802928
24,24,female,453,15,15,same,valid,anti,4,0,2,0.030810795901743404,1,j,change,0.7927080132831179,0.029632828574622627,0.4994878123716262,0.035313043818860024,0.35329272180388216,1.0010012835155067,4.590129948768663
24,24,female,454,45,45,same,valid,anti,2,2,2,0.055244743582079536,1,f,same,0.356663795165332,0.2560991716204997,0.49994227064962615,0.03532715543769882,0.3532988154584018,1.001029186035339,4.213567808574226
24,24,female,455,135,135,same,valid,anti,1,0,1,0.11577653353197093,0,j,change,0.34305987367588386,0.027828894403654242,0.5000801796541055,0.035333569810063636,0.3532792516216432,1.0010554849613982,4.225620414124933
24,24,female,456,75,25,change,valid,anti,3,0,1,0.40333284370353795,0,j,change,1.0467925252041823,0.029556127070110794,0.500077293186223,0.035322344658197835,0.35327572371716087,1.001045542684551,5.285727572628275
24,24,female,457,75,125,change,valid,clock,1,1,2,0.15522620604679105,1,j,change,0.47420139461246436,0.18301076383666723,0.4999156510039029,0.03533164549844514,0.3533417917524275,1.0010147536977456,4.401752983805636
24,24,female,458,165,215,change,valid,clock,2,2,2,0.06986694667557458,1,j,change,0.45983865287962544,0.25509944932944806,0.5002360489006605,0.035290272796373756,0.35333505666130804,1.001062861490027,4.30848095476631
24,24,female,459,105,155,change,valid,clock,5,1,2,0.08512994556167541,1,j,change,0.7244789765736641,0.18151622797808067,0.49958306580083445,0.03535217148873926,0.3533164549817229,1.001025337412102,4.57854495095944
24,24,female,460,135,185,change,catch,clock,2,0,1,0.1257393365867756,0,j,change,0.6533272311271503,0,0.4999249518441502,0.03534832286641176,0.35326578144031373,1.0010471462774149,6.215715019701747
24,24,female,461,165,215,change,valid,clock,5,1,2,0.04996154583841417,1,j,change,0.4837742038316719,0.17997916953164156,0.5004926237925247,0.0353601894548774,0.3532737994055424,1.0010811424508574,4.332070129615204
24,24,female,462,135,135,same,valid,anti,3,1,3,0.5064403505075461,1,f,same,0.9294457533324021,0.17837869331549774,0.49943489379984385,0.035332928372554306,0.3533103613281128,1.0010237338192383,5.214100201475958
24,24,female,463,15,65,change,valid,clock,3,1,2,0.07480216472231405,1,j,change,0.6925020477883663,0.17683660049928263,0.5002645928580023,0.035312402381350694,0.3533065127048758,1.001043618373842,4.543788674656753
24,24,female,464,75,75,same,catch,clock,4,2,2,0.03591727768889541,1,f,same,1.0166177143155437,0,0.5000958948658081,0.0353348526841728,0.353286628150272,1.001021488788865,6.321798795253017
24,24,female,465,15,15,same,valid,clock,4,2,2,0.5401421040041896,1,j,change,0.4694922831895383,0.2541132063708839,0.5003431689183344,0.03530021507413039,0.35334082959616353,1.0010160365718548,4.814821241065147
24,24,female,466,45,45,same,valid,clock,1,1,1,0.7119699884342481,0,j,change,1.919170891064823,0.17532960573429754,0.49952790219867893,0.03532042034657934,0.3533074748602303,1.001046504840815,6.592311797505317
24,24,female,467,15,325,change,valid,anti,3,0,1,1.26342319655123,0,j,change,0.5985953166109539,0.031246508953706287,0.499446760389219,0.03535505795662175,0.3532930425235463,1.001046504840815,5.650158531211673
24,24,female,468,105,55,change,catch,anti,4,0,2,0.1543243453006653,1,f,same,0.6813201932773154,0,0.5000323925796692,0.035361793048650725,0.35329175964852766,1.0010708794552556,6.180873752966363
24,24,female,469,45,45,same,catch,clock,1,1,2,0.017538497459099744,1,f,same,0.7043298295893692,0,0.4998874277662253,0.03534158777529228,0.3533193414496054,1.0010660686757547,6.026850883163206
24,24,female,470,75,75,same,valid,anti,3,2,2,0.013305973897331569,1,f,same,0.6204340092590428,0.25305024211214977,0.5008752411004025,0.03530310154110339,0.35331356851474993,1.0010574092730167,4.4150102084740865
24,24,female,471,165,165,same,catch,clock,1,1,1,0.10063252125200961,0,j,change,0.27014834518831776,0,0.4993630528306312,0.03531496813047852,0.3533129270772406,1.0010490705899429,5.673213068128462
24,24,female,472,75,125,change,valid,clock,4,2,2,0.052067704982619034,1,j,change,0.6789879275102066,0.2519851297557896,0.49999967928124534,0.035352812927158084,0.3532821380895257,1.0010769731097753,4.4844079438144036
24,24,female,473,75,75,same,valid,anti,1,0,2,0.028540108107335982,1,j,change,0.5818358446667844,0.032825785865976814,0.4998290569783421,0.03533004190558131,0.35329368396014615,1.0010673515507733,4.343199065553563
24,24,female,474,75,25,change,catch,anti,3,0,2,0.043170970603569,1,f,same,0.7166018066727702,0,0.49945926841519395,0.035356020112885744,0.35330202264321997,1.001022130225465,6.062250200288872
24,24,female,475,165,165,same,valid,anti,4,2,3,0.382943799194436,1,f,same,0.6590187036681527,0.25090977766488404,0.5000635022861388,0.03533036262342648,0.35327604443591554,1.0010311103469576,4.861701322451154
24,24,female,476,45,45,same,catch,anti,3,1,2,0.024551009974857152,1,f,same,0.43200220141261525,0,0.4994435532034913,0.03534543639852927,0.35331132348437677,1.001032713940731,5.791279532571934
24,24,female,477,105,155,change,valid,clock,3,0,1,0.10917935162251524,0,j,change,0.3706541825877139,0.031147097586439576,0.500420782823312,0.035329079749317316,0.353298174019983,1.0010718416106101,4.272972914030106
24,24,female,478,165,215,change,catch,clock,2,2,2,0.05123928880038875,1,f,same,0.6578637959355547,0,0.4997305963634062,0.035328438311807986,0.35328823174404533,1.0010660686757547,5.968331602522085
24,24,female,479,15,325,change,catch,anti,3,0,1,0.06460235061058484,0,j,change,0.8817699690625886,0,0.5002488776453902,0.03534126705653762,0.3533203036049599,1.001054202087289,6.275009477235471
24,24,female,480,75,75,same,catch,anti,2,2,2,0.02796473891248752,1,f,same,0.5867431601936914,0,0.49961577909925836,0.035315288849233184,0.3532442932937556,1.0011125728751722,5.874281510123183
