subject,age,gender,ntrial,memory_ori,test_ori,type,trial_type,which_change,trial,quest,pas,pas_rt,vis,test_key,test,test_rt,contrast,fix_dur,target_dur,mask_dur,retention_dur,trial_dur
25,22,female,1,75,75,same,valid,clock,1,1,1,1.5232377417744374,0,j,change,1.2145611208253513,0.2,0.5091151729898229,0.03528493374574282,0.3533060422298604,1.0010574126647498,6.378476440576378
25,22,female,2,105,105,same,valid,clock,4,2,2,1.176304719582049,1,f,same,4.22276577074706,0.2,0.49954714386331034,0.03529744181184924,0.35334035923165175,1.0010471496361788,8.994732179854395
25,22,female,3,15,15,same,valid,clock,1,0,2,1.7794552127846828,1,f,same,1.6828419480767707,0.2,0.4995330321989968,0.03532887233689053,0.3532765360225767,1.0010731279272704,7.0750775820818035
25,22,female,4,165,165,same,valid,anti,1,0,3,3.0210542824411277,1,j,change,1.6656257176102827,0.0723357464867447,0.4996497741491339,0.03533111737442596,0.35327172522795536,1.001086598152483,8.300369340741554
25,22,female,5,105,105,same,catch,clock,4,2,1,1.1010988496427672,0,j,change,3.0372156660000655,0,0.49964271831709084,0.03532855161722637,0.3533163052584314,1.0010692792916416,9.312708387588373
25,22,female,6,45,45,same,valid,anti,2,2,2,1.4976382205447862,1,j,change,2.099711737184407,0.11397766455402543,0.5004499696599396,0.0353426632815399,0.35331245662268884,1.0010301514951152,7.252927849626076
25,22,female,7,105,105,same,valid,anti,4,1,2,1.4559815496403417,1,f,same,2.6067794359696563,0.33948538693435915,0.49911834169984104,0.035349398394032505,0.353316946697646,1.0010574126648635,7.675088550693658
25,22,female,8,135,185,change,catch,clock,1,2,1,0.805526191890408,0,j,change,5.101656581103043,0,0.5000654268072822,0.03530738412075607,0.3533660168030792,1.0010407352433504,11.044594142119877
25,22,female,9,105,105,same,valid,clock,3,0,1,1.2468903023359417,0,j,change,2.114676195033553,0,0.49987010854431446,0.03528589590462161,0.3532698009100841,1.0010885224702406,8.523633830534322
25,22,female,10,75,75,same,catch,clock,5,2,1,1.011401583328734,0,j,change,3.0483933870175406,0,0.5003992959562993,0.03531764714932706,0.3533012314351254,1.00106992073097,9.21970001167415
25,22,female,11,165,165,same,catch,anti,2,0,1,0.904405020160425,0,f,same,1.8218726306836288,0,0.49963245528851985,0.03535709566551759,0.35327846034044796,1.0010577333845276,7.875621394309405
25,22,female,12,105,55,change,valid,anti,5,2,3,1.4753129261562208,1,j,change,1.9081077284453158,0.056143516159837065,0.5007989126320354,0.03531347779403404,0.35333266196016666,1.0010471496361788,7.018050101539757
25,22,female,13,165,165,same,catch,clock,5,2,1,0.8099341626715386,0,f,same,2.488161596516761,0,0.4988752362099831,0.03535260559044673,0.3533044386316533,1.001059336982621,8.405165446435376
25,22,female,14,75,75,same,valid,clock,4,2,3,2.71126348145026,1,j,change,1.6910013765286749,0.012132942594039436,0.49973348197625,0.03526280409028004,0.3533204746137244,1.001035924448729,8.076289581614787
25,22,female,15,45,45,same,catch,clock,5,1,1,0.8302867105326186,0,j,change,1.850120334010171,0,0.5001706228503053,0.03533528672983266,0.3533147016602243,1.0010436217201004,7.829816214815537
25,22,female,16,165,115,change,valid,anti,3,2,1,0.7712784654719371,0,j,change,1.072931005507371,0,0.4999583064463877,0.03533015521543348,0.3533127773422393,1.0010673549737703,7.016943618769574
25,22,female,17,45,95,change,valid,clock,1,2,1,1.1612084459593461,0,j,change,1.2480731163814198,0.06687427427035039,0.4992623448197264,0.03531155347616277,0.35331406022089595,1.0010532433094568,6.02719189426
25,22,female,18,75,75,same,catch,anti,5,2,1,0.7754593667455083,0,j,change,1.6337272625809192,0,0.499527259245383,0.035289103101035835,0.35324799197428547,1.0011372718561233,7.60470405915612
25,22,female,19,15,15,same,valid,anti,3,2,1,0.78711528075155,0,j,change,0.9450796475163088,0.12306146749931011,0.5000333548429126,0.03532181650473376,0.35330892870661046,1.001026944298701,5.3913148479083475
25,22,female,20,15,15,same,catch,clock,4,2,1,1.0861485034579346,0,f,same,2.6514646624682428,0,0.5000865943037525,0.03532213722439792,0.3533018728744537,1.0010529225899063,8.912708772451992
25,22,female,21,45,45,same,valid,anti,4,2,2,1.2375778867655072,1,f,same,1.656515355415081,0.16875830419402144,0.5000176395803919,0.03532245794394839,0.3533025143136683,1.0010384902059286,6.534443686120653
25,22,female,22,105,155,change,valid,clock,3,0,1,0.8180191841662463,0,f,same,4.194268868257382,0.05517235490842054,0.49879858421525114,0.0353054598028848,0.35327429098504126,1.0010657513755632,8.605129012683733
25,22,female,23,45,95,change,valid,clock,5,2,2,0.9270074163209756,1,j,change,4.023275586692421,0.1560232335029473,0.5000843492663307,0.03527563287605062,0.3533531880174223,1.0010163605504658,8.55952556584566
25,22,female,24,105,105,same,valid,clock,3,2,2,1.3832875559495506,1,f,same,0.9723635883140105,0.14527121471636595,0.5000064143928284,0.03533528672971897,0.35333875563344463,1.0010099461576374,5.968591604585981
25,22,female,25,15,325,change,valid,anti,3,0,1,1.3935903537793592,0,j,change,1.393871624906751,0.10305495082542576,0.499924630883811,0.03533175881364059,0.35324638837607836,1.0010712036095128,6.415613850983391
25,22,female,26,75,75,same,valid,anti,5,0,2,0.784357733256229,1,j,change,3.540422541715998,0.14227292683624698,0.5003704311883439,0.03531925074764786,0.3533329826798308,1.0010644684970202,7.935767552665425
25,22,female,27,165,215,change,valid,clock,4,2,2,0.7070293407158488,1,j,change,1.340445505242542,0.13583216871908277,0.4996651686921041,0.03532887233689053,0.3532755738635842,1.001020850625423,5.662339624142305
25,22,female,28,135,135,same,catch,anti,5,1,1,0.8159476559883387,0,f,same,1.9292572646206736,0,0.4992758150448253,0.035386922592351766,0.3532884026493548,1.0010917296666548,7.875439225551872
25,22,female,29,75,75,same,valid,clock,1,0,2,1.6022790979311594,1,f,same,3.574566996409203,0.10574954264446025,0.5005205279815073,0.03530834627974855,0.3533034764726608,1.001076976563013,8.8078914992617
25,22,female,30,75,75,same,valid,clock,3,0,3,1.3411065084278562,1,f,same,1.777197025774285,0.07819687085050991,0.49905676352818773,0.0353349660101685,0.3533009107154612,1.0010413766826787,6.768309243012027
25,22,female,31,75,75,same,valid,anti,1,2,1,0.5283779155020056,0,j,change,1.0775544998891746,0.12730865239656503,0.49958851669725846,0.035340738963896,0.35329962783703195,1.0010526018702421,5.226067900197222
25,22,female,32,165,165,same,valid,clock,3,0,2,0.9239073402463873,1,j,change,2.776490480399616,0.05557503412361586,0.5002081470486246,0.035327268738683415,0.35329577920106203,1.0010538847488988,7.299819947992091
25,22,female,33,75,125,change,catch,clock,2,1,1,1.7726181114230712,0,j,change,1.4164788318621504,0,0.49986401487126386,0.0353250237010343,0.35331662597809554,1.0010808251988692,8.34686759538522
25,22,female,34,75,75,same,valid,anti,3,0,1,0.7696527375985625,0,j,change,2.030394921340303,0.03654784992975349,0.5005025676814512,0.03530834627963486,0.35330892870661046,1.0010359244488427,6.451605330103803
25,22,female,35,75,75,same,valid,clock,2,1,3,0.8648545151552298,1,f,same,1.5739720614703856,0.277883819201003,0.5002690837809496,0.03529840397072803,0.35335222585854353,1.0010673549736566,6.08668635030017
25,22,female,36,45,95,change,valid,clock,2,1,1,0.6851832014749561,0,j,change,1.790555319648547,0.2361351957338891,0.49934316616986507,0.03533400385117602,0.3533118151833605,1.001029830775451,6.097061630769531
25,22,female,37,75,75,same,catch,anti,2,1,1,0.7337369483141174,0,j,change,1.6225094516078116,0,0.5004547804544472,0.03530898771896318,0.353307966547618,1.0010817873578617,7.51184321427786
25,22,female,38,45,95,change,valid,clock,5,1,2,0.5446749634700154,1,j,change,1.418730604479606,0.29035529960085005,0.5003983337974205,0.03532245794394839,0.35325248204935633,1.001083390955955,5.6390101565496025
25,22,female,39,165,215,change,catch,clock,3,0,2,0.5563773818244044,1,j,change,2.271065828348128,0,0.49963277600795664,0.0353112327566123,0.353306042229633,1.0010827495168542,7.982262920832227
25,22,female,40,45,45,same,valid,clock,4,2,1,0.664416604553935,0,j,change,1.6743403117652633,0.15491630123502106,0.4997132766386585,0.035325985860026776,0.3533102115850397,1.0010513189918129,6.003528236798957
25,22,female,41,165,115,change,catch,anti,5,1,2,0.500517320785093,1,j,change,1.3184364404223743,0,0.49949101792572037,0.03532053362619081,0.3533076458279538,1.001087881031026,6.992155838957615
25,22,female,42,135,135,same,valid,anti,1,2,1,0.723363592162741,0,j,change,1.1599595636673712,0.17909398952294373,0.5001186662682358,0.03531700570988505,0.35330315575311033,1.0010465081968505,5.544252575699375
25,22,female,43,135,135,same,valid,clock,4,2,3,1.1608402598085377,1,f,same,1.7594445520637692,0.20297718023645356,0.5004506110992679,0.03526184193128756,0.35335382945663696,1.0010506775522572,6.53471148702306
25,22,female,44,45,45,same,valid,anti,2,0,2,0.640196498511159,1,f,same,1.6318972362946624,0.05323554054869506,0.49894932244751544,0.03531572283168316,0.35331919173518145,1.001040093804022,5.826055776994735
25,22,female,45,15,325,change,valid,anti,4,1,1,0.7189065512761772,0,f,same,1.117703467749152,0.263665126452847,0.5001106482770865,0.035358057824623756,0.35328776121014016,1.0010737693667124,5.473683991086546
25,22,female,46,105,155,change,valid,clock,1,1,2,1.1843255971477902,1,j,change,1.1814692680022745,0.2991633724147226,0.5004894181759028,0.03529487605487702,0.35331694669753233,1.0010734486470483,5.980752331311123
25,22,female,47,15,15,same,valid,clock,3,2,1,0.6504903161910534,0,f,same,0.638208357440817,0.19624826027632544,0.5000615781716533,0.03531411923336236,0.3532579342831923,1.0011080863685038,4.943691893618507
25,22,female,48,45,45,same,valid,clock,1,2,2,0.7009221972632531,1,j,change,1.0214686522206193,0.21781330280882918,0.5004156526581482,0.03527980223134364,0.35337243119602135,1.0010246992610519,5.368771464162137
25,22,female,49,105,155,change,catch,clock,4,0,1,0.5755054220862803,0,f,same,0.8088619969032607,0,0.4996488119902551,0.035327268738683415,0.35325408564767713,1.001067996412985,6.521782316031931
25,22,female,50,105,55,change,valid,anti,4,1,2,0.7273029915445477,1,j,change,0.9586932342267573,0.27966330591511385,0.49977357193165517,0.03528493374574282,0.3533329826798308,1.001024378541615,5.367491151345121
25,22,female,51,75,25,change,valid,anti,4,2,2,1.1868865435017142,1,j,change,2.3312681126417374,0.21209818317081616,0.5106716254199455,0.035354529908545373,0.353247029815293,1.0010259821397085,7.192455840112416
25,22,female,52,165,115,change,valid,anti,4,1,2,0.42264691204718474,1,j,change,1.80600662991651,0.2633051969809805,0.4992331593321069,0.03535517134764632,0.3532880819298043,1.0010628648988131,5.862053670507976
25,22,female,53,135,85,change,valid,anti,3,1,2,0.6773367953949219,1,j,change,1.0206460063348004,0.24889432358402347,0.4991337362428112,0.03534105968333279,0.35331566381910307,1.0010590162630706,5.33204585777753
25,22,female,54,165,165,same,valid,clock,4,2,1,0.3789219201614742,0,j,change,1.3749966324437537,0.20660244449943407,0.49969916497434497,0.03535356774932552,0.3533204746138381,1.0010465081968505,5.379733340859502
25,22,female,55,75,75,same,valid,clock,2,0,1,0.6498302751645042,0,j,change,0.7029731993836776,0.037071270832617936,0.49938133180762634,0.03532951377610516,0.3533432457084018,1.0010394523646937,4.990358526074942
25,22,female,56,135,85,change,catch,anti,5,2,1,0.559561486445773,0,j,change,2.659820371342221,0,0.5000920465377021,0.03535164343179531,0.35327589458347575,1.0010702414504067,8.370799695187998
25,22,female,57,75,25,change,catch,anti,3,0,2,0.9609697022565342,1,j,change,1.0225549296533245,0,0.5002934584738341,0.03533111737442596,0.35328968552789775,1.0010705621702982,7.1346118073577145
25,22,female,58,75,75,same,catch,anti,1,2,1,0.5715163111597121,0,j,change,1.2764600120335672,0,0.49995638212863014,0.03533368313151186,0.35325921716184894,1.0010939747041903,7.016493969829298
25,22,female,59,135,185,change,valid,clock,5,1,2,1.593504208483182,1,j,change,0.9823177638913876,0.236428922705611,0.49997594602677964,0.035317326429776585,0.3532858368921552,1.001131178182959,6.216488004444045
25,22,female,60,75,125,change,valid,clock,3,0,1,0.5606378215695713,0,j,change,0.8518159787658988,0.05104766513206088,0.4988742740511043,0.03529455533498549,0.3533422835496367,1.0010080218398798,5.025090859875036
25,22,female,61,105,105,same,valid,anti,5,1,2,0.5669492634351627,1,f,same,1.7032300958182987,0.2253405151825698,0.4999162921728839,0.035333041692410916,0.35329385488330445,1.0010509982719213,5.886425797661786
25,22,female,62,75,75,same,valid,anti,2,1,3,1.1107794513641238,1,j,change,1.0755743768097545,0.2152714289991664,0.49956221768661635,0.035285254465179605,0.3533329826800582,1.001042659561108,5.838646588761549
25,22,female,63,135,135,same,catch,anti,1,1,1,0.7186496548415562,0,j,change,0.7096403193340848,0,0.49967735603854635,0.03533496600994113,0.3533111737442596,1.0010926918255336,6.556511121915719
25,22,female,64,105,155,change,catch,clock,1,2,1,0.6628845268164696,0,j,change,0.9247004799249225,0,0.5004945496903019,0.03536671725487395,0.35330989086560294,1.0010737693667124,6.805647103196179
25,22,female,65,45,95,change,valid,clock,2,2,1,0.6314264198579167,0,j,change,0.6112916406348177,0.2247165081928219,0.49948364137389945,0.03531828858854169,0.3533304169227449,1.0010519604309138,4.861470602195823
25,22,female,66,75,75,same,valid,anti,1,1,2,0.613248992619674,1,j,change,1.5820445748991006,0.20597575272041932,0.4987944148599581,0.03537537668535151,0.35343433008711145,1.0010426595613353,5.838128626537355
25,22,female,67,105,55,change,catch,anti,5,1,2,1.3341754362106713,1,j,change,0.8985121174296182,0,0.49937972820930554,0.03530064900837715,0.35333009620308076,1.0009114852268794,7.405285716301705
25,22,female,68,135,135,same,valid,anti,1,1,4,0.9131670808226318,1,f,same,1.815606410287728,0.19727755134509678,0.49982456635507333,0.035311232756384925,0.353323040370924,1.0010660720952274,6.334019245744457
25,22,female,69,165,165,same,catch,clock,5,1,1,0.718094489138366,0,j,change,1.6898188832028609,0,0.49938710476112647,0.03530642196187728,0.3533044386315396,1.0010737693667124,7.534676849301604
25,22,female,70,105,105,same,valid,clock,5,0,3,0.7434172293158099,1,j,change,2.9662910825827566,0.06415073949425332,0.4994409856612947,0.03534939839414619,0.3533262475673382,1.0010538847486714,7.310573036201504
25,22,female,71,75,25,change,valid,anti,3,2,3,0.553809379638551,1,j,change,1.869788466151931,0.24133894601538464,0.4999769081857721,0.03532406154226919,0.353277177461905,1.0010821080775258,6.062603512265014
25,22,female,72,135,185,change,valid,clock,2,1,3,1.201727524288117,1,j,change,1.1340319462424304,0.1890510654675684,0.5002552928363002,0.03533464529050434,0.353241577581457,1.0011247637899032,5.956806440563696
25,22,female,73,165,115,change,catch,anti,4,1,3,0.5979413647519323,1,j,change,0.8929652711940435,0,0.5002998728666626,0.035318288588769065,0.3532839125743976,1.0010493946736005,6.639756471160354
25,22,female,74,135,135,same,catch,anti,2,0,1,0.5650169275827466,0,j,change,1.827793115303848,0,0.5001693399717624,0.035337211047590245,0.3532813468173117,1.001078259441556,7.55850535665968
25,22,female,75,75,75,same,valid,anti,4,0,1,0.6306919718742847,0,j,change,1.4148027510047996,0.05070373081881449,0.49982296275675253,0.035318609308433224,0.35331085302436804,1.0010426595613353,5.674307598361565
25,22,female,76,75,75,same,valid,clock,1,2,2,0.6755244086891707,1,f,same,1.119154082696923,0.23652711038881438,0.49917158116068094,0.03534490831907533,0.3532925720046478,1.0010840323952834,5.414224814207273
25,22,female,77,75,75,same,valid,anti,3,2,1,0.7437514191842638,0,j,change,0.6871588344793054,0.2322045210820867,0.49936882374140623,0.035333362412075076,0.35321431641182244,1.0010971819006045,5.061044814797242
25,22,female,78,45,95,change,valid,clock,4,1,1,0.5827280284593144,0,j,change,0.9813527184837767,0.1811994830573183,0.49980917181210316,0.03532534442069846,0.35330732510851703,1.001054205468563,5.202412902166543
25,22,female,79,135,135,same,valid,clock,2,0,4,0.3981811347573512,1,f,same,1.4521268202443025,0.062114225291889286,0.5004547804544472,0.03530610124221312,0.3532797432189909,1.0011141800418955,5.450711805176979
25,22,female,80,135,85,change,valid,anti,1,0,4,0.7764417310136196,1,j,change,1.438336517010157,0.05041020772996618,0.5001391923253777,0.03534458759941117,0.3532698009100841,1.0010237371022868,5.86272718175951
25,22,female,81,165,165,same,valid,anti,2,1,4,0.7026672328438508,1,f,same,1.4538795530963853,0.1939406580718089,0.4999608722034736,0.03534138040299695,0.35329128912621854,1.001022133503966,5.803663452200681
25,22,female,82,45,95,change,valid,clock,2,0,2,0.631750346698027,1,f,same,2.205570707777042,0.03986607445406626,0.4999570235677311,0.03532374082260503,0.35329866567803947,1.0010288686164586,6.486665760099186
25,22,female,83,105,55,change,valid,anti,1,2,1,0.5890709008501744,0,j,change,0.5205263779077995,0.24685143331981751,0.49990474626588366,0.035354529908318,0.35328102609764755,1.0010708828899624,4.767533742913656
25,22,female,84,75,25,change,valid,anti,2,0,1,0.5114528984718163,0,j,change,1.252257545571183,0.03024035448032847,0.4992854366341817,0.03533304169218354,0.35330058999602443,1.0010311136538803,5.41427260143405
25,22,female,85,105,155,change,valid,clock,3,1,2,0.5531086072171547,1,f,same,1.1773598872093771,0.18684091852035814,0.500030147646612,0.035342021842325266,0.3532848747331627,1.001039131645257,5.344723905287765
25,22,female,86,15,15,same,valid,anti,5,1,4,0.40511926280669286,1,f,same,1.3734552538367097,0.18033866596011175,0.49974823507977817,0.035347794795825394,0.3533070043888529,1.001060619861164,5.367704750627581
25,22,female,87,135,135,same,valid,anti,4,0,4,0.4248201083519234,1,f,same,1.471214770550887,0.03874265979005784,0.4998784472550142,0.03533945608523936,0.35320309122425897,1.0010439424397646,5.497576321653469
25,22,female,88,165,165,same,valid,anti,4,1,4,0.3037599888132263,1,f,same,1.329278367973302,0.17400747417058943,0.4997944187086887,0.035343304720981905,0.35327878105999844,1.001093333264862,5.2616799679794894
25,22,female,89,15,15,same,catch,clock,2,2,2,0.39692936598862616,1,j,change,1.5691526073867408,0,0.5000554844982616,0.03539012978899336,0.3532518406102554,1.0010904467881119,7.134761262711663
25,22,female,90,75,75,same,catch,anti,3,0,2,0.4628693247054798,1,j,change,1.2173699834638683,0,0.49984894104795785,0.03533945608523936,0.3532726873870615,1.0010340001308577,6.827721915542952
25,22,female,91,105,105,same,valid,anti,4,2,2,0.5629752263319006,1,f,same,0.8729430645660159,0.2617664957729508,0.5008014783891213,0.03526921848310849,0.35333426555848746,1.001083390955955,5.121035424126148
25,22,female,92,15,65,change,valid,clock,5,0,3,0.6009173223246762,1,j,change,0.8070653254599165,0.030049716505913343,0.49969756137625154,0.035286537343836244,0.35333105836207324,1.0010224542236301,5.072964039630733
25,22,female,93,45,95,change,catch,clock,1,2,3,0.8044280478309247,1,j,change,0.9083639834404948,0,0.49963341744751233,0.03533560744949682,0.3533179088567522,1.0010705621700708,6.86319831891592
25,22,female,94,135,85,change,valid,anti,1,1,1,0.4790355190589253,0,j,change,1.8159729928402157,0.16779687502532425,0.5003130223719836,0.03534138040299695,0.353282629695741,1.001067354973884,5.933860553664772
25,22,female,95,165,165,same,valid,anti,3,0,2,0.6321409832239624,1,f,same,0.9241902149719863,0.021962536029133423,0.4997014100117667,0.03527980223134364,0.35334966010145763,1.0010769765631267,5.2147259707221565
25,22,female,96,135,185,change,valid,clock,5,2,2,0.8715460097987489,1,j,change,1.4382691658850035,0.25766200928598204,0.4993479769646001,0.035312194915377404,0.35330732510851703,1.0010667135345557,6.027233908533162
25,22,female,97,165,165,same,valid,clock,3,1,2,0.6536016174532051,1,f,same,0.7941608498813366,0.17797732865847402,0.49962058866162806,0.03531347779403404,0.3533066836691887,1.0010465081968505,5.072740177319474
25,22,female,98,75,125,change,valid,clock,5,2,2,0.5221761597542809,1,f,same,0.8983014046236804,0.2539449973439629,0.5001330986522134,0.03536030286181813,0.3532951377619611,1.0010388109255928,5.038491168022574
25,22,female,99,75,25,change,valid,anti,3,1,2,2.339085012514488,1,j,change,0.7263437190906643,0.17256554581465705,0.4997706854549051,0.035306742681541436,0.3533153430994389,1.0010789008808842,6.674650447660497
25,22,female,100,135,135,same,valid,anti,1,0,3,1.023137035806485,1,f,same,0.7360817296282676,0.014341144640891895,0.500015715262407,0.035337531767254404,0.35329738279938283,1.0010606198613914,5.344359888492136
25,22,female,101,105,55,change,valid,anti,4,0,2,0.6871113679717382,1,j,change,1.2041383738487639,0.007114853605906274,0.5098900316484105,0.035318609308433224,0.35331149446369636,1.0010975026202686,5.542475788874071
25,22,female,102,75,75,same,valid,clock,5,2,2,0.7968356517087614,1,j,change,0.7290717603787016,0.250199483930443,0.4997248225458861,0.03531572283145579,0.353287440490476,1.0011035962936603,5.16709429285811
25,22,female,103,45,45,same,valid,anti,1,1,2,0.6820962749054615,1,j,change,2.2660911459570343,0.1671868332436775,0.4997392549298638,0.03525350322047416,0.3533881464586557,1.0010413766826787,6.581089792520061
25,22,female,104,15,15,same,valid,anti,3,1,3,1.2961319928108423,1,f,same,1.0573206182962167,0.1621802967983878,0.4993531084787719,0.03530513908322064,0.3533281718853232,1.0010368866076078,6.00341181556837
25,22,female,105,45,45,same,catch,clock,3,1,2,0.8211757068982024,1,j,change,0.7725674377195446,0,0.49979057007271877,0.03539429914417269,0.3533102115850397,1.001044904598757,6.733752663576752
25,22,female,106,135,135,same,valid,clock,5,1,4,0.5908743074057838,1,f,same,0.902015338096362,0.15715452366364596,0.5004672885206674,0.03532245794394839,0.35334035923165175,1.001058054104078,5.179970545107835
25,22,female,107,105,105,same,valid,anti,2,1,2,0.7381279209541844,1,f,same,1.0336675445832952,0.15244832407957548,0.49950897822554907,0.03532021290652665,0.35333939707265927,1.0010712036096265,5.414209419664303
25,22,female,108,105,105,same,valid,anti,3,0,2,0.7675696635137683,1,j,change,1.2308353976986837,0.00047019827425348604,0.49987010854442815,0.03530321476523568,0.3533297754834166,1.0010615820201565,5.6741838005789305
25,22,female,109,45,95,change,catch,clock,4,0,2,0.6567331240530621,1,j,change,2.378427691190609,0,0.4993030762145736,0.03534619119773197,0.3533105323047039,1.0010519604309138,8.182275236466467
25,22,female,110,15,325,change,valid,anti,5,1,3,0.6413475613119317,1,j,change,0.9231690436270128,0.14768162299221865,0.49985246896403623,0.0353250237010343,0.3533179088567522,1.0010471496364062,5.214761891322269
25,22,female,111,15,15,same,valid,clock,2,0,3,0.7037842993622689,1,j,change,0.6982461125573991,0,0.49991083993904795,0.03531540211179163,0.3533618474477862,1.0010320758128728,6.568749783514249
25,22,female,112,105,55,change,valid,anti,3,1,3,0.6995392541600722,1,j,change,0.5646650981336734,0.143189175398543,0.49982360419608085,0.035342342561989426,0.35326242435826316,1.0010958990221752,4.9080823915935525
25,22,female,113,45,355,change,valid,anti,5,1,2,0.49975080083709145,1,f,same,1.475621458453361,0.13861331770223562,0.5003614510383159,0.035286216624172084,0.35333843491389416,1.0010670342539925,5.591656863336084
25,22,female,114,45,45,same,catch,anti,1,1,1,0.46874555001500084,0,j,change,1.8369708286240893,0,0.49979345654946883,0.0353096291582915,0.3533070043886255,1.0010509982719213,7.476171171922488
25,22,female,115,45,45,same,catch,anti,4,1,1,0.24155609322406235,0,j,change,1.0951632911994693,0,0.49995958932504436,0.03529391389588454,0.3533705068780364,1.0010619027398207,6.510028903254124
25,22,female,116,15,15,same,valid,anti,2,2,1,0.5304805534851766,0,j,change,0.4175718444073482,0.2467429515049051,0.49996504155888033,0.03524324019190317,0.35338333566392066,1.0010837116756193,4.590331329049377
25,22,female,117,105,105,same,valid,anti,2,2,4,3.611893631405792,1,f,same,1.5104840044284629,0.2587744469802314,0.49962892737244147,0.035337852486918564,0.35326178291893484,1.0010542054683356,8.724140695858978
25,22,female,118,45,45,same,valid,clock,2,1,1,0.990023374047496,0,f,same,0.4818568897635487,0.13425100486105135,0.4993794074896414,0.03530930843862734,0.35334100067098007,1.0010542054683356,5.09610620695139
25,22,female,119,165,215,change,valid,clock,5,1,2,0.7403283784285577,1,j,change,0.5135927399335287,0.14146338072788817,0.5003659411131594,0.03526120049218662,0.3533541501763011,1.0010628648988131,4.932700189994421
25,22,female,120,45,95,change,valid,clock,3,2,1,0.6112291003043993,0,j,change,0.9995747257526091,0.25559823487024413,0.4995413709098102,0.035300007568821457,0.3533371520352375,1.0010676756933208,5.273395215119535
25,22,female,121,15,65,change,valid,clock,4,2,1,0.6980007620297783,0,j,change,0.47269040163064346,0.26699078079011634,0.49995638212840277,0.03533111737442596,0.35328872336913264,1.0010843531147202,4.814738863651655
25,22,female,122,45,45,same,valid,clock,4,1,2,1.4081693066168555,1,j,change,0.7681488831901788,0.13734038914933308,0.49938036964863386,0.03531091203694814,0.35329834495814794,1.0010737693667124,5.814462403318885
25,22,female,123,75,25,change,valid,anti,3,0,1,0.6217426109401458,0,f,same,0.47408264560340285,0,0.5002998728666626,0.035276915754593574,0.35337339335478646,1.0010349622898502,6.227658669629363
25,22,female,124,105,155,change,catch,clock,1,1,2,0.40849515777472334,1,f,same,1.4146186579293953,0,0.49980756821378236,0.03526440768860084,0.3533503015405586,1.0010340001308577,6.96919968903012
25,22,female,125,75,125,change,catch,clock,2,2,1,0.5706150889611763,0,f,same,0.5656914009932734,0,0.4999105192193838,0.03532406154226919,0.35333202052083834,1.001074731525705,6.321406945761055
25,22,female,126,75,125,change,catch,clock,5,2,2,0.4987389303614691,1,f,same,1.668083071519277,0,0.5001693399717624,0.03529647965297045,0.35328968552789775,1.0010808251988692,7.311475220558805
25,22,female,127,135,135,same,catch,clock,5,0,4,0.38618205073271383,1,f,same,1.300899490312304,0,0.49949614944011955,0.03536158574070214,0.3533130980617898,1.0010250199809434,6.851414437772064
25,22,female,128,75,25,change,valid,anti,2,1,4,0.3565142008242219,1,j,change,1.568210333073921,0.13343918415661715,0.499622512979613,0.035351322711903777,0.3532399739831362,1.0011019926951121,5.579291838198287
25,22,female,129,75,75,same,valid,clock,4,0,4,0.685626115302739,1,j,change,0.8257337744726101,0,0.49961321210980714,0.03531764714921337,0.3533320205210657,1.0010628648988131,6.745130513651702
25,22,female,130,15,65,change,valid,clock,3,2,2,0.40073887391486096,1,j,change,0.9603577691766532,0.27807669777580796,0.500448686781283,0.03530064900837715,0.35330026927636027,1.0010824287969626,5.038732349194561
25,22,female,131,45,45,same,valid,clock,4,0,1,0.5588549410708765,0,f,same,0.45826539422205315,0,0.4994028200237608,0.03534394616008285,0.35329802423871115,1.0010753729648059,6.156264231934074
25,22,female,132,105,105,same,valid,anti,1,2,4,0.67152856265011,1,f,same,1.4659514404802394,0.2751611886995698,0.4995384844328328,0.03533977680467615,0.3533092494262746,1.0010452253184212,5.756101691218873
25,22,female,133,45,355,change,valid,anti,5,0,1,0.644966882489598,0,j,change,0.452062034876235,0,0.4995593312098663,0.03535003983324714,0.35327589458347575,1.0010917296665411,6.250191469627225
25,22,female,134,105,55,change,valid,anti,5,0,3,0.8500298910707897,1,j,change,1.0252864988574402,0,0.5007363723016169,0.03528814094215704,0.3533442078673943,1.0010471496361788,7.0288695787155575
25,22,female,135,135,185,change,valid,clock,3,2,2,0.6244943854819667,1,f,same,0.9573564747522596,0.272421972403047,0.4998165483639241,0.03531059131728398,0.3533179088565248,1.0010705621702982,5.203114316026813
25,22,female,136,165,115,change,catch,anti,1,0,2,0.7106906761669052,1,j,change,1.433850290636201,0,0.499271004250204,0.03531508139212747,0.3533153430994389,1.00106992073097,7.310250712959942
25,22,female,137,105,55,change,valid,anti,5,1,2,0.6118371847485378,1,j,change,0.9376094455783459,0.1294394214931317,0.49996921091428703,0.035318288588769065,0.35326434867602075,1.0011254052292315,5.179441357696078
25,22,female,138,135,135,same,valid,anti,5,1,1,0.9980590047171063,0,f,same,0.6436846453545968,0.12557135910804618,0.49971039016190844,0.035337211047590245,0.353251840610028,1.0010689585719774,5.273359615239087
25,22,female,139,165,215,change,valid,clock,2,2,1,0.5367964854258389,0,f,same,0.6284905522406916,0.2695820120046535,0.49941019657535435,0.03532983449576932,0.35325248204935633,1.001080504479205,4.766975370014279
25,22,female,140,165,165,same,catch,anti,2,1,1,0.5781632257724141,0,f,same,0.4189894252317572,0,0.49959942116538514,0.03533849392601951,0.3533252854085731,1.001022133503966,6.09764726483877
25,22,female,141,15,15,same,valid,clock,1,1,2,0.6516378510757477,1,f,same,1.682769786156996,0.13236448215142854,0.5003236061202188,0.03533592816916098,0.3532749324242559,1.001068317132649,5.992902795007694
25,22,female,142,75,75,same,catch,clock,4,0,2,0.6238827731217498,1,j,change,0.7612386577498,0,0.49903623747104575,0.03532117506551913,0.353297703519047,1.0010442631594287,6.5331919173518145
25,22,female,143,135,135,same,valid,anti,3,0,1,0.5347958362892768,0,f,same,1.0614925394197599,0,0.4998976904337269,0.035333683131739235,0.3533316998011742,1.0010638270575782,6.756958974826148
25,22,female,144,45,45,same,valid,clock,2,0,1,0.5936741898942728,0,f,same,0.7846348350283279,0,0.5000670304054893,0.03535068127257546,0.3532967413600545,1.001064468497134,6.54515379789791
25,22,female,145,165,215,change,valid,clock,3,0,2,0.5592843846736741,1,f,same,0.8364955221122727,0.004091785271894854,0.5000006414393283,0.03529680037263461,0.3532807053779834,1.0010869188722609,5.038072308168012
25,22,female,146,135,85,change,valid,anti,5,2,3,0.9358047561440799,1,j,change,0.9271347420194616,0.2791496910606545,0.4994974323185488,0.035353247029888735,0.35327942249932676,1.001053243309343,5.497144633013249
25,22,female,147,45,95,change,catch,clock,3,1,2,0.6134940224271759,1,j,change,1.3788747743737986,0,0.4992443845198977,0.0353365696084893,0.3532967413600545,1.0010769765631267,7.157114459709192
25,22,female,148,45,45,same,valid,anti,3,2,1,0.6356531840406205,0,f,same,0.6920953512330925,0.2765618751597986,0.500563183694112,0.03532951377610516,0.3533188710155173,1.0010436217203278,5.003047798772741
25,22,female,149,165,165,same,valid,clock,3,2,3,0.4323409839935266,1,f,same,1.3694199592814584,0.2858708878622822,0.5003806942170286,0.035285895904507925,0.35334196282997254,1.0010602991414999,5.3916657151983145
25,22,female,150,165,165,same,valid,clock,1,1,4,0.434502634391265,1,f,same,0.8599917639194246,0.12870494545377942,0.49968248755271816,0.03535003983347451,0.3532383703848154,1.0011193115560673,4.932171002582436
25,22,female,151,165,115,change,valid,anti,5,0,2,0.9773976038393357,1,f,same,1.3081650731176069,0,0.5090574434539121,0.03533304169218354,0.3533323412405025,1.0010660720952274,7.485369090580207
25,22,female,152,105,105,same,valid,anti,1,0,2,0.5836023102076524,1,f,same,0.4231488382893076,0,0.49948267921490697,0.03534907767448203,0.3533207953332749,1.0010538847488988,6.203387889882833
25,22,female,153,135,135,same,valid,clock,4,1,2,0.29375706385008016,1,j,change,2.0059384449202753,0.125204161859926,0.49965105702767687,0.0353137985136982,0.3533086079869463,1.0010570919450856,5.9451030600503145
25,22,female,154,135,185,change,valid,clock,4,1,2,0.8587691806383191,1,f,same,0.950119756714912,0.12183190100984981,0.4990468212192809,0.03529038597957879,0.35334260426930086,1.0010333586915294,5.449199932776992
25,22,female,155,45,45,same,catch,clock,1,2,2,0.9162738920097127,1,j,change,0.7841976941540452,0,0.49964592551350506,0.03535003983324714,0.3532714045084049,1.0010346415699587,6.863155021764214
25,22,female,156,105,105,same,catch,clock,4,0,1,0.6132874789766447,0,f,same,0.7416888711566116,0,0.5004198220133276,0.03531828858854169,0.3533143809406738,1.0010673549736566,6.53398377415192
25,22,female,157,15,325,change,valid,anti,4,0,1,0.5729306847877069,0,f,same,0.7919879742962621,0,0.5003341898686813,0.035286537343836244,0.3533265682870024,1.0010747315254775,6.545723395984851
25,22,female,158,75,75,same,valid,clock,5,1,4,0.5205315094219714,1,j,change,1.2523255381354375,0.11831203933024659,0.49976940257624847,0.03529391389588454,0.3532730081067257,1.0010910882274402,5.450174279054181
25,22,female,159,105,105,same,catch,clock,3,1,2,0.6607507790279215,1,j,change,1.1158981368755576,0,0.49942430823989525,0.03532374082260503,0.3533076458279538,1.0010978233399328,6.922223882837216
25,22,female,160,45,355,change,valid,anti,2,1,2,0.8106019009694592,1,j,change,0.865032193838033,0.11493604028006821,0.4994865278506495,0.03532085434585497,0.3533121359030247,1.0010622234594848,5.3204066211928875
25,22,female,161,165,115,change,catch,anti,5,2,3,1.0118932465422859,1,j,change,1.1072457623313312,0,0.4992514403518271,0.03528493374574282,0.35333522771747994,1.0010564505057573,7.275124535437499
25,22,female,162,165,165,same,catch,clock,3,1,2,0.5692802538046635,1,f,same,1.152079802744538,0,0.4997059000868376,0.035265049127701786,0.3533236818102523,1.001037207327272,6.922448386587803
25,22,female,163,165,215,change,valid,clock,2,0,3,0.7838266215262593,1,j,change,0.6652357225234482,0,0.5000596538536684,0.03531443995279915,0.35333939707288664,1.0010038524842457,6.663001589486612
25,22,female,164,15,15,same,valid,anti,1,0,1,0.38302937663661396,0,j,change,0.463437639913991,0,0.5001071203607808,0.035255748258123276,0.35334260426930086,1.0010423388414438,6.015273631585615
25,22,female,165,165,165,same,valid,anti,2,0,1,0.6140270584749032,0,j,change,0.8212815443805539,0,0.5000083387108134,0.035347153356497074,0.3532630657975915,1.0010997476576904,6.651268061326618
25,22,female,166,45,45,same,valid,clock,5,1,1,0.6773832997434965,0,j,change,0.5633700322130153,0.11149324328604626,0.500300835025655,0.035381470358288425,0.3532322767118785,1.0010747315254775,4.897588444856183
25,22,female,167,75,75,same,catch,clock,1,2,2,1.3573140756154771,1,j,change,0.9478339878151019,0,0.4989486810084145,0.0353250237010343,0.35332432324958063,1.0011019926953395,7.463129428336515
25,22,female,168,135,85,change,valid,anti,5,1,2,1.2766867608213488,1,j,change,0.8977000552922618,0.11715645522800586,0.5005263009350074,0.03533143809409012,0.35326755587266234,1.0010817873576343,5.8510946802873605
25,22,female,169,75,25,change,catch,anti,1,0,2,0.3973902401162377,1,j,change,2.2611459697727696,0,0.4996260408956914,0.0353096291582915,0.35332592684767405,1.0010574126647498,7.876159241151527
25,22,female,170,105,105,same,valid,clock,4,0,4,0.7628355208551056,1,j,change,2.0883037394628445,0,0.5002722909773638,0.035316684990448266,0.3533150223800021,1.0009849300254245,8.041056283731677
25,22,female,171,165,165,same,catch,clock,4,2,1,0.65647269970259,0,f,same,0.42091438453280716,0,0.5000439385912614,0.035329193056441,0.35334517002638677,1.001040093804022,6.239253967622744
25,22,female,172,135,185,change,valid,clock,2,0,4,0.75543555651916,1,f,same,0.9242014401595497,0,0.4999220651266114,0.03531508139235484,0.3533076458281812,1.0010692792916416,6.8513515767219815
25,22,female,173,45,355,change,valid,anti,2,2,4,0.8062686578653029,1,f,same,0.9317810074958288,0.28349088519605875,0.5000032071964142,0.03531957146719833,0.35331758813686065,1.0010622234594848,5.403270955500602
25,22,female,174,75,125,change,valid,clock,4,2,2,0.878409730890553,1,f,same,1.3931660416910745,0.2810182991953663,0.4995256556471759,0.0353307966547618,0.35324478477787125,1.0010910882274402,5.921189882706585
25,22,female,175,165,165,same,catch,anti,2,1,2,0.8388082314620533,1,f,same,1.0739563462077513,0,0.49959621396874354,0.03536062358148229,0.3532787810602258,1.0010731279273841,7.051549268310282
25,22,female,176,45,355,change,valid,anti,1,1,4,1.3844585033682506,1,f,same,1.0434363442066115,0.11406390258626496,0.500142399521792,0.03536543437621731,0.3532739702654908,1.0010564505057573,6.121742610940146
25,22,female,177,15,65,change,catch,clock,4,2,2,0.6431933028607091,1,f,same,1.2501584355040904,0,0.49958659237950087,0.03534298400109037,0.353287440490476,1.0010561297863205,7.063216407503887
25,22,female,178,75,25,change,valid,anti,5,1,2,1.096891328638776,1,f,same,0.9714479337317243,0.11088121623709266,0.5004567047724322,0.03531059131728398,0.35324895413327795,1.001134064659709,5.7449223666030775
25,22,female,179,75,125,change,catch,clock,5,1,1,0.6254860506201112,0,f,same,1.30873178472757,0,0.49993489391204093,0.035303214765463053,0.3533220782119315,1.0010243785418425,7.087299566258935
25,22,female,180,15,15,same,valid,clock,4,0,3,0.7818930027951865,1,j,change,1.3013501014115718,0,0.4997559323510359,0.03531155347627646,0.3532791017796626,1.00107954232044,7.240462439239309
25,22,female,181,15,15,same,valid,anti,3,0,1,0.5615307050570664,0,f,same,0.4212970030675933,0,0.4997049379276177,0.0353307966547618,0.3533118151835879,1.0010574126645224,6.1216184924383015
25,22,female,182,165,215,change,valid,clock,5,2,1,0.7075380020705779,0,j,change,1.6159677330379054,0.278638857666656,0.49926138266073394,0.03537409380669487,0.3533130980617898,1.0010538847486714,5.94422268462904
25,22,female,183,105,55,change,catch,anti,5,0,1,0.5221806498293518,0,j,change,1.1656635625281524,0,0.49951378902051147,0.035372490208374074,0.353296420640163,1.0010545261884545,6.828187600465299
25,22,female,184,15,325,change,valid,anti,4,2,1,0.6132435403856107,0,f,same,1.018549462025021,0.2868571181140723,0.4994342505488021,0.03537409380669487,0.3533179088567522,1.0010570919448583,5.26146701013613
25,22,female,185,105,105,same,catch,clock,1,0,1,0.49932841306599585,0,j,change,0.541397208712624,0,0.49979698446531984,0.03535966142271718,0.3532739702654908,1.0010477910755071,6.191620044721276
25,22,female,186,45,95,change,catch,clock,5,1,3,0.6514422120931158,1,j,change,1.8017240605158804,0,0.5003181538863828,0.035299686849612044,0.3533086079869463,1.0010702414501793,7.617488264868371
25,22,female,187,165,165,same,valid,clock,4,1,2,0.5879679459962972,1,f,same,1.0668649141689457,0.10769728507871165,0.499969852353388,0.035338173206582724,0.35329225128498365,1.0010362451685069,5.320430033727007
25,22,female,188,75,25,change,valid,anti,1,1,1,0.553089364038442,0,f,same,0.49237970126887376,0.10464820950950449,0.499743103565379,0.03530545980311217,0.3533570366530512,1.0010218127845292,4.661061556362711
25,22,female,189,15,65,change,catch,clock,1,1,1,0.5957341721646117,0,f,same,0.45369866721785,0,0.5000846699863359,0.03529872469016482,0.3533329826800582,1.0010202091857536,6.215810965276432
25,22,female,190,165,115,change,valid,anti,2,0,1,0.617117833679913,0,f,same,0.7083600065170685,0,0.49993457319260415,0.03530994987795566,0.3533169466977597,1.0010561297863205,6.510463799090758
25,22,female,191,105,105,same,valid,clock,1,0,1,0.5938765639893973,0,f,same,0.7528271436581235,0,0.4990657436778747,0.035262804090507416,0.35337692127086484,1.001053564029462,6.520978592605388
25,22,female,192,105,55,change,valid,anti,4,2,4,0.39002363062309087,1,j,change,1.2360592792529133,0.29507916641604093,0.4997501593979905,0.03532406154226919,0.35328519545328163,1.0010843531144928,5.29724328637576
25,22,female,193,135,85,change,valid,anti,2,1,2,0.4872029655020924,1,f,same,2.4551649974278007,0.10977296641010478,0.4992819087178759,0.03530449764411969,0.3532919305653195,1.0010920503864327,6.557247173497672
25,22,female,194,135,185,change,valid,clock,1,0,4,0.6284639325103853,1,j,change,0.8121006238638984,0,0.49938550116303304,0.0352996868491573,0.35333939707288664,1.001053243309343,6.615621035103231
25,22,female,195,135,135,same,valid,clock,1,2,4,0.6083105515481293,1,f,same,0.919440998490245,0.2929918469191162,0.49998428473736567,0.035334324571067555,0.3532797432189909,1.0010696000113057,5.191572257494499
25,22,female,196,45,45,same,catch,clock,2,0,4,0.6829009604907696,1,j,change,1.0934961904922602,0,0.49908402469827706,0.03532470298159751,0.353307966547618,1.0010590162628432,6.921170639527645
25,22,female,197,45,45,same,valid,clock,5,2,1,0.5151700391406848,0,f,same,0.897752653313546,0.2908021717565578,0.5008165522126546,0.035332720972746756,0.353307966547618,1.0010910882274402,5.050980632382107
25,22,female,198,45,45,same,valid,anti,5,1,2,0.5446897165738847,1,j,change,1.2646491904397408,0.10682835996327252,0.49927357000751726,0.03535356774909815,0.353283912574625,1.001052922589679,5.43719764155594
25,22,female,199,75,25,change,valid,anti,4,1,2,0.5646487414319381,1,j,change,0.9744938081862529,0.10400935215735263,0.5000118666271192,0.03538275323671769,0.35330828726728214,1.001079863040104,5.203060755846309
25,22,female,200,105,105,same,catch,clock,3,1,2,0.4763802811298774,1,f,same,1.0138797840145344,0,0.49982745283205077,0.03534907767425466,0.35327942249932676,1.0010583748239696,6.627529676188715
25,22,female,201,165,215,change,valid,clock,1,1,2,0.6755590464108536,1,f,same,1.615753492316344,0.10109469073866376,0.5099702115594482,0.03532598586025415,0.35333779347456584,1.0010538847486714,5.9778514221347905
25,22,female,202,165,165,same,valid,anti,3,2,4,0.6219735290833341,1,f,same,0.9123556601243763,0.29819777097361966,0.5000891600607247,0.03534202184255264,0.35333009620308076,1.0010500361127015,5.203051134256839
25,22,female,203,15,325,change,catch,anti,4,2,2,0.6327484262287726,1,f,same,0.7670722273464889,0,0.5000830663875604,0.035333041692410916,0.35330219359411785,1.001079221600321,6.61669320087185
25,22,female,204,15,65,change,valid,clock,2,0,3,0.6620573908558072,1,j,change,0.8781634182041671,0,0.4999971135234773,0.035317005710112426,0.3533349069975884,1.0010747315254775,6.722056018175863
25,22,female,205,105,105,same,valid,clock,5,1,1,0.6297051175306478,0,f,same,0.38019164922980053,0.0981539383825503,0.5002886476790991,0.03529519677431381,0.3533448493067226,1.0010747315254775,4.70865955866384
25,22,female,206,15,15,same,valid,anti,4,0,2,0.7095017684482627,1,f,same,0.6517366327261698,0,0.49939383987384645,0.03533945608523936,0.35321880648643855,1.0011218773133805,6.486077560272861
25,22,female,207,135,135,same,catch,anti,4,1,1,0.5628684266903292,0,f,same,0.2915659072455128,0,0.4995513132189444,0.03534426687974701,0.3532691594705284,1.0010728072079473,6.015129628465729
25,22,female,208,45,95,change,valid,clock,4,0,1,0.5621140940888836,0,f,same,0.7789843963478233,0,0.499726105424088,0.03528878238148536,0.35333330339972235,1.0010769765631267,6.521365701215018
25,22,female,209,15,325,change,valid,anti,2,2,1,0.5684229701973891,0,f,same,0.27055460123619923,0.29619889691708784,0.49993232815495503,0.03532021290675402,0.353306042229633,1.0010336794111936,4.496151684996676
25,22,female,210,75,75,same,valid,anti,3,1,1,0.6789477701649957,0,j,change,0.5753950945290853,0.10317136875267167,0.4996786389169756,0.0353195714674257,0.35330892870661046,1.0010625441786942,4.908129216661564
25,22,female,211,105,105,same,catch,anti,1,1,1,0.5071279940784734,0,f,same,0.3321924266547285,0,0.5002293145448675,0.03530385620479137,0.35331277734212563,1.0010532433097978,5.968751322968728
25,22,female,212,135,135,same,valid,anti,3,2,4,1.9974230176640049,1,f,same,0.6977602222968926,0.3036200234997918,0.5002386154151282,0.03533047593509764,0.3532714045081775,1.0010763351237983,6.333914049701434
25,22,female,213,135,185,change,catch,clock,2,0,2,0.6373071352422812,1,f,same,0.8732477482271861,0,0.49945189012942137,0.03527627431503788,0.35328711977081184,1.0010991062185894,6.639163781258958
25,22,female,214,45,45,same,valid,clock,3,2,2,0.439395212553336,1,f,same,1.0957947881774999,0.3016049295440339,0.5004474039028537,0.035314760672918055,0.35335222585854353,1.0010118704758497,5.179977921659884
25,22,female,215,15,65,change,valid,clock,3,1,2,0.4062440265965961,1,j,change,1.2973545760919478,0.10765144412196098,0.4994393820629739,0.035354529908545373,0.35328776121014016,1.001017322709231,5.391106380140172
25,22,female,216,165,215,change,valid,clock,1,2,2,0.8924392909789276,1,j,change,0.6366121357746124,0.29963038397668135,0.4992668348945699,0.035332400253082596,0.3533054007903047,1.0010615820206112,5.1551336951906706
25,22,female,217,135,185,change,valid,clock,2,2,1,0.592305679175297,0,f,same,0.612571312012733,0.29776093073481547,0.4999855676160223,0.03532021290675402,0.35329064768666285,1.0010760144041342,4.837585327461511
25,22,female,218,15,65,change,valid,clock,4,1,1,0.5925276171687983,0,f,same,0.47191297721474257,0.10512557377095252,0.5003152674094054,0.03531059131728398,0.3533365105959092,1.0010461874771863,4.708596697613757
25,22,female,219,135,135,same,valid,clock,4,0,1,0.4256879757072056,0,f,same,0.43186247028552316,0,0.49975176299585655,0.03534170112288848,0.3532611414798339,1.0010263028598274,6.027320182117364
25,22,female,220,105,155,change,valid,clock,5,1,2,0.6055828309795288,1,j,change,1.5137980005051759,0.10969338214853278,0.4996080805958627,0.03535228487044151,0.3533179088567522,1.001051639711477,5.779493378422103
25,22,female,221,135,185,change,catch,clock,2,2,1,0.5398943164632328,0,f,same,0.6812082022124741,0,0.5000227710947911,0.03531155347582171,0.35332720972655807,1.0010968611809403,6.369468067227899
25,22,female,222,165,165,same,valid,anti,5,2,4,0.5003492636919873,1,f,same,0.8703009761420617,0.3044893455234811,0.4992668348945699,0.03532630657991831,0.3533695447190439,1.001034641570186,5.037385326691492
25,22,female,223,165,115,change,catch,anti,2,0,1,0.6335120597000241,0,f,same,0.47469457868373865,0,0.49945413516661574,0.0352996868491573,0.3533086079869463,1.0010404145236862,6.286066848236715
25,22,female,224,105,155,change,valid,clock,4,1,3,0.6210258025366784,1,f,same,0.8309050580055555,0.10721824720644033,0.4996629236543413,0.03533175881375428,0.35330892870661046,1.0010686378523133,5.143367774346643
25,22,female,225,135,85,change,valid,anti,2,0,1,0.5768643112164682,0,f,same,0.5629524552373368,0,0.499793777269133,0.0353112327566123,0.35335126369955105,1.0010263028593727,6.274111702803566
25,22,female,226,165,165,same,valid,clock,5,1,4,0.5231909167064259,1,f,same,0.9431578954117867,0.10485361319724107,0.49984765816907384,0.03532823089744852,0.35330475935143113,1.0010554883469922,5.15600444902293
25,22,female,227,135,85,change,valid,anti,2,2,3,0.64713590943893,1,j,change,0.857685789682364,0.3026505082822718,0.49967992179563225,0.03534522903873949,0.3533137395011181,1.0010878810312533,5.1206101498787575
25,22,female,228,75,25,change,valid,anti,4,0,1,0.5867928292218494,0,f,same,0.40856154674111167,0,0.49918440994633784,0.035353567749552894,0.3532637072366924,1.0010468289165146,6.156224783418111
25,22,female,229,75,75,same,valid,anti,5,2,2,0.5498488127600467,1,f,same,1.202005908938645,0.3008500561970131,0.49995445781087255,0.03535100199223962,0.35326434867602075,1.001049715393492,5.391633001794617
25,22,female,230,105,55,change,valid,anti,2,2,3,0.6839109066486344,1,j,change,0.9615649579150158,0.29908664700356813,0.4992995482984952,0.03533881464591104,0.35329674135982714,1.0010362451685069,5.273164938415448
25,22,female,231,105,155,change,valid,clock,2,0,1,0.5718591604581889,0,f,same,0.7291955581613365,0.0009026830824116483,0.49920589816292704,0.03534266328142621,0.35331566381910307,1.0010542054683356,4.93101416682839
25,22,female,232,135,135,same,valid,clock,3,1,1,0.5440893294012312,0,f,same,0.35179865990494363,0.10242688793173062,0.5001882624305836,0.035298724690619565,0.35334196282974517,1.0010468289165146,4.532451054975354
25,22,female,233,135,185,change,valid,clock,3,1,2,0.6124266674532919,1,j,change,1.0587269739330623,0.10640417556994083,0.499512826861519,0.03531091203649339,0.35330892870661046,1.001079863040104,5.261694400363467
25,22,female,234,15,15,same,valid,anti,1,2,4,0.41203782695765767,1,f,same,1.6448090884250632,0.2974221967131274,0.4993819732467273,0.03530738412064238,0.35332720972655807,1.001062544179149,5.6503309185286525
25,22,female,235,135,85,change,valid,anti,4,1,4,0.7500590124141127,1,j,change,0.9245029166245331,0.10418206931131795,0.4997065415259385,0.03534619119773197,0.3533054007903047,1.0010631856184773,5.2847788381477585
25,22,female,236,75,75,same,valid,clock,4,1,4,0.5353769802832176,1,f,same,1.0657067955362436,0.10188486633756011,0.5004810794653167,0.03531379851347083,0.353251840610028,1.0011164250795446,5.250692112990691
25,22,female,237,165,165,same,valid,anti,4,0,2,0.7185428552002122,1,j,change,1.3330981389281078,0.00393470175936958,0.49933482745927904,0.035333683131739235,0.3533063629492972,1.0010468289165146,5.709140958849275
25,22,female,238,105,55,change,valid,anti,3,0,1,0.5797171124454508,0,f,same,0.3604093408953304,0.0006957690212858469,0.4997469522013489,0.03535485062820953,0.35330540079075945,1.0010513189913581,4.56670263002934
25,22,female,239,135,135,same,catch,anti,5,0,1,0.5428744433907013,0,f,same,0.6856591494261011,0,0.5001000645288514,0.035301931886806415,0.35327108378851335,1.0010891639094552,6.357666546503424
25,22,female,240,15,15,same,valid,clock,2,1,3,0.4910320373264767,1,j,change,1.2328014091135628,0.09956741314983772,0.4998919174799994,0.03529423461532133,0.35337595911187236,1.0010449045989844,5.414943226208834
25,22,female,241,135,135,same,valid,clock,2,2,4,0.7782679086640201,1,f,same,0.8462460407158687,0.2958395024273528,0.500067671845045,0.03532566514058999,0.35326466939613965,1.001032717252201,5.2617101156261015
25,22,female,242,135,135,same,valid,clock,2,1,1,0.5789974175654606,0,j,change,0.40828508640834116,0.09729542651849335,0.49971488023720667,0.035356133506411425,0.35328615761181936,1.0010882017504628,4.6141126906195495
25,22,female,243,135,135,same,valid,anti,4,2,4,0.6916906030428436,1,f,same,0.9454401363955185,0.29431784043663284,0.4998126997284089,0.03529680037263461,0.3533121359027973,1.0010824287969626,5.2856864747395775
25,22,female,244,15,15,same,valid,anti,4,1,4,0.39930846430479505,1,f,same,0.8891663470158164,0.10128142141157831,0.4997174459940652,0.03529038597980616,0.35329898639747626,1.001055167627328,4.919701422840717
25,22,female,245,45,355,change,valid,anti,5,2,2,0.8395616019047338,1,j,change,1.2884902058635817,0.2927165847250683,0.5004377823138384,0.035289423820358934,0.3533964851694691,1.001019247027216,5.733798526485771
25,22,female,246,165,165,same,valid,anti,5,0,2,0.776023191879176,1,j,change,1.1277814411087093,0.0036372789275554707,0.49979409798879715,0.0353487569545905,0.3533018728744537,1.0010336794111936,5.520820798540626
25,22,female,247,135,135,same,valid,clock,5,0,1,0.31166989738221673,0,j,change,1.473919078585368,0.0005013089191949482,0.5000121873463286,0.03533592816938835,0.353236766786722,1.0010898053487836,5.426606837485906
25,22,female,248,165,115,change,valid,anti,4,2,2,0.48693163668394845,1,f,same,1.0623456536714002,0.29114123459374425,0.49987876797467834,0.03532053362641818,0.3533063629492972,1.0010599784218357,5.203351327843393
25,22,female,249,15,325,change,valid,anti,1,2,2,0.5795731093257928,1,j,change,0.9619806105733915,0.28957927195014554,0.49944675861524956,0.03532887233723159,0.35328776121014016,1.0010766558434625,5.226576561552065
25,22,female,250,75,75,same,valid,clock,3,2,1,0.5762498123790465,0,f,same,0.37189880140658715,0.28808747680014507,0.49946600179328016,0.03532309938327671,0.3533339448390507,1.0010619027398207,4.554625611131087
25,22,female,251,135,185,change,valid,clock,1,2,2,0.5967447597618047,1,j,change,1.2909488426512326,0.2934941879036863,0.5039826965335124,0.03534362544041869,0.3532935341636403,1.0010352830095144,5.536431506471672
25,22,female,252,15,15,same,valid,clock,2,2,2,0.6851928230639714,1,f,same,1.6614416091401836,0.29203458321937015,0.5002273902273373,0.0353080255599707,0.3532980242384838,1.0010763351237983,6.039518112321275
25,22,female,253,165,165,same,valid,anti,1,2,2,0.5510056485140922,1,f,same,1.0852761460273541,0.2905876256051313,0.4993813318078537,0.035318609308433224,0.3532601793208414,1.0011093692473878,5.28510693434373
25,22,female,254,135,135,same,valid,clock,3,2,2,0.8179874329216545,1,j,change,0.9834341889704774,0.2891584189795938,0.499754649472834,0.03531540211179163,0.3533339448385959,1.0010567712256488,5.43872426705957
25,22,female,255,105,155,change,valid,clock,4,2,3,0.4523231006660353,1,f,same,0.9392650003783274,0.2878002959561714,0.49945734236325734,0.035371528049381595,0.3532900062477893,1.001066072095,5.037472883154351
25,22,female,256,15,15,same,valid,anti,1,1,1,0.6675006446466796,0,f,same,0.8190971228882518,0.09906873263638333,0.5001231563433066,0.035335928168933606,0.3533009107154612,1.0010750522455965,5.144650973640637
25,22,female,257,75,125,change,valid,clock,3,1,2,0.539038315734615,1,j,change,1.2640433510327966,0.10281636111585361,0.499653302065326,0.035351964151232096,0.35330828726728214,1.0010599784218357,5.438700533805786
25,22,female,258,15,325,change,valid,anti,3,1,2,1.417027583172512,1,j,change,0.804902071464312,0.10072532593346603,0.4996119292309231,0.035317967869104905,0.35333009620308076,1.001064468497134,5.873746787992786
25,22,female,259,105,105,same,catch,anti,2,1,2,0.7351285508475485,1,j,change,0.863332379727126,0,0.4998822958909841,0.03535998214238134,0.3532325974310879,1.0010760144041342,6.73342520882079
25,22,female,260,135,135,same,valid,clock,1,1,4,0.3647002490065461,1,f,same,0.7941249292812245,0.09861618356500923,0.5007671613871025,0.03532823089790327,0.35331566381910307,1.0010615820201565,4.88590879759613
25,22,female,261,165,165,same,valid,clock,4,0,2,0.5574062504410904,1,f,same,1.8350388134913374,0.0033585407526510735,0.4996103256330571,0.035351964151232096,0.35326274507769995,1.0010622234594848,6.015342907028298
25,22,female,262,165,165,same,valid,anti,3,1,2,0.6495826795999164,1,f,same,1.3494272588604872,0.09659792429970625,0.49928319159653256,0.03532887233677684,0.3532848747331627,1.001067996412985,5.6620599566131204
25,22,female,263,45,355,change,catch,anti,2,2,1,0.574533962285841,0,f,same,0.36224481941553677,0,0.49966484797232624,0.03531379851347083,0.3533374727549017,1.0010554883469922,6.097768496863864
25,22,female,264,105,105,same,valid,anti,3,2,2,0.5835869156649096,1,f,same,1.22747233151631,0.28650316988550256,0.5001994876183744,0.03533304169195617,0.35328583689260995,1.001057091945313,5.473858141852816
25,22,female,265,75,25,change,valid,anti,5,0,3,0.6757126711199817,1,j,change,0.8983026875025644,0.0003181270255355473,0.49971039016190844,0.03532245794394839,0.35329609992095357,1.0010843531149476,5.214151241120817
25,22,female,266,135,185,change,catch,clock,4,2,1,0.5642391824471815,0,f,same,0.8543557576231251,0,0.5004663263616749,0.03530610124244049,0.3533086079869463,1.0011212358735975,6.557773153713242
25,22,female,267,165,215,change,valid,clock,4,1,2,0.7395814223787056,1,j,change,0.964807754231515,0.09465100846631999,0.5003999373957413,0.03530545980311217,0.35330219359411785,1.001084994554276,5.332884218925756
25,22,female,268,105,155,change,valid,clock,5,2,2,0.5188743510238965,1,f,same,1.1235790516193447,0.2852533234105764,0.49959525180975106,0.03533849392624688,0.35323259743154267,1.001066072095,5.2501751129252625
25,22,female,269,45,95,change,catch,clock,5,1,2,0.5034037975769934,1,j,change,1.0728938020288297,0,0.4996751110011246,0.035386601872687606,0.3532566514049904,1.001057091945313,6.76885927720059
25,22,female,270,45,355,change,catch,anti,1,0,3,0.6207939222344976,1,f,same,0.917098141493625,0,0.5005651080123243,0.035302573326134734,0.3533143809409012,1.0010798630396494,6.69898986141061
25,22,female,271,105,55,change,valid,anti,2,0,4,0.5549344641481184,1,j,change,0.8635876725629714,0,0.500041052114284,0.03525222034204489,0.35335126369955105,1.0010910882274402,6.639433185759572
25,22,female,272,15,65,change,valid,clock,3,0,1,0.5217072676355201,0,f,same,0.5296627183943201,0,0.4999114813781489,0.035372810928038234,0.35332239893159567,1.0010465081968505,6.20419610338422
25,22,female,273,165,165,same,valid,clock,2,2,2,0.6090674499068882,1,f,same,0.7860097601401321,0.2840385191998951,0.49929441678386866,0.035337531767254404,0.35329706207994604,1.0010651099364622,5.073094251805742
25,22,female,274,75,75,same,valid,anti,4,2,4,1.2350130917761817,1,f,same,1.0940160770346665,0.28274828363297544,0.4995955725294152,0.035355812786747265,0.35331053230493126,1.0010647892163433,5.991617992115607
25,22,female,275,105,105,same,valid,clock,2,2,4,0.4383836627976052,1,f,same,1.0411117682301665,0.28147076084610184,0.5002764603327705,0.035320212906299275,0.3533095701459388,1.0010487532344996,5.144799146115929
25,22,female,276,105,155,change,valid,clock,1,2,3,1.0652257160704721,1,j,change,1.0355010987855167,0.28019407988112044,0.49974631076156584,0.03532053362641818,0.35333779347456584,1.0010554883469922,5.76781661763971
25,22,female,277,165,115,change,valid,anti,5,2,1,0.6130665031423632,0,f,same,0.5614001721623936,0.27893820753354176,0.5002373325360168,0.03531604355111995,0.3532858368921552,1.0010503568328204,4.79159413057414
25,22,female,278,105,155,change,valid,clock,2,2,2,0.7425573799514495,1,j,change,0.957165325844926,0.2833941210435361,0.49952597636684004,0.03532502370080692,0.3532922512854384,1.001050998271694,5.331736042601733
25,22,female,279,135,135,same,valid,clock,3,0,4,0.49853238691093793,1,f,same,0.7597781004928947,0,0.5003476600936665,0.03533047593509764,0.3532752531436927,1.0010843531149476,6.4166536240682035
25,22,female,280,15,325,change,catch,anti,5,0,1,0.5236075315233393,0,f,same,0.4543667262346389,0,0.49993200743529087,0.035318930028097384,0.3532935341636403,1.0010805044789777,6.132829889018467
25,22,female,281,15,325,change,valid,anti,5,0,1,0.5389459484772487,0,f,same,0.6353597255665591,0,0.5005522792262127,0.03513804414888,0.3533002692761329,1.0010917296667685,6.333537845559476
25,22,female,282,15,65,change,catch,clock,2,0,1,0.5398782804809343,0,f,same,0.5353641514980154,0,0.5004727407545033,0.03531443995279915,0.35333105836207324,1.0010731279276115,6.251686023166258
25,22,female,283,105,55,change,catch,anti,4,2,1,0.5432451952988231,0,f,same,0.38512399662840835,0,0.4996516984670052,0.035332400253082596,0.3532698009098567,1.0010814666379702,6.074319080124496
25,22,female,284,75,75,same,valid,clock,5,0,1,0.5974933194097503,0,f,same,0.5766702758319298,0,0.4995994211649304,0.03532053362641818,0.3533695447190439,1.0010356037291785,6.333474984509394
25,22,female,285,75,125,change,valid,clock,1,2,4,0.3599792558534318,1,f,same,1.1410464055666125,0.2821961274862857,0.49927421144639084,0.03534458759941117,0.35327653602280407,1.0010503568323657,5.155091039478066
25,22,female,286,105,55,change,catch,anti,4,1,1,0.572637547033537,0,f,same,0.5527243850842751,0,0.4995888374169226,0.03534330472075453,0.3532678765923265,1.0010821080772985,6.251161967268672
25,22,female,287,15,15,same,valid,clock,5,0,1,0.562954700274986,0,f,same,0.3305166665172692,0,0.499411479454011,0.035355812786747265,0.35330091071591596,1.0010586955436338,6.073470135228035
25,22,female,288,135,85,change,valid,anti,5,0,2,0.376452378905924,1,j,change,2.677497475936434,0.0023977912108419652,0.5004711371561825,0.03532213722473898,0.3532999485569235,1.0010471496361788,6.699675239288808
25,22,female,289,105,155,change,valid,clock,1,0,1,0.6346262397414648,0,f,same,0.39423083090741784,0,0.4989823565711049,0.03532823089744852,0.35330636294975193,1.001037848766373,6.179152710016751
25,22,female,290,15,325,change,catch,anti,4,2,2,0.6720638437350317,1,f,same,0.8396081062533085,0,0.4999188579299698,0.03529583821364213,0.35332592684790143,1.001043621719873,6.698206664041209
25,22,female,291,15,15,same,valid,anti,5,0,1,0.5484135923552458,0,f,same,0.48523374689057164,0.0021896014615411796,0.5007710100230724,0.03523971227605216,0.3533044386313122,1.001130536743858,4.6849756958654325
25,22,female,292,75,25,change,valid,anti,1,0,1,0.5697725584577711,0,f,same,0.37778753478187355,0.0045637192110801195,0.50017799940224,0.035316684990448266,0.3532925720046478,1.001102313415231,4.602213350404327
25,22,female,293,135,185,change,valid,clock,4,0,1,0.5273131262852075,0,f,same,0.41136271210825726,0.006867218568494066,0.4998373951407302,0.03528782022249288,0.35330668366896134,1.0010635063381415,4.61406201691625
25,22,female,294,135,85,change,catch,anti,4,1,1,0.6336095584715622,0,f,same,0.31340242489704906,0,0.5000304683658214,0.0353112327566123,0.353307966547618,1.0010763351237983,6.07481491269391
25,22,female,295,105,55,change,catch,anti,2,0,1,0.6450444966435498,0,f,same,0.6764355731966134,0,0.5000391277967537,0.035285254465179605,0.3533390763532225,1.0010686378523133,6.4869386925156505
25,22,female,296,105,105,same,valid,clock,2,0,1,0.5468234643622054,0,f,same,0.47518624189706316,0.009349729470201767,0.49977645840817786,0.035319250747761544,0.3533095701459388,1.0010410559630145,4.660592343524058
25,22,female,297,15,15,same,valid,anti,2,0,2,0.439605925359956,1,j,change,2.0149917190187807,0.011834527974892955,0.49990185978867885,0.0352884616618212,0.3532627450781547,1.001137271855896,6.063105759226801
25,22,female,298,165,215,change,valid,clock,2,1,4,0.7237786033811062,1,j,change,1.005792838202069,0.09264135744927178,0.49899037456225415,0.03526857704400754,0.3533705068780364,1.0010721657681643,5.390064041298501
25,22,female,299,75,75,same,catch,clock,3,0,4,0.7089167758181247,1,j,change,0.8178713324105047,0,0.5003325862703605,0.03533368313128449,0.3532919305653195,1.0010885224705817,6.698692875020697
25,22,female,300,105,155,change,valid,clock,5,0,1,0.4032667861451955,0,f,same,1.7632864526740377,0.009223669302130283,0.5007148840854825,0.03534426687974701,0.35329289272431197,1.0010692792916416,5.745987797259204
25,22,female,301,45,45,same,catch,anti,2,0,1,0.7614086391608907,0,f,same,0.4203819899244081,0,0.5084323608689374,0.03532630657946356,0.35330475935143113,1.001050998271694,6.42418893209333
25,22,female,302,15,15,same,valid,anti,4,2,3,0.3104296745209467,1,f,same,1.19507579888068,0.2810031645828133,0.5002020533756877,0.03526440768837347,0.35339456085148413,1.001017643428895,5.097533088645832
25,22,female,303,45,95,change,catch,clock,4,2,1,0.5569675059682595,0,j,change,0.6484608022865359,0,0.499231876453905,0.035355812786747265,0.35331566381910307,1.001049394673828,6.368263444246622
25,22,female,304,135,135,same,valid,anti,4,1,3,0.5664165481075543,1,f,same,0.7921220351072407,0.0906251345883365,0.4997475936406772,0.03532566514013524,0.35396544181685385,1.0003592060011215,5.014386521051165
25,22,female,305,45,45,same,valid,anti,4,0,1,0.5177633781786426,0,f,same,1.1654441902919643,0.011646956485084597,0.5000718412002243,0.03530545980311217,0.35332528540811836,1.0010131533540516,5.2737730228595865
25,22,female,306,135,85,change,valid,anti,3,0,1,0.5051565304293035,0,f,same,0.2641453398791782,0.013949395511457102,0.499626682334565,0.03531315707459726,0.3533105323044765,1.001049394673828,4.390263528916876
25,22,female,307,45,95,change,valid,clock,5,0,2,0.6293042179768236,1,j,change,1.0213698705701972,0.01617156136121961,0.4998258492332752,0.035354209188881214,0.3533076458279538,1.0010638270578056,5.285742279957503
25,22,female,308,15,65,change,valid,clock,2,2,1,0.5180427249879358,0,f,same,0.9747612883693364,0.2798062710962934,0.4996032698009003,0.03532245794394839,0.3533371520352375,1.0010307929342162,5.108696056559438
25,22,female,309,15,15,same,catch,anti,5,0,1,0.5427554564030288,0,f,same,0.3912045203510388,0,0.4997203324705879,0.035300007569276204,0.35333298267960345,1.0010744108058134,6.074667702377155
25,22,female,310,75,125,change,valid,clock,1,1,2,0.699114621352237,1,j,change,1.3118190320165013,0.08858348505166971,0.49930018973782353,0.03528942382081368,0.3533387556335583,1.001041376682224,5.661339941013466
25,22,female,311,75,125,change,valid,clock,5,0,1,0.5582426872711039,0,f,same,0.5218881535142827,0.013791235670421675,0.4998027574192747,0.035300328288485616,0.3533057215104236,1.0010673549736566,4.70814865227203
25,22,female,312,75,25,change,catch,anti,4,0,3,0.5256171608098157,1,j,change,1.003260756615873,0,0.4997280297425277,0.03536222717957571,0.3532816675369759,1.0010596577021715,6.68644138463651
25,22,female,313,165,165,same,valid,clock,2,1,2,0.4550222771863446,1,f,same,0.955221764804719,0.0866262840469932,0.5000112251877908,0.03527787791335868,0.35335735737271534,1.0010782594417833,5.0383680116792675
25,22,female,314,45,45,same,valid,anti,3,1,1,0.5435328808193844,0,f,same,0.5653286670767557,0.08473522287610948,0.49915875237502405,0.03532406154226919,0.3533220782119315,1.001053243309343,4.7190059743657
25,22,female,315,135,135,same,valid,anti,5,2,4,0.6071242095868001,1,f,same,0.8825139801692785,0.2839641560576869,0.5003171917273903,0.03528717878316456,0.35329449632263277,1.001079863040104,5.109640575909907
25,22,female,316,15,65,change,valid,clock,1,1,1,0.549915201726435,0,f,same,0.3636120472560833,0.08793243549097993,0.49932199867362215,0.03531604355111995,0.3533086079869463,1.0010609405808282,4.554470703543302
25,22,female,317,15,325,change,valid,anti,2,1,2,0.42313953741995647,1,f,same,1.5654665765232494,0.09130884135601605,0.500072803358762,0.03534490831907533,0.35330219359411785,1.0010619027398207,5.568607063272793
25,22,female,318,105,105,same,valid,anti,4,0,2,0.5554957235240181,1,j,change,0.914403455048614,0.0159574382180086,0.49957921582745257,0.03528525446563435,0.3531476067255426,1.0012678047510235,5.096657844738274
25,22,female,319,75,75,same,valid,anti,5,1,2,0.6425027934678837,1,f,same,0.9229862334300378,0.08942251655711111,0.4997046172084083,0.03531315707459726,0.3533878257385368,1.0010038524847005,5.202410015689566
25,22,female,320,75,125,change,valid,clock,3,2,1,0.3799873508173732,0,f,same,0.3460247441616957,0.2828349423094326,0.5004785137084582,0.035316684990448266,0.35331887101574466,1.0010404145236862,4.319756201755808
25,22,female,321,135,185,change,catch,clock,4,0,1,0.531749961834521,0,f,same,0.3306616317959197,0,0.5005368846832425,0.035297762531627086,0.35332785116543164,1.0010426595613353,6.004735746256756
25,22,female,322,165,215,change,valid,clock,5,0,2,0.46760956103753415,1,j,change,0.6961088368525452,0.013641051919175584,0.49952597636684004,0.03537569740501567,0.35331726741742386,1.0010163605502385,4.837535295196631
25,22,female,323,105,155,change,catch,clock,3,1,1,0.4879467143555303,0,f,same,0.3578666755611266,0,0.49953014572201937,0.035337852486918564,0.3532912891264459,1.0010368866073804,6.003247607110552
25,22,female,324,165,165,same,valid,anti,2,2,2,0.37572113811847885,1,f,same,1.3718885383777888,0.28667854957256644,0.500426877845257,0.035283330147649394,0.3533397177925508,1.0010503568323657,5.34493365593471
25,22,female,325,75,75,same,valid,anti,2,2,4,0.534967421298461,1,f,same,1.2230935462230264,0.28564378932494233,0.4992248206212935,0.035333362412075076,0.35329674135982714,1.0010022488863797,5.379021663970889
25,22,female,326,135,135,same,valid,anti,3,1,4,0.46803579744391755,1,f,same,0.9488073719330714,0.08758276467578238,0.4993143014016823,0.03534843623538109,0.3533467736242528,1.0010580541043055,5.073128248088324
25,22,female,327,15,15,same,valid,clock,5,1,4,0.49716387619173474,1,j,change,0.9584430729046289,0.0858197257383846,0.49979794662476706,0.03532823089744852,0.3533111737442596,1.0010686378523133,5.0967126877976625
25,22,female,328,75,125,change,valid,clock,5,1,1,0.5089307591947545,0,f,same,0.6368825024342186,0.08410228178449072,0.5000529187409484,0.03534779479605277,0.3532784603403343,1.001068317132649,4.767601735478365
25,22,female,329,15,15,same,valid,clock,3,0,2,0.5208573605800666,1,f,same,1.0919503218101454,0.011281801404846914,0.49963341744751233,0.0353391353655752,0.3533207953332749,1.0010878810307986,5.249616419306221
25,22,female,330,75,125,change,valid,clock,4,1,1,0.5362637700977757,0,f,same,0.3545449822131559,0.08702630259894245,0.5003104566153525,0.035354850627754786,0.3532848747331627,1.0009971173722079,4.53173873664673
25,22,female,331,105,155,change,valid,clock,2,1,3,0.5522320804311676,1,f,same,3.1131668883908787,0.09014266570890986,0.5004249535277268,0.035302894045798894,0.35333169980140156,1.001067996412985,7.287875065586832
25,22,female,332,165,165,same,catch,anti,5,2,2,0.38076541667260244,1,f,same,0.9633164078886693,0,0.5003386799435248,0.03534458759941117,0.35331053230493126,1.0010388109253654,6.4868620405209185
25,22,female,333,105,105,same,valid,anti,3,1,2,0.48715453683598753,1,j,change,1.170053573009227,0.0883998374332229,0.5003675447114801,0.035321495784955914,0.35325216132969217,1.001096219741612,5.285765051052294
25,22,female,334,15,15,same,valid,anti,5,2,2,0.3479606079304176,1,j,change,1.2785273708559544,0.28463624820149025,0.500050673703754,0.03529712109184402,0.35335607449451345,1.0009852507450887,5.320642991569912
25,22,female,335,165,165,same,valid,anti,4,2,4,0.4326501577302224,1,f,same,0.8732163177023722,0.28356631247267894,0.4998752400583726,0.035332400253082596,0.35328615761181936,1.0010744108062681,4.955370257999675
25,22,female,336,45,45,same,catch,clock,1,2,2,0.40446210825712114,1,j,change,1.6488687576734264,0,0.49961353282969867,0.03531091203694814,0.353317588137088,1.001064789216798,7.181103968328443
25,22,female,337,45,45,same,valid,anti,2,1,4,0.3927369188081684,1,j,change,0.9243775152435774,0.0867383507997293,0.49979922950296896,0.03530642196210465,0.35331406022078227,1.0010760144041342,5.073315869079579
25,22,female,338,105,105,same,valid,clock,1,1,1,0.5428962523265,0,f,same,0.7796704156653504,0.08513273406982161,0.49961738146521384,0.035352605590560415,0.3532617829191622,1.001073448646821,4.955333375240571
25,22,female,339,165,215,change,valid,clock,1,0,1,0.5205844281631471,0,f,same,1.091776812482749,0.0089241983697681,0.499509298945668,0.035324382261478604,0.35333426555871483,1.0010657513753358,5.238157106441577
25,22,female,340,105,105,same,valid,clock,2,1,4,0.41297593191529813,1,j,change,1.0042405551271258,0.08805847627659916,0.4992613826611887,0.03532566514058999,0.3533313790817374,1.001053243309343,5.108162058353173
25,22,female,341,45,45,same,valid,clock,1,0,2,0.4438455183280894,1,j,change,1.248212629426689,0.011124013385043374,0.4998909553210069,0.03534138040322432,0.35325921716184894,1.001084994554276,5.3676210428006925
25,22,female,342,75,75,same,catch,clock,4,0,2,1.0229782795827305,1,j,change,0.8148488704896408,0,0.5002716495382629,0.03532887233677684,0.35329545848162525,1.0010391316450296,7.016792239097867
25,22,female,343,165,165,same,catch,anti,5,1,1,0.49058270910563806,0,f,same,0.3529898126612352,0,0.49998428473736567,0.03532887233677684,0.35327044234918503,1.0010901260684477,6.015464780493403
25,22,female,344,75,25,change,valid,anti,5,2,1,0.5208971298156939,0,f,same,0.43803471982573683,0.28250858486282915,0.5003675447114801,0.03534362544041869,0.3532646693956849,1.0010375280471635,4.590822671543265
25,22,female,345,135,185,change,valid,clock,3,0,1,0.5577282529629883,0,f,same,0.3790415485882477,0.008823313683465839,0.4994438721378174,0.035337211047590245,0.3533092494262746,1.0010426595613353,4.54293666300191
25,22,female,346,165,115,change,valid,anti,1,1,2,0.5080927187659654,1,j,change,0.8434009367579165,0.08647131146242379,0.5001610012614037,0.03532823089744852,0.3531960353921022,1.001129895304075,4.979779267912363
25,22,female,347,15,15,same,valid,anti,2,1,1,0.5815330270675076,0,f,same,0.6199706349093503,0.08493319688440829,0.4997116730405651,0.035351322711903777,0.3533240025294617,1.001066713534783,4.825753659090424
25,22,female,348,105,105,same,catch,anti,1,2,1,0.5413484593268549,0,f,same,0.4616845863420167,0,0.5002738945754572,0.035317967869104905,0.353306042229633,1.0010253407003802,6.12176794779225
25,22,female,349,15,325,change,valid,anti,2,0,2,0.3901862354828154,1,f,same,1.6004490716450164,0.010973095654745885,0.5003790906184804,0.035334645290731714,0.35330764582840857,1.0010445838788655,5.579928787410154
25,22,female,350,75,125,change,valid,clock,1,0,1,0.5229782795827305,0,f,same,0.30522503614520247,0.008727160543031465,0.499844450972887,0.035317326429776585,0.3533188710152899,1.0010593369825074,4.449104679043103
25,22,female,351,75,125,change,catch,clock,4,2,2,0.7957156987135932,1,j,change,1.4599001022456832,0,0.5034329830646129,0.03533111737442596,0.3533259268474467,1.0010465081973052,7.396863618461339
25,22,female,352,165,115,change,valid,anti,2,2,1,0.5903524965460747,0,j,change,0.32531395245905514,0.2861223244711666,0.5001051960430232,0.035333041692410916,0.3532678765923265,1.0010413766826787,4.555564998967384
25,22,female,353,135,185,change,valid,clock,4,2,2,0.2687418938112387,1,j,change,0.7135527782656936,0.289972064602125,0.4991693361234866,0.03539333698518021,0.35327108378851335,1.0010991062185894,4.671995209731449
25,22,female,354,165,115,change,valid,anti,3,0,1,0.5447217885380269,0,f,same,0.2687537604379031,0.010828561261203296,0.49970397576908,0.035337852486918564,0.3533570366530512,1.0010583748239696,4.437121631000537
25,22,female,355,75,25,change,valid,anti,2,2,2,0.6510852511300982,1,j,change,1.2382770555882416,0.288926175140769,0.5002334839005016,0.0353603028620455,0.3533054007903047,1.0010558090666564,5.556794317361437
25,22,female,356,15,15,same,catch,clock,3,0,4,0.6872871223367838,1,j,change,1.115509745387044,0,0.49956895279910896,0.03533175881375428,0.3533426042690735,1.0010410559630145,6.957488290525816
25,22,female,357,45,45,same,valid,clock,3,0,2,0.21725837302801665,1,j,change,1.3442630311596986,0.012849551009289306,0.5003053251002711,0.03530706340143297,0.35333458627792425,1.0010298307756784,5.26200293266038
25,22,female,358,45,95,change,valid,clock,3,1,4,0.26814439311510796,1,j,change,0.8095345459960299,0.08753207077759727,0.5000942915753512,0.03531411923313499,0.35331983317473714,1.0009996831286117,4.767532139315335
25,22,female,359,75,75,same,valid,anti,1,0,1,0.5864977671494671,0,f,same,0.52940357692205,0.010689967792411187,0.49919018289983796,0.03533945608523936,0.3532986656778121,1.0011279709865448,4.731006982708095
25,22,female,360,135,135,same,catch,clock,3,0,2,0.3053327979455389,1,j,change,0.7859632557915575,0,0.4997270675830805,0.035316364270784106,0.3533050800710953,1.0010667135343283,6.227246865606958
25,22,female,361,105,105,same,catch,clock,1,0,1,0.5163044245196033,0,f,same,0.3541078413386458,0,0.5004599119688464,0.035352926310224575,0.3533009107154612,1.0010663928151189,6.016043358730258
25,22,female,362,45,45,same,valid,clock,5,0,2,0.5148435465434886,1,j,change,0.616867030918911,0.012673066088857848,0.49984252665490203,0.0352801229510078,0.3533291340440883,1.0010792216007758,4.755372054029522
25,22,female,363,45,355,change,valid,anti,4,2,3,0.5522789054994064,1,j,change,0.8241090087581142,0.2879274802375503,0.49935054272191337,0.035316684990448266,0.35333362411893177,1.0009753084364093,5.014048803266633
25,22,female,364,135,135,same,valid,clock,1,0,3,0.3068927782915125,1,j,change,0.8825919150426671,0.010556912405191049,0.50005612593759,0.035333362412075076,0.353307966547618,1.001064147777015,4.837811755529401
25,22,female,365,165,165,same,valid,clock,1,0,1,0.5387506302140537,0,f,same,0.5250866905194016,0.008464000968085666,0.49973380269602785,0.035333041692410916,0.35327749818179655,1.0010837116756193,4.672179302806853
25,22,female,366,45,45,same,valid,anti,3,0,1,0.41897370996912287,0,f,same,1.582740215805643,0.010429027503852356,0.500599425013661,0.035303214765463053,0.35334292498873765,1.0010391316450296,5.580651048047457
25,22,female,367,75,125,change,catch,clock,3,1,2,0.7582745668041753,1,f,same,0.35235254272947714,0,0.4998313014671112,0.03534683263706029,0.3532973827996102,1.0010522811503506,6.227754564802581
25,22,female,368,165,165,same,valid,anti,1,1,1,0.41951797120464107,0,f,same,0.5327095550078411,0.08601610622860342,0.5000689547232469,0.03535934070305302,0.3533105323044765,1.0010574126649772,4.566960809342618
25,22,female,369,135,185,change,catch,clock,2,2,2,0.3723272828501649,1,f,same,0.458053398537686,0,0.49961128779204955,0.035321495784955914,0.35330892870661046,1.0010484325148354,5.956087387122807
25,22,female,370,105,105,same,valid,clock,5,2,3,0.652655173785206,1,f,same,1.0456695150846826,0.2869677453554681,0.49998300185870903,0.03529712109229877,0.3533153430994389,1.0010975026202686,5.309345000686335
25,22,female,371,105,155,change,valid,clock,3,2,3,0.3145204535744597,1,j,change,1.0975260328136756,0.2860395446416315,0.4997844763993271,0.03534715335672445,0.35331406022078227,1.0010449045989844,5.096740590406171
25,22,female,372,15,65,change,valid,clock,1,0,1,0.5228390872575801,0,f,same,0.33895736609656524,0.012341755140970051,0.4997386134905355,0.03536607581554563,0.3532977035188196,1.0010519604311412,4.496316855613259
25,22,female,373,135,135,same,valid,clock,5,2,4,0.5382515904489082,1,f,same,0.8311237888019605,0.2851361194722417,0.4995744050329449,0.03535837854406054,0.35332271965125983,1.0010628648988131,5.0024243197858596
25,22,female,374,45,45,same,valid,anti,1,2,4,0.3721707716645142,1,f,same,1.3585235093910342,0.28425125778934046,0.5000593331337768,0.035371848769045755,0.3532601793208414,1.001083390955955,5.35673742169638
25,22,female,375,15,15,same,catch,clock,3,2,1,0.5924320427147904,0,f,same,0.4822779946553055,0,0.49921616119127066,0.035357095665403904,0.3532948170422969,1.001034641570186,6.179442319854843
25,22,female,376,15,65,change,valid,clock,2,1,2,0.3600427583428427,1,j,change,0.7549419689876231,0.08875709505645361,0.500316550288062,0.03529455533498549,0.3533246439692448,1.0010856359931495,4.80260251162008
25,22,female,377,45,95,change,valid,clock,3,0,1,0.5485531054000603,0,f,same,0.4329054505660679,0.014165275212325884,0.4998406023369171,0.03526921848333586,0.35337435551355156,1.0010275857380293,4.626155071796347
25,22,female,378,135,85,change,valid,anti,4,0,1,0.5251344777466329,0,f,same,0.28378589013163946,0.015938199645580325,0.49966484797232624,0.0353766595635534,0.3532951377619611,1.0010888431902458,4.448743548723996
25,22,female,379,45,45,same,valid,clock,1,1,3,0.5137117269214286,1,f,same,0.8558782137711205,0.08724658484395807,0.49973219909770705,0.03531059131728398,0.35331117374380483,1.0010724864882832,5.014094666175879
25,22,female,380,165,165,same,valid,anti,5,1,1,0.5773633509816136,0,f,same,0.3279040843003713,0.08579243524507094,0.5000493908250974,0.03527242567952271,0.3533365105959092,1.0010641477774698,4.531414489087183
25,22,female,381,165,165,same,valid,clock,5,2,1,0.49731878377951944,0,f,same,0.35375472901114335,0.2833063585801358,0.49990667058364124,0.035303214765463053,0.3533358691565809,1.001040093804022,4.449192556225626
25,22,female,382,105,55,change,valid,anti,3,2,4,0.28284521941714047,1,j,change,1.2590709136788973,0.2865233982899099,0.5001282878574784,0.035319892186635116,0.35330443863176697,1.0010801837593135,5.143828969194146
25,22,female,383,45,355,change,valid,anti,3,2,2,0.3408271616181082,1,f,same,0.7468947924107852,0.2856546265543747,0.5004111625830774,0.03531989218708986,0.3532890440887968,1.0010846738346117,4.696563938026884
25,22,female,384,135,85,change,valid,anti,3,2,3,0.2591033063631585,1,j,change,0.9286052415850463,0.2848059764952552,0.5005763331996604,0.0353307966547618,0.35329898639747626,1.0010542054683356,4.8267690574821245
25,22,female,385,45,45,same,catch,anti,2,2,1,0.5783072288922995,0,f,same,0.3425744422365824,0,0.49989897331215616,0.03531379851347083,0.35333266196039403,1.0009849300254245,6.074658401507804
25,22,female,386,105,105,same,valid,clock,3,1,3,0.3659536213735919,1,f,same,0.8025970593857892,0.08842807285363978,0.5001452859983146,0.035336569608261925,0.3533130980617898,1.001034320850522,4.82593294137132
25,22,female,387,75,125,change,catch,clock,2,0,3,0.3446325001891637,1,f,same,0.884336629903828,0,0.49985567616067783,0.03532245794394839,0.35332849260475996,1.0010846738346117,6.380255151719666
25,22,female,388,75,75,same,valid,anti,2,0,1,0.2601215912313819,0,j,change,1.1937573204259024,0.017841525413500786,0.5001167419504782,0.03530866699975377,0.35332785116543164,1.0010291893358954,5.120352291285144
25,22,female,389,135,185,change,valid,clock,1,1,2,0.3929594982405433,1,f,same,1.921140812601152,0.08698066635528019,0.5004512525383689,0.03529295173666469,0.35334292498873765,1.0010596577026263,5.886783720784024
25,22,female,390,135,85,change,valid,anti,4,2,1,0.4582156826772916,0,f,same,0.5270443632243769,0.2839029105270442,0.4993030762143462,0.03533721104804499,0.35329545848162525,1.0010779387221191,4.590138255824058
25,22,female,391,165,165,same,valid,clock,2,0,1,0.49933322386095824,0,f,same,0.26686600461562193,0.019768962052958,0.499688901945774,0.035352605590560415,0.3533570366530512,1.0010189263075517,4.378635517519797
25,22,female,392,45,45,same,valid,anti,5,2,2,0.40737007326515595,1,f,same,1.2492289899769276,0.28696678499996314,0.49962251297938565,0.03534811551571693,0.3533576780923795,1.0010663928146641,5.226554431896147
25,22,female,393,75,25,change,catch,anti,5,1,1,0.43028837827432653,0,f,same,0.46281384020721816,0,0.499880050853335,0.0352996868491573,0.35329385488330445,1.001083390955955,6.015874660197824
25,22,female,394,135,135,same,catch,anti,5,0,1,0.5442355775585384,0,f,same,0.524350959657113,0,0.4998614491137232,0.035332720972746756,0.3533313790817374,1.0010651099360075,6.20390360707006
25,22,female,395,15,325,change,valid,anti,5,2,3,0.244720633947054,1,j,change,1.100672933956048,0.28612848853648043,0.49971039016190844,0.03534522903873949,0.3532768567420135,1.001059016263298,5.002295390489053
25,22,female,396,75,125,change,valid,clock,2,2,1,0.6035170757554624,0,f,same,0.35764954836258767,0.2853115998965625,0.499621230100729,0.03534394616008285,0.3532656315546774,1.0010805044794324,4.5550364529945
25,22,female,397,105,105,same,valid,anti,5,2,3,0.36876023897457344,1,f,same,1.0951950424441748,0.2885162426057197,0.49925849618421125,0.03534587047806781,0.35330989086560294,1.0011205944342692,5.061064699415056
25,22,female,398,135,185,change,catch,clock,4,2,1,0.48979566310072187,0,f,same,0.30563395369063073,0,0.49987491933916317,0.035319892186635116,0.3533349069975884,1.001028868616686,5.909595546871969
25,22,female,399,15,15,same,catch,clock,5,0,1,0.36734233743072764,0,f,same,0.9919124127482064,0,0.5000551637785975,0.03532598586025415,0.35327621530268516,1.0010837116756193,6.521806049285715
25,22,female,400,135,135,same,catch,anti,4,2,2,0.351308279569821,1,f,same,0.7583133738808101,0,0.5001064789216798,0.03524997530485052,0.35336409248520795,1.0010708828899624,6.25145670862139
25,22,female,401,45,45,same,valid,anti,5,0,1,0.37390778925373525,0,j,change,1.494437438501791,0.021697492048833256,0.510474062119556,0.035316684990448266,0.3532800639386551,1.0010609405808282,5.484155487449243
25,22,female,402,135,85,change,catch,anti,2,0,2,0.2824321325165329,1,j,change,0.7627553409442953,0,0.49974566932269227,0.03528429230664187,0.3533515844192152,1.0010676756937755,6.215210578103779
25,22,female,403,75,125,change,valid,clock,2,1,1,0.5621147355282119,0,f,same,0.31072794378951585,0.08558342772210825,0.5002671594634194,0.0352932724567836,0.3533313790817374,1.0010487532344996,4.5204782699611314
25,22,female,404,75,75,same,valid,clock,3,1,1,0.49488965319915224,0,f,same,0.2837711370279976,0.08812175191877697,0.4992793429610174,0.03531347779380667,0.3533246439692448,1.0010785801609927,4.378216657665234
25,22,female,405,105,55,change,catch,anti,2,0,4,0.29245814929345215,1,j,change,1.3406953458452335,0,0.4992729285677342,0.03532085434608234,0.35330572150996886,1.001060619861164,6.768264662980982
25,22,female,406,165,115,change,valid,anti,3,1,4,0.44769671980793646,1,f,same,0.8173892907866502,0.0906788532567755,0.5004339336778685,0.035305780522321584,0.3532813468173117,1.0010574126649772,4.932665231553074
25,22,female,407,45,45,same,valid,clock,3,1,3,0.3652182112309674,1,f,same,0.7670420796998769,0.08922977283740577,0.49949647015955634,0.03534843623492634,0.3532595378815131,1.0010705621702982,4.743227042567014
25,22,female,408,45,95,change,catch,clock,1,1,1,0.5652061521723226,0,f,same,0.7979238534594515,0,0.4998341879440886,0.03532566514058999,0.3532656315546774,1.0010708828895076,6.4865384344007
25,22,female,409,15,15,same,valid,clock,1,2,4,0.22360573549349283,1,f,same,1.095023136715099,0.28766934672456423,0.5002860819217858,0.03533047593509764,0.35327332882616247,1.001068317132649,4.94385321559912
25,22,female,410,135,135,same,catch,anti,1,0,1,0.5598543034807335,0,f,same,0.5784877940518527,0,0.5001205905859933,0.035278519353141746,0.3533400385117602,1.0010760144041342,6.251471461724577
25,22,female,411,15,65,change,valid,clock,4,0,1,0.4691865395247987,0,f,same,0.44974483545138355,0.02352807265218168,0.4995776122295865,0.035335286729605286,0.35333683131557336,1.0010596577026263,4.543371558838771
25,22,female,412,15,15,same,catch,anti,3,2,1,0.526453597640284,0,f,same,0.2949113338472671,0,0.49953431507765345,0.035301931886806415,0.3533288133244241,1.0010670342544472,5.944480543222198
25,22,female,413,105,55,change,valid,anti,1,0,2,0.30603004245085685,1,f,same,0.7283838167436443,0.025296262454146484,0.49977164761412496,0.03529519677431381,0.35331694669730496,1.001062544179149,4.673359551095473
25,22,female,414,45,355,change,catch,anti,4,2,1,0.488368139967406,0,f,same,0.2820010853151871,0,0.49960455267955695,0.03530898771896318,0.3532544063673413,1.001135988977694,5.8858100159459354
25,22,female,415,45,45,same,valid,clock,2,2,2,0.2805700342655655,1,f,same,1.017415397365312,0.2868519276764747,0.49963309672784817,0.03539012978899336,0.35329289272431197,1.0010705621702982,4.920415665486416
25,22,female,416,165,115,change,valid,anti,5,1,1,0.5486169286086806,0,f,same,0.29771859288757696,0.08783589448929245,0.499040727546344,0.035303214765463053,0.35336088528856635,1.0010628648988131,4.448052718612416
25,22,female,417,15,325,change,valid,anti,1,0,1,0.5261983048044385,0,f,same,0.3535821818427394,0.023410499875070212,0.5004576669311973,0.0353096291582915,0.35329898639747626,1.0010789008811116,4.484812962718479
25,22,female,418,135,135,same,valid,anti,2,2,4,0.35922556469085976,1,f,same,0.7695882729503865,0.286058649823726,0.5004140490596001,0.0353195714674257,0.3532925720046478,1.0010558090666564,4.755771349985935
25,22,female,419,105,105,same,valid,clock,1,2,2,0.28905916251142116,1,j,change,1.5567205518427727,0.28528460355934754,0.5002674801826288,0.03533015521543348,0.35327204594750583,1.001103596293433,5.485789233313426
25,22,female,420,75,75,same,catch,anti,2,1,2,0.6540256088223941,1,f,same,0.6093124797143901,0,0.4998819751708652,0.03531091203694814,0.35330828726728214,1.0010718450489549,6.404422339021039
25,22,female,421,75,75,same,valid,anti,4,1,2,1.359623257048952,1,f,same,0.5934503275830139,0.09030992611733145,0.500047145787903,0.035339456084784615,0.3533111737442596,1.0010692792916416,5.579938408999624
25,22,female,422,105,105,same,valid,anti,1,1,2,0.34387848830692747,1,f,same,1.2237715475494042,0.08890711559680405,0.4995400880311536,0.035301290447478095,0.35325248204935633,1.0011157836397615,5.144177912166015
25,22,female,423,45,355,change,valid,anti,4,1,1,0.13978373233021557,0,j,change,1.1062717367740333,0.08756854357047554,0.4989275135117168,0.03534811551571693,0.3532896855281251,1.0010808251986418,4.860086055494776
25,22,female,424,135,135,same,catch,clock,3,1,1,0.29501236053511093,0,j,change,0.299944707933264,0,0.5002039776932179,0.035301290447478095,0.3533304169227449,1.0010112290360667,5.709525501702046
25,22,female,425,135,135,same,valid,anti,5,0,1,0.4374503686353819,0,f,same,0.2850739002201408,0.025143636034085648,0.5002386154146734,0.03530930843862734,0.3533137395011181,1.0010718450489549,4.319716432519726
25,22,female,426,45,355,change,valid,anti,2,0,4,0.19086571211983028,1,j,change,1.585023098228703,0.026988996321775344,0.5001436824004486,0.035379866760195,0.3532880819298043,1.0010817873576343,5.3566222833442225
25,22,female,427,45,355,change,valid,anti,3,1,1,0.45513901913682275,0,f,same,0.6594047186836178,0.08995736944470947,0.49927966368068155,0.03532502370126167,0.3533182295759616,1.0010538847486714,4.684148880624434
25,22,female,428,15,65,change,valid,clock,5,2,2,0.21037989883188857,1,j,change,1.1599534699939795,0.2845252328680442,0.5000176395806193,0.03532181650507482,0.35330668366896134,1.00102918933635,4.979761307612534
25,22,female,429,15,15,same,catch,anti,1,1,2,0.28929713648676625,1,f,same,1.0006212339494596,0,0.49954554026498954,0.035305780522321584,0.35329866567826684,1.0010898053487836,6.379704796810984
25,22,female,430,165,115,change,catch,anti,2,1,2,0.2011467010133856,1,j,change,0.8100092110680635,0,0.5005413747585408,0.03536511365655315,0.35329449632263277,1.0010458667575222,6.157660003822912
25,22,female,431,165,165,same,valid,clock,1,2,2,0.1988397646177873,1,j,change,0.8179543987980651,0.2837138792413154,0.49964175615832573,0.035333041692410916,0.3532935341636403,1.0010789008806569,4.696374392717644
25,22,female,432,15,15,same,valid,clock,5,2,1,0.5634700967416393,0,f,same,0.3131397555089279,0.2829085753684316,0.4993351481789432,0.03530610124244049,0.35330828726728214,1.0010795423199852,4.49611127432172
25,22,female,433,135,135,same,valid,anti,2,0,1,0.537321503482417,0,f,same,0.26725118890772137,0.025136170524718643,0.4991645253285242,0.03532534442092583,0.3533393970724319,1.001064789216798,4.389162819099965
25,22,female,434,165,165,same,catch,clock,1,0,2,0.12777727175352993,1,j,change,2.284469664411972,0,0.5004839659422942,0.03525638969767897,0.3533990509263276,1.0010112290360667,7.582829375866368
25,22,female,435,165,215,change,catch,clock,2,1,1,0.49407021451042965,0,f,same,0.2585151065363789,0,0.4995602933686314,0.03533592816938835,0.35335896097103614,1.0010663928151189,5.873573599385054
25,22,female,436,105,105,same,valid,anti,2,0,1,0.19558670527248978,0,j,change,1.2229007937171446,0.026942542359118304,0.5002023740953518,0.035304176924000785,0.35333266196039403,1.0010526018700148,5.0734483262926915
25,22,female,437,105,55,change,valid,anti,2,1,1,0.4581165803078875,0,f,same,0.23713401077884555,0.092254899447262,0.49967318668313965,0.03535356774909815,0.3532845540139533,1.0010391316450296,4.284124890795283
25,22,female,438,15,325,change,valid,anti,3,2,4,0.26524412537855824,1,j,change,1.5856889122087523,0.2856659014822786,0.4998604869551855,0.03531411923313499,0.3532611414798339,1.001030472214552,5.461524867959724
25,22,female,439,105,55,change,valid,anti,1,1,4,0.17305999894779234,1,j,change,0.7490493869763668,0.09438444750737492,0.5004230292101965,0.03529295173711944,0.35331181518313315,1.0010670342544472,4.590579245334084
25,22,female,440,45,355,change,valid,anti,1,2,3,0.2181236746259856,1,j,change,1.0632401407574434,0.2849337571191084,0.5004583083705256,0.035317326429776585,0.3533304169227449,1.001049394673828,4.944702160495581
25,22,female,441,75,125,change,valid,clock,2,0,1,0.4137357167510345,0,f,same,0.28195907104191065,0.028755475777158312,0.49926683489502466,0.03535966142271718,0.35331245662246147,1.0010657513757906,4.2722233055419565
25,22,female,442,75,125,change,valid,clock,4,0,1,0.53429262716827,0,f,same,0.23545279840709554,0.030607817508429558,0.49973668917255054,0.03532470298159751,0.3533618474480136,1.001049715393492,4.366659204589723
25,22,female,443,165,215,change,valid,clock,3,2,3,0.4146629172400935,1,f,same,0.973384759658984,0.2841535285033433,0.50005612593759,0.03532438226193335,0.3532867990511477,1.0010423388416712,4.990801760622617
25,22,female,444,75,25,change,valid,anti,1,2,1,0.526955844602071,0,j,change,0.3480722183662692,0.28338113863830594,0.5000416935536123,0.03527627431549263,0.35334067995108853,1.0011318196225147,4.531386265758556
25,22,female,445,165,115,change,valid,anti,1,2,2,0.183134444391726,1,j,change,2.127537694179864,0.2860183984977685,0.5003357934665473,0.03531059131728398,0.35331213590325206,1.0010599784218357,5.909572455057514
25,22,female,446,45,45,same,catch,clock,4,1,2,0.1442054940557682,1,j,change,1.1316538100854814,0,0.5003790906189352,0.035351322711903777,0.3532848747331627,1.0010731279276115,6.427671626703159
25,22,female,447,165,115,change,valid,anti,2,1,1,0.36722078468528707,0,f,same,0.3083093969571564,0.09313413006322367,0.500935218480663,0.035317967869104905,0.3533304169227449,1.0010487532344996,4.28497543928961
25,22,female,448,15,65,change,valid,clock,1,2,3,0.23075168987179495,1,j,change,1.2645260340964342,0.2853106926117607,0.49982296275675253,0.0353064219616499,0.3533406799515433,1.0010513189913581,5.144076244039297
25,22,female,449,45,45,same,valid,anti,4,1,2,0.08831496465018063,1,j,change,1.1218439583476538,0.09518652506376522,0.49983194290689426,0.035335607449269446,0.3532858368921552,1.0010968611809403,4.861649243037391
25,22,female,450,45,95,change,valid,clock,1,0,2,0.19157931332620137,1,j,change,0.8145576570532285,0.03240033148106469,0.49973668917255054,0.035336248888597765,0.3533541501765285,1.0010583748239696,4.625724666034785
25,22,female,451,45,95,change,valid,clock,4,2,2,0.19353025091822929,1,j,change,1.297691973156816,0.28461561536896157,0.4999265552014549,0.035321495784955914,0.35327364954582663,1.0010651099364622,5.120583530148451
25,22,female,452,45,95,change,valid,clock,1,1,2,0.24205096363402845,1,j,change,0.7960909406965584,0.09402191693188171,0.4992277070982709,0.03531476067246331,0.3533169466977597,1.0010542054683356,4.671975645832845
25,22,female,453,15,65,change,valid,clock,5,1,1,0.16352051387002575,0,j,change,0.26579223524913687,0.09280616864664018,0.5003604888793234,0.035304818363329105,0.3533217574927221,1.0011298953045298,4.084670627340074
25,22,female,454,15,15,same,catch,anti,1,0,2,0.19183717191981486,1,j,change,0.8302899177292602,0,0.4998422059356926,0.03531347779380667,0.35331053230493126,1.001017322709231,6.180586006104022
25,22,female,455,45,355,change,valid,anti,4,0,1,0.4909492916585805,0,f,same,0.5851331050666886,0.03048843722486444,0.5000384863569707,0.03531604355111995,0.35335286729787185,1.0010182848682234,4.6849179663299765
25,22,female,456,45,45,same,valid,anti,1,0,2,0.23205605666225892,1,j,change,0.6904147803006708,0.03225231799276626,0.49914816862656153,0.03529583821364213,0.3533493393815661,1.0009926272969096,4.577796963939363
25,22,female,457,135,135,same,valid,anti,2,1,1,0.42699362537632624,0,f,same,0.2546520384298674,0.09480891900896779,0.4995602933686314,0.03534426687974701,0.3532858368921552,1.0010311136538803,4.248977225056478
25,22,female,458,165,165,same,catch,anti,1,2,2,0.19834200773038901,1,j,change,1.2264992681180047,0,0.4996257201755725,0.03536575509588147,0.3532900062477893,1.0010795423199852,6.568733106093077
25,22,female,459,165,215,change,valid,clock,3,1,2,0.08195573555758529,1,j,change,0.8902673775523908,0.09675036411599965,0.49989095532146166,0.035333683131739235,0.3532948170422969,1.0010526018700148,4.649405642356669
25,22,female,460,165,115,change,valid,anti,4,0,2,0.2665504164865524,1,j,change,0.7631430909932533,0.03037321349004901,0.4994044236218542,0.03533175881375428,0.35326178291870747,1.0010753729652606,4.684027648599113
25,22,female,461,15,325,change,valid,anti,1,1,4,0.23501950616901013,1,f,same,1.125766680308061,0.09561660202504793,0.5003268133168604,0.035335928168933606,0.35327429098515495,1.0010795423199852,4.9327717104747535
25,22,female,462,15,15,same,catch,clock,4,2,1,0.8701460685547318,0,f,same,0.32914109996590923,0,0.49979473942812547,0.035297441811962926,0.3533814113461631,1.001057091945313,6.333834511229725
25,22,female,463,135,85,change,valid,anti,1,2,3,0.1988086548121828,1,j,change,1.0803640039662241,0.28387247284979267,0.4997835142403346,0.03538018747985916,0.35330732510828966,1.001025340700835,4.94379676894232
25,22,female,464,45,45,same,catch,anti,2,2,1,0.49233159332243304,0,f,same,0.7300108274953345,0,0.49946151171843667,0.03535837854451529,0.3534346508067756,1.000906995152036,6.3212764128666095
25,22,female,465,105,105,same,catch,clock,2,1,1,0.2454419324258197,0,j,change,0.30352874995014645,0,0.4996863361884607,0.03534394616008285,0.3532707630688492,1.00103303797232,5.697241939352807
25,22,female,466,105,105,same,valid,clock,4,1,3,0.2825661933270567,1,f,same,1.2148157722222095,0.09450668956733903,0.5003630546366367,0.03531091203694814,0.3533002692761329,1.001073769366485,5.073882580689769
25,22,female,467,15,15,same,valid,clock,4,1,3,0.17891409460207797,1,j,change,0.8466523925044385,0.09335325870584195,0.4994457964562571,0.03530770484076129,0.35332464396879004,1.0010433010006636,4.661109664309151
25,22,female,468,165,215,change,valid,clock,4,0,3,0.30292964565614966,1,j,change,1.0317300772167073,0.028518363012571102,0.4990859490158073,0.035340738963896,0.3533153430994389,1.0010561297863205,4.990147492549568
25,22,female,469,15,15,same,valid,clock,4,2,4,0.26775696378581415,1,f,same,1.1786729134300913,0.2831347481054487,0.5000824249482321,0.035349077674709406,0.3532495955723789,1.0010218127845292,5.026755715544823
25,22,female,470,45,355,change,catch,anti,1,2,1,0.5129573943195282,0,f,same,0.21323237934211647,0,0.4996921091424156,0.03530866699929902,0.35332239893159567,1.001079863040104,5.838697583184967
25,22,female,471,75,125,change,catch,clock,4,0,3,0.32218629449471337,1,j,change,1.115629694533709,0,0.5002222587131655,0.035332400253082596,0.35329160984565533,1.0010875603115892,6.58097689920578
25,22,female,472,135,185,change,valid,clock,5,0,2,0.2381692937879052,1,j,change,0.9297476449555688,0.026774703801781624,0.5005051334387645,0.035317967869104905,0.3532948170422969,1.0011180286774106,4.861897800761199
25,22,female,473,45,355,change,valid,anti,1,0,2,0.20635550874476394,1,j,change,0.8856634470694189,0.02510347337674612,0.49946022883978003,0.035353567749552894,0.3533355484369167,1.0010606198616188,4.743008311770154
25,22,female,474,15,15,same,valid,clock,3,1,2,0.20584299875417855,1,j,change,0.7418392886693255,0.0921976748489854,0.500382297815122,0.0353275894581202,0.35328102609764755,1.0011029548541046,4.579767465429541
25,22,female,475,105,155,change,valid,clock,4,0,2,0.13742868798726704,1,j,change,0.6589101689933159,0.023469701443891128,0.4995532375364746,0.03532855161711268,0.3533076458279538,1.0010933332650893,4.460748084982697
25,22,female,476,105,105,same,valid,anti,5,0,1,0.4748283187745983,0,f,same,0.23119684873699953,0.021789600736216497,0.4993887083592199,0.03534426687974701,0.3533012314351254,1.001060619861164,4.2841723573023955
25,22,female,477,45,355,change,valid,anti,3,0,1,0.23963883119495222,0,j,change,0.3445898444770137,0.023321244526075285,0.4995044881507056,0.035352605590560415,0.3533204746136107,1.0010628648988131,4.236493533650446
25,22,female,478,75,75,same,valid,clock,2,2,4,0.21293346863467377,1,f,same,1.0801362930196774,0.28239834491476956,0.49966452725311683,0.035266332006358425,0.3533689032797156,1.0010279064576935,4.895978111525892
25,22,female,479,165,165,same,valid,clock,5,0,2,0.17400002822341776,1,j,change,0.818250743749104,0.024801911815032746,0.5005105856726004,0.03534234256176205,0.35327589458347575,1.0010782594413286,4.638645177595208
25,22,female,480,165,115,change,valid,anti,1,0,2,0.11777210175296204,1,j,change,0.9198486331570166,0.02317778600202805,0.499675431720334,0.03533689032838083,0.3533054007903047,1.0010667135343283,4.696728146484475
