subject,age,gender,ntrial,memory_ori,test_ori,type,trial_type,which_change,trial,quest,pas,pas_rt,vis,test_key,test,test_rt,contrast,fix_dur,target_dur,mask_dur,retention_dur,trial_dur
26,23,female,1,165,215,change,valid,clock,4,0,1,0.48248410503242667,0,f,same,3.515490537427013,0.2,0.509981821493966,0.03533070256025894,0.35328682013414436,1.0010862844005715,7.662575433743996
26,23,female,2,105,55,change,valid,anti,1,2,2,0.8972831023281742,1,j,change,1.7728982465503123,0.2,0.4996783161341227,0.03532781606463686,0.35329483817668006,1.001082115018562,6.2742433533633175
26,23,female,3,165,165,same,catch,clock,1,2,1,0.8707286283888607,0,j,change,0.7790009390732848,0,0.4997206513985475,0.03536694411241115,0.35329195168128535,1.0010503635701298,6.7692356047271005
26,23,female,4,15,65,change,catch,clock,2,2,1,0.4136540208239694,0,j,change,3.8965941921148897,0,0.5002193736434037,0.035351870192471324,0.35332017519090186,1.0010474770749624,9.514178144227344
26,23,female,5,15,15,same,valid,anti,2,1,2,1.448638664668806,1,f,same,3.3505661379463163,0.2,0.49954714095838426,0.0353772072069205,0.35330927065319884,1.0010670410983948,8.441764957177156
26,23,female,6,105,105,same,valid,anti,1,0,2,0.3259510681316442,1,f,same,1.9273706465235136,0.3150270229513009,0.49889639662751506,0.035365661225569056,0.3532958003418116,1.0010449113012783,5.849980179398926
26,23,female,7,15,15,same,catch,clock,2,1,1,0.38856813155234704,0,j,change,1.6294634839100581,0,0.49977100470550795,0.03534994586220819,0.3532964417852327,1.0010856429571504,7.122791510368415
26,23,female,8,105,105,same,catch,clock,4,0,1,0.3488724066442046,0,j,change,1.2494730542457546,0,0.4995772887984913,0.03535764318303336,0.3532964417850053,1.001075700584579,6.757608160186464
26,23,female,9,135,135,same,catch,clock,1,1,1,0.15858212784723946,0,j,change,0.95929015307388,0,0.5000570884628814,0.03534930441878714,0.3533115157049451,1.0010667203769117,6.2871119908863875
26,23,female,10,15,15,same,valid,clock,5,2,1,0.25822394585202346,0,j,change,0.9363258378534738,0.11397766455402543,0.4994688848635178,0.035333909777136796,0.3533153643654714,1.0010275923293648,4.802587454393461
26,23,female,11,45,95,change,valid,clock,4,1,1,0.317416022229736,0,j,change,2.464795020346628,0.09338226537841544,0.4994531694999296,0.03531145925808232,0.353311194983462,1.0010564572824023,6.391662454521793
26,23,female,12,165,215,change,valid,clock,1,1,2,0.4625416296767071,1,j,change,1.9170831772487418,0.19541626699530124,0.5004810825512322,0.03530408265896767,0.353311836426883,1.0010705690372106,6.015833068203392
26,23,female,13,165,115,change,valid,anti,3,0,1,0.17321954555018237,0,j,change,1.8307779297285833,0.23704404819608071,0.5004217490363772,0.03535058730562923,0.3532964417852327,1.0010901330610977,5.6508213041315685
26,23,female,14,165,165,same,valid,anti,5,2,2,0.29728913189615014,1,f,same,1.5425604111396751,0.24043453680453014,0.5000429767078458,0.03535411524421761,0.3532983661154958,1.0010384968672952,5.426535487214551
26,23,female,15,75,125,change,valid,clock,2,2,3,2.1686088503795418,1,j,change,1.2889519712839501,0.20821230939956695,0.500146890538872,0.03529061234758046,0.3533150436437609,1.0010817942968515,7.040519979679175
26,23,female,16,75,125,change,valid,clock,3,0,2,1.8374380365673915,1,j,change,1.295488600267845,0.2914418032347298,0.5000740867130844,0.035325250291180055,0.35334134282311425,1.0010378554236468,6.745924589348078
26,23,female,17,15,15,same,valid,clock,1,1,2,3.026530419811934,1,f,same,4.008623885812995,0.15097428254442063,0.5001911501337872,0.035283877191659485,0.3533278725119544,1.0010657582117801,10.656033993934443
26,23,female,18,135,135,same,catch,clock,2,0,1,0.22569923745209053,0,j,change,1.4174680432895457,0,0.500329701908413,0.03533968276769883,0.3532970832286537,1.0010494014049982,6.792974783576938
26,23,female,19,165,115,change,valid,anti,1,1,1,0.14735750976274176,0,j,change,1.3935261683250246,0.11732462428755351,0.5007591482658427,0.03532108090917063,0.3532884237424696,1.0010186121219249,5.157010912235137
26,23,female,20,75,75,same,catch,anti,1,2,1,0.08535559056394959,0,j,change,0.8178047369312935,0,0.49989352039528967,0.03533134400367999,0.353316967974024,1.001036572537032,6.085964961795526
26,23,female,21,105,155,change,valid,clock,1,2,1,0.08509676815151579,0,j,change,1.643456250994177,0.18435721902886748,0.500528549362798,0.03531883585719697,0.3533355698325522,1.0010615888295433,5.3569308600986005
26,23,female,22,45,355,change,valid,anti,3,0,2,0.1066954503701254,1,j,change,1.383360573296386,0.24588556198962952,0.49993200699941553,0.03535988823500702,0.353316967974024,1.0010721726457632,5.096826522914853
26,23,female,23,135,135,same,catch,anti,3,2,1,0.16754822371490263,0,j,change,0.9833471671292955,0,0.4998280931683894,0.03530408265896767,0.3532996490023379,1.0010888501742556,6.29839594248574
26,23,female,24,165,165,same,valid,anti,2,1,2,0.41379706270254246,1,f,same,2.5978121007015034,0.16255925515413544,0.4996039086995552,0.03533936204598831,0.3533532095261762,1.001057419447534,6.62758052680465
26,23,female,25,165,215,change,valid,clock,4,2,2,0.3661246683736863,1,j,change,3.988893086779626,0.24255980418817424,0.49973636676190836,0.035342248541383015,0.35328970662953907,1.001063833881517,7.935356937595088
26,23,female,26,75,75,same,valid,clock,2,1,1,0.4144535800239737,0,j,change,2.369375182811382,0.13960881741287956,0.4998566373997164,0.03534577647997139,0.3532996490021105,1.0010837186268873,6.380808590723063
26,23,female,27,105,55,change,catch,anti,1,2,1,0.45869681792760275,0,j,change,0.8865905615452903,0,0.49994194937221437,0.035346097201681914,0.3533006111672421,1.0010728140891842,6.47483521319009
26,23,female,28,165,165,same,valid,anti,2,2,1,0.36043217890619417,0,j,change,1.6989651593601138,0.22648825528762842,0.5004595941973093,0.035333909777136796,0.3532752741530203,1.0010949438865282,5.686058355954856
26,23,female,29,165,215,change,catch,clock,2,1,1,0.3228833650634897,0,j,change,1.2420704766693689,0,0.5004711401784334,0.035293498842747795,0.35334487076193,1.0010606266646391,6.6988381535668395
26,23,female,30,45,45,same,valid,anti,3,2,2,0.35547670790720076,1,f,same,1.445002322025175,0.27067617555472845,0.5008322728135681,0.03532460884798638,0.35332947612027965,1.0010468356315414,5.416150197821253
26,23,female,31,165,215,change,valid,clock,2,0,1,0.34193583769956604,0,j,change,2.6327714075321182,0.21285356744953898,0.4992742067911422,0.03534641792361981,0.3532961210632948,1.0010882087308346,6.580272472328261
26,23,female,32,75,125,change,catch,clock,2,2,1,0.20960734683603732,0,j,change,1.0892542835590575,0,0.4994672812549652,0.035358605347937555,0.3532553894074226,1.0010628717163854,6.439175450165067
26,23,female,33,75,25,change,valid,anti,4,0,2,3.043333350438388,1,j,change,4.987398523653837,0.23852743881960997,0.5002867252005672,0.035334871942268364,0.35331600580889244,1.0010779456363252,11.669305457913424
26,23,female,34,15,15,same,valid,anti,1,0,1,0.357214698803773,0,j,change,3.286661056175035,0.21380320938933878,0.4994230216602773,0.03530600698923081,0.35332947612027965,1.0010340067633479,7.251353766298962
26,23,female,35,135,185,change,valid,clock,2,0,1,0.3054803641343824,0,j,change,0.8612343038798826,0.23340271037040494,0.49988005008390246,0.03533230616858418,0.35327174621420454,1.0010663996552012,4.826161461567153
26,23,female,36,165,215,change,valid,clock,2,1,1,0.20007581861023027,0,j,change,1.3227749611285162,0.1716236392220527,0.5000686344437781,0.03534096565454092,0.35332113735603343,1.0010362518153215,5.1558524654519715
26,23,female,37,75,75,same,catch,anti,4,1,1,0.3585658993292782,0,j,change,0.19672074889786018,0,0.5002245051905447,0.03533070256003157,0.35330253549750523,1.0010564572824023,5.697783299892762
26,23,female,38,15,65,change,valid,clock,4,0,2,0.05401498668356908,1,j,change,1.455689089817497,0.252233013810764,0.5004608770839241,0.035324288126048486,0.3532823300304244,1.001052287900393,5.179955984153821
26,23,female,39,135,135,same,valid,clock,4,0,2,0.8950877622862663,1,f,same,1.2594109368667432,0.2330508738089559,0.49966933592645546,0.03533230616858418,0.353283292195556,1.0010737762543158,5.780348611659747
26,23,female,40,75,125,change,valid,clock,4,0,3,0.3570097576371154,1,j,change,1.5571327223369735,0.21664543984955556,0.4988851713681015,0.03530344121554663,0.35329996972382105,1.0010987925470545,5.496126644019569
26,23,female,41,105,155,change,valid,clock,3,1,2,0.36064674172416744,1,f,same,1.6410877212338164,0.20082804154453532,0.5002851215920145,0.03533807915914622,0.3532980453937853,1.001052608621876,5.568761449764679
26,23,female,42,15,65,change,valid,clock,2,0,2,0.47579866117939673,1,j,change,1.3267448543410865,0.2026128623167411,0.4998377148194777,0.03536245400846383,0.35330445982776837,1.001069606872079,5.414832673074216
26,23,female,43,105,155,change,valid,clock,2,2,1,0.25547151221553577,0,j,change,1.9639091870089942,0.2587256213972777,0.4994740164106588,0.03533679627230413,0.35327751920499395,1.00108083213172,5.803100609114836
26,23,female,44,105,105,same,catch,anti,5,2,1,0.29501649792428,0,j,change,1.03850713028487,0,0.5002273916859394,0.035341286376251446,0.35329323456812745,1.0010561365606918,6.4749019233038325
26,23,female,45,105,55,change,valid,anti,3,2,2,0.23181732461648608,1,j,change,1.3808098736101329,0.29362327016265866,0.5006959660906887,0.035324288126048486,0.3532938760115485,1.0010833979054041,5.263028036208198
26,23,female,46,135,135,same,catch,clock,3,2,2,0.5632652419781152,1,f,same,4.550494103852316,0,0.49977004254060375,0.035391639683211906,0.35329612106352215,1.0010497221267087,10.185047441153984
26,23,female,47,45,45,same,valid,anti,2,1,2,0.21217408260781667,1,f,same,3.343723540459905,0.18446975971875437,0.49946407403786,0.03530825204120447,0.3533031769409263,1.0010846807920188,7.1816041729741755
26,23,female,48,15,325,change,valid,anti,1,1,1,1.9888972561616356,0,j,change,2.296734604075482,0.17024914489002554,0.4995086543542584,0.035363095451884874,0.353311194983462,1.0010619095514812,7.899831877684392
26,23,female,49,15,15,same,valid,clock,5,0,2,0.8961685944177589,1,f,same,1.550874159067689,0.18987218751622817,0.4992956951450651,0.035303120493836104,0.3533144022003398,1.0010817942968515,6.027243704874309
26,23,female,50,135,135,same,valid,anti,4,2,2,0.28658151719332636,1,f,same,1.2314372694011126,0.2837712550129363,0.4993252015415237,0.03533551338568941,0.35323422177521024,1.0011074520327838,5.096485595747026
26,23,female,51,165,215,change,valid,clock,3,1,2,0.30724689926250903,1,j,change,1.7467568621616465,0.19115178405021577,0.5058185330958622,0.03531242142321389,0.3532810471435823,1.0010782663580358,5.680045465508329
26,23,female,52,45,45,same,valid,clock,3,2,3,1.1949243866517918,1,f,same,1.0032966983626466,0.27502309194195274,0.4994191729999784,0.0353258917346011,0.3533326833373849,1.001074096975799,5.744267099598119
26,23,female,53,45,355,change,valid,anti,3,2,3,1.8690281619310554,1,j,change,1.4230777865584514,0.2676221405119181,0.49978607862567515,0.03532717462144319,0.35329163095957483,1.0010667203769117,6.839502522155499
26,23,female,54,105,105,same,catch,clock,2,2,1,0.3835061809486433,0,j,change,3.0711726355114024,0,0.5004695365698808,0.03533134400367999,0.3532897066293117,1.0010789078016842,8.547931216741063
26,23,female,55,15,65,change,valid,clock,3,1,2,0.9087803338584308,1,j,change,1.684687591405691,0.1793962943445093,0.5002087898274112,0.03532140163065378,0.353283292195556,1.001086605122282,6.192501975645655
26,23,female,56,45,45,same,valid,clock,2,2,3,0.5510412550736419,1,f,same,1.2749393194542336,0.2607399132198649,0.49959428704846687,0.035321722352364304,0.3533278725119544,1.0010510050135508,5.367293378251588
26,23,female,57,165,115,change,valid,anti,2,2,3,0.9733335941868972,1,j,change,1.306216420437977,0.2542334303149466,0.4998646554422521,0.035336154829110455,0.353283292195556,1.0010757005843516,5.815314653646283
26,23,female,58,135,135,same,valid,anti,1,0,3,0.3717247899915037,1,f,same,1.321457115659996,0.17848890595061123,0.5001500977559772,0.03535668101790179,0.3532566722942647,1.0010795492448779,5.250800200643653
26,23,female,59,45,95,change,catch,clock,1,1,2,0.45123715188856295,1,j,change,2.5274358171732274,0,0.49963854664315477,0.03532909895170633,0.3533102328183304,1.0010465149096035,8.06490894069475
26,23,female,60,105,105,same,valid,anti,5,2,3,0.7941207222138473,1,f,same,1.3599767540911216,0.2479994133895858,0.4999278376174061,0.03534641792339244,0.35331247787030406,1.0010724933674737,5.72095640494058
26,23,female,61,105,155,change,valid,clock,5,1,3,1.3708193926302101,1,j,change,1.1548809994201292,0.16902976612834242,0.5003152694318942,0.03530119616357297,0.35332145807797133,1.0010971889385019,6.06281270365821
26,23,female,62,15,325,change,valid,anti,2,0,2,0.31124597814982735,1,j,change,2.4442912820143192,0.16814096654954408,0.49992046101829146,0.03523416532812007,0.3534070907719524,1.0010554951172708,6.333303613122325
26,23,female,63,135,185,change,valid,clock,1,2,2,0.13039229395553775,1,j,change,1.3419002375906075,0.24245672146063235,0.5003800552153734,0.03529606461643198,0.3533326833373849,1.0010792285231673,5.061761698644659
26,23,female,64,15,65,change,valid,clock,4,1,2,0.4158637933423961,1,j,change,1.4985047954310176,0.15968490540815253,0.5005420196744126,0.03531755297035488,0.3533249860165597,1.0010789078014568,5.4509145058577815
26,23,female,65,15,65,change,valid,clock,1,1,2,0.13124862089671296,1,j,change,2.0695058448322925,0.15113665482345934,0.5001080832130356,0.035333909777136796,0.353288423742697,1.0010817942968515,5.780804677918468
26,23,female,66,75,25,change,catch,anti,4,2,1,0.2899375490703733,0,j,change,0.9471556475241414,0,0.4994608668209821,0.03531947730061802,0.35331921302599767,1.001034648206769,6.3447120047414955
26,23,female,67,75,25,change,valid,anti,3,1,2,0.05821355446892085,1,j,change,5.985352319202775,0.14319441969745425,0.500426559862035,0.03530664843242448,0.35332306168629657,1.0010692861503685,9.667093761064962
26,23,female,68,15,325,change,catch,anti,2,1,1,0.1990010801905555,0,j,change,1.0641340770657735,0,0.5001157805338607,0.03532813678657476,0.3532858579690128,1.0010596644995076,6.357814769105971
26,23,female,69,105,55,change,valid,anti,4,0,3,0.3986192289335122,1,j,change,1.9476890077128246,0.15861222466742558,0.4993386718529109,0.035311779979792846,0.35332017519090186,1.0010420248058836,5.9675102502656046
26,23,female,70,75,75,same,catch,clock,4,1,1,0.10207417138326491,0,j,change,1.4570505534375116,0,0.5003592083048716,0.03528644296557104,0.3533317211722533,1.0010439491361467,6.710702611444276
26,23,female,71,135,85,change,valid,anti,4,1,2,0.18393902695606812,1,j,change,2.1793677805544576,0.13572451291492443,0.49993104483428397,0.03535507740934918,0.3533031769406989,1.001047797796673,6.015463596804011
26,23,female,72,45,45,same,valid,clock,3,0,2,0.43972035633464657,1,f,same,1.3343151693666186,0.1497488709124547,0.4997851164605436,0.035323967404337964,0.35331344003543563,1.0010471563530245,5.309270653194517
26,23,female,73,45,355,change,valid,anti,5,0,3,0.4310762650545712,1,j,change,1.2945790335243146,0.1414426505607373,0.4995452166283485,0.03533070256003157,0.3532855372473023,1.0010760213062895,5.3206437654266665
26,23,female,74,45,355,change,valid,anti,2,0,2,0.06361097997159959,1,j,change,1.182758129653621,0.13356820907593697,0.4995407265244012,0.03532685389973267,0.35327591559621396,1.0011000754338966,4.872488428361066
26,23,female,75,75,125,change,catch,clock,5,0,1,0.22951839146526254,0,j,change,0.9838231181333867,0,0.4998479779137597,0.035308893484625514,0.3533237031297176,1.0010445905793404,6.298232053696438
26,23,female,76,75,125,change,catch,clock,2,0,1,0.08025739840809365,0,j,change,1.2876132789047006,0,0.5000333550567575,0.03531947730061802,0.3532887444644075,1.0010606266646391,6.474797688751323
26,23,female,77,135,185,change,catch,clock,1,2,1,0.08198833342748912,0,j,change,2.017268297814553,0,0.5000718416608834,0.03536469906043749,0.35328393363874966,1.001076342028,7.228643462665332
26,23,female,78,105,105,same,valid,clock,3,0,2,1.5341209403047742,1,f,same,1.5432435483621703,0.12604873825625218,0.4999903783489117,0.0353258917346011,0.3532727083793361,1.001103603372485,6.663486283374368
26,23,female,79,45,45,same,valid,clock,5,0,2,0.39362751638259397,1,f,same,2.091298563680084,0.11906493646833641,0.49942622887715515,0.03534898369707662,0.3532922724029959,1.001037213980453,6.0622155198514065
26,23,female,80,135,135,same,valid,clock,3,0,1,0.4776469803409782,0,f,same,1.2564910865025922,0.1123601538662558,0.4995923627184311,0.03537656576327208,0.35325025786028164,1.0010789078014568,5.320250239899906
26,23,female,81,45,355,change,catch,anti,2,2,1,0.5433958911701211,0,f,same,3.4749227702143344,0,0.5002809522100051,0.035338720602567264,0.35328938590782855,1.0010676825420433,9.112935411781109
26,23,female,82,135,85,change,catch,anti,1,0,1,0.3252198226537075,0,f,same,0.8602022214467979,0,0.5007148886711548,0.03530279977212558,0.35333460766742064,1.0010680032637538,6.310967591713506
26,23,female,83,75,125,change,valid,clock,3,1,1,0.5973287730985248,0,f,same,0.8769323482474647,0.12898015568413465,0.4996558656148409,0.03533455122033047,0.353271425492494,1.0010853222352125,5.084465587844534
26,23,female,84,135,185,change,valid,clock,5,2,1,0.036432381602480746,0,f,same,1.3086096457691383,0.2370108069869511,0.5000394487692574,0.035299271833537205,0.35331183642665565,1.0010837186268873,4.944233231386534
26,23,female,85,135,85,change,valid,anti,5,1,1,0.09897279253664237,0,j,change,2.2311855028656282,0.1402040215191258,0.49990282132466746,0.035316911526933836,0.3533156850871819,1.0010757005848063,5.9098339046454385
26,23,female,86,15,65,change,valid,clock,5,2,2,1.0262725595644042,1,j,change,2.3193012243868907,0.25493530093939065,0.49993489349481024,0.03528965018267627,0.3533570581867025,1.001058381612438,6.933935819738963
26,23,female,87,75,75,same,valid,anti,4,0,2,0.07460275410130635,1,f,same,1.4139583857181606,0.11837660014840617,0.49960904024692354,0.035302158328704536,0.3533342869459375,1.0010654374900696,5.0849527641080385
26,23,female,88,45,95,change,valid,clock,3,0,2,0.11232315405413829,1,j,change,1.0671979314734017,0.11214669937868325,0.49972417933713587,0.035309855649302335,0.3533111949832346,1.0010195742870565,4.743397302345784
26,23,female,89,165,165,same,valid,clock,5,0,1,0.32675960753931577,0,j,change,1.0132688982052969,0.10604158924302579,0.5002187322002101,0.035327174621670565,0.35330285621921576,1.0010494014049982,4.920876352804044
26,23,female,90,45,45,same,valid,anti,3,0,2,0.3359287202433734,1,f,same,1.3989194244454666,0.11176471679687457,0.49976555243665644,0.03532396740411059,0.35329612106352215,1.0011039240944228,5.308693354133538
26,23,female,91,15,15,same,valid,anti,3,1,3,0.5909563536251881,1,f,same,1.1977951665953697,0.15095277371611238,0.5002398998321951,0.035343852149708255,0.35330670487974203,1.0010442698580846,5.367816796067473
26,23,female,92,105,155,change,catch,clock,5,2,1,1.1613865183994676,0,j,change,1.5048865158332774,0,0.5004743473955386,0.03533423049884732,0.35329483817668006,1.0010551743953329,7.75889136771093
26,23,female,93,15,15,same,valid,clock,1,0,2,0.14161787420516703,1,f,same,1.3241389905219876,0.10604438519325485,0.500570563905967,0.035291574512939405,0.35331921302622504,1.0010728140891842,5.050888591544208
26,23,female,94,165,165,same,valid,anti,3,0,2,0.7218047138394468,1,f,same,1.025393782104402,0.10065763516876497,0.4991372586250691,0.03533968276769883,0.3533297968419902,1.0010628717163854,5.343243099352094
26,23,female,95,15,15,same,valid,anti,5,1,1,0.23791264053988925,0,j,change,2.297644170818785,0.14486706263466353,0.5,0.03531338358834546,0.35330413910605785,1.0010994339900208,6.13341317165532
26,23,female,96,135,135,same,catch,clock,3,1,1,0.1373910829106535,0,j,change,0.9548481575179721,0,0.5001080832130356,0.035344172871191404,0.35328104714335495,1.0010551743957876,6.204793955550485
26,23,female,97,165,165,same,catch,anti,2,2,2,0.2329937318154407,1,j,change,1.2752019905269663,0,0.49982328234273155,0.035327174621670565,0.3533358905547175,1.0010795492448779,6.604125507381923
26,23,female,98,165,215,change,valid,clock,5,2,2,0.09881339385174215,1,j,change,1.3278417225578778,0.250089331825029,0.5000346379433722,0.03529414028616884,0.3533330040590954,1.0010811528536578,5.003438778075633
26,23,female,99,105,105,same,valid,anti,2,1,1,0.24807695268236785,0,j,change,1.0698153412736247,0.15438462915969609,0.4995567626092452,0.03529478173004463,0.353337494162588,1.0010744176975095,4.884711453100408
26,23,female,100,105,55,change,catch,anti,1,0,1,0.09863603475105265,0,j,change,0.7808980079335015,0,0.499338351130973,0.03536501978214801,0.3532656525017046,1.0011125835799248,6.0152108681036225
26,23,female,101,15,325,change,valid,anti,2,1,1,0.2890962960491379,0,j,change,1.931046437936402,0.16372643829823746,0.5078207986744019,0.03533134400367999,0.35327559487450344,1.0010401004756204,5.929554761306008
26,23,female,102,135,185,change,valid,clock,4,1,1,0.09480597619995024,0,j,change,0.31826914195380596,0.17293876249786128,0.4992838284424579,0.03531883585719697,0.3532970832288811,1.0010943024431072,4.083196171352483
26,23,female,103,135,85,change,valid,anti,5,0,1,0.03693334889931066,0,j,change,0.9640108557878193,0.09534507301842361,0.4998604860602427,0.03531947730061802,0.3533410221016311,1.0010154049045923,4.614199376003853
26,23,female,104,15,325,change,valid,anti,2,2,2,0.07300652219646508,1,j,change,1.4389852621966384,0.24565906581172933,0.4999579854570584,0.03535315307908604,0.3533002904455316,1.0010840393488252,5.132797065268278
26,23,female,105,45,355,change,catch,anti,4,1,1,0.3464246586236186,0,j,change,1.910946488225818,0,0.49973123521476737,0.035315307918608596,0.35329612106352215,1.0010561365606918,7.392948869263364
26,23,female,106,135,135,same,valid,clock,5,1,2,0.14603132552974785,1,j,change,4.030489087764636,0.18205521614064055,0.5008229718841903,0.03530921420633604,0.3533115157051725,1.0010670410983948,7.783144342725791
26,23,female,107,15,15,same,valid,clock,4,1,3,0.8019363893408809,1,f,same,1.4892372211643305,0.17667680470674935,0.5000962165104283,0.035292857399781496,0.35328040570038866,1.0010773041931316,5.8978600806676695
26,23,female,108,75,25,change,valid,anti,4,2,3,0.9633880142450835,1,j,change,1.658701436319916,0.24159534982843925,0.4996404709736453,0.03537111349442057,0.3533073463231631,1.0010676825422706,6.251262039892481
26,23,female,109,75,75,same,valid,anti,3,1,3,0.26574871839602565,1,f,same,1.1933384178414599,0.17176493077862343,0.4996164168460382,0.03536245400846383,0.35330542199289994,1.0010757005848063,5.049669528359573
26,23,female,110,105,155,change,catch,clock,3,2,2,0.1911382669741215,1,j,change,1.854124545216564,0,0.5000859534156916,0.035299271833537205,0.3533297968419902,1.0010484392396393,7.181884163018822
26,23,female,111,45,45,same,valid,clock,1,0,2,0.2858454608899592,1,j,change,3.6475528292785384,0.10039748786258185,0.5000830669205243,0.035324288126048486,0.35330798776612937,1.001059985221218,7.559009265008626
26,23,female,112,165,165,same,valid,clock,2,0,1,0.22346958018806617,0,j,change,0.9186130197617786,0.0953847132432582,0.49941532433922475,0.03531210070150337,0.3533464743704826,1.0010641546032275,4.731525788590716
26,23,female,113,165,165,same,catch,clock,3,0,2,0.08830077794254976,1,j,change,1.158713944466399,0,0.49937459268312523,0.03533551338568941,0.3533144022003398,1.0010702483155,6.3682334135564815
26,23,female,114,165,115,change,catch,anti,3,0,1,0.2762536369841655,0,j,change,1.0861952399768597,0,0.49977902274804364,0.03533519266375151,0.3532996490021105,1.0010510050133234,6.474331680119576
26,23,female,115,75,75,same,valid,clock,3,1,1,0.14490430947307686,0,j,change,0.9213657741197494,0.16694895464599016,0.5008380458043575,0.03530921420588129,0.35333781488452587,1.0010667203769117,4.662038224895241
26,23,female,116,15,15,same,catch,clock,5,2,1,0.12000475950981127,0,j,change,0.8104101773974435,0,0.49960871952498564,0.03535507740934918,0.35327110477101087,1.0010606266646391,6.027225744459429
26,23,female,117,75,75,same,valid,clock,5,0,1,0.10596003551063404,0,j,change,0.9279681510524824,0.10015540082560749,0.4996363015911811,0.0353586053483923,0.35328233003019704,1.0010978303816955,4.637461641684695
26,23,female,118,135,135,same,valid,clock,3,2,2,0.1129280351815396,1,f,same,1.2653744361709869,0.23748434892877218,0.49996055123074257,0.0353226845172685,0.35326918044074773,1.0010753798628684,4.9796983163391815
26,23,female,119,165,215,change,valid,clock,4,1,2,0.11187350222962777,1,j,change,1.504269126559393,0.17497438098251752,0.4990269303598325,0.03529830966863301,0.3533330040590954,1.001059664499735,5.202157302448541
26,23,female,120,105,105,same,valid,anti,4,0,1,0.06952123947394284,0,j,change,1.231050158308335,0.10465210232803891,0.5000176396938514,0.03531627008351279,0.3533224202428755,1.0010307995462426,4.908722283230873
26,23,female,121,135,135,same,valid,clock,3,1,2,0.04986837581418513,1,f,same,1.4471274240145249,0.1704040445754519,0.4998569581216543,0.03531210070150337,0.3533134400349809,1.0010750591409305,5.108623629235353
26,23,female,122,45,355,change,catch,anti,5,1,1,0.04983117209667398,0,j,change,0.9959842435841892,0,0.5000487496986352,0.03535603957425337,0.3532877822995033,1.0010984718251166,6.2277499320071
26,23,female,123,135,85,change,valid,anti,4,0,1,0.0708583282444124,0,f,same,3.795699314425292,0.10888181092423956,0.5003338712908771,0.03533390977690942,0.35326853899687194,1.0010943024431072,7.453081943111556
26,23,female,124,165,115,change,valid,anti,2,0,1,0.14033851534077257,0,f,same,1.1397904019540874,0.113291553158277,0.4992940915362851,0.03533358905542627,0.3533307590073491,1.0010724933672464,4.872211645533298
26,23,female,125,135,135,same,catch,anti,4,2,1,0.03751289301271754,0,j,change,1.488024251691968,0,0.5005391331792453,0.03532941967341685,0.35331889230428715,1.0010651167681317,6.651859800998864
26,23,female,126,165,215,change,catch,clock,2,1,1,0.009770465893325309,0,j,change,0.7646306825472493,0,0.5007604311526848,0.03532204307384745,0.35330445982799574,1.0010811528536578,5.922146731460998
26,23,female,127,45,355,change,valid,anti,4,1,2,0.0903370400210406,1,j,change,1.526543890123321,0.1661417985094824,0.4997703632620869,0.035339362045760936,0.3532643696148625,1.0010882087308346,5.226342284462135
26,23,female,128,135,135,same,valid,clock,1,1,2,0.06016225952316745,1,f,same,1.0354913841320013,0.16217805326871926,0.4996414331385495,0.03532781606463686,0.35327719848328343,1.001066078933036,4.720269739779269
26,23,female,129,105,155,change,valid,clock,2,0,1,0.048161815644107264,0,j,change,0.9602430172471941,0.11741801099621643,0.4996767125257975,0.03533262689052208,0.35331183642665565,1.0010635131598065,4.637776590394878
26,23,female,130,15,325,change,catch,anti,5,1,1,0.04477274943201337,0,j,change,1.0098131218792332,0,0.49970878469594027,0.03534353142777036,0.3533195337477082,1.0010670410983948,6.215802407208685
26,23,female,131,105,105,same,valid,clock,4,1,1,0.5434937112886473,0,j,change,0.5248896075904668,0.15820400413565772,0.5001555500248287,0.03536694411241115,0.3533057427143831,1.0010404211975583,4.709014653132726
26,23,female,132,165,165,same,valid,anti,4,2,2,0.06672390479980095,1,f,same,1.1180740148711266,0.23370959529538232,0.49919434708772314,0.0352995925554751,0.353315364365244,1.0010776249146147,4.790270137474181
26,23,female,133,15,15,same,valid,clock,2,2,2,0.037683837679196586,1,f,same,1.8857268580050004,0.22986676356796595,0.4993438034002793,0.03530408265896767,0.3533355698327796,1.00108083213172,5.555278950906541
26,23,female,134,45,355,change,valid,anti,5,1,2,0.14901724456422016,1,j,change,1.097489775392205,0.16479868063577394,0.5000423352644248,0.035307931319493946,0.3533022147757947,1.001083077183921,4.873261046938296
26,23,female,135,15,325,change,valid,anti,3,2,2,0.5945445880133775,1,j,change,1.1576244528487223,0.22626841572350934,0.5002450313795634,0.035316911526933836,0.35330959137490936,1.001059023056314,5.367866828652495
26,23,female,136,165,215,change,catch,clock,5,1,1,0.1842959902091934,0,j,change,0.8496068593390191,0,0.500376527276785,0.0353002339984414,0.35335417169153516,1.001047477074735,6.180791784905978
26,23,female,137,135,185,change,catch,clock,3,2,2,0.04074031548725543,1,f,same,2.014044082556211,0,0.5004570284236252,0.035334551220785215,0.35329387601177586,1.0010583816128928,7.206040600801316
26,23,female,138,105,105,same,valid,anti,4,2,3,0.20001359859998047,1,f,same,1.5114305214165142,0.22291965346752537,0.49929986452707453,0.03537528287642999,0.3533089499314883,1.001069927594017,5.320425995391815
26,23,female,139,45,45,same,catch,anti,4,0,1,0.14296971617432064,0,j,change,1.5382627403491824,0,0.49935310432965707,0.03531947730061802,0.3533262689034018,1.0010558158392087,6.8273144560816945
26,23,female,140,135,135,same,valid,clock,4,1,2,0.11396909782251896,1,f,same,0.9625227070964684,0.1610264593293785,0.500157795076575,0.0353297403949,0.35329163095957483,1.0010882087308346,4.708478727171041
26,23,female,141,135,185,change,catch,clock,5,1,2,0.06640029660366054,1,j,change,4.467074068752481,0,0.5001420797134415,0.03536918916415743,0.35329836611526844,1.0010628717163854,9.666923457841676
26,23,female,142,105,105,same,catch,anti,2,0,1,0.0693874985245202,0,j,change,1.9697373417557174,0,0.4997799849134026,0.03531338358834546,0.3533025354977326,1.0010750591409305,7.157608416763651
26,23,female,143,75,75,same,valid,clock,2,0,2,0.12558724143400468,1,f,same,1.5499924951118373,0.12175294002440112,0.5001100075432987,0.035333268333943124,0.35329387601177586,1.0010401004756204,5.285553924863962
26,23,female,144,45,95,change,valid,clock,1,2,2,0.23130000051287425,1,j,change,2.3381160422427456,0.21945874620342107,0.4996286042705833,0.035327495343153714,0.35327559487450344,1.0010789078014568,6.168248359187601
26,23,female,145,135,135,same,valid,clock,2,2,3,0.27419588655175176,1,f,same,1.044252218111069,0.2161980588402358,0.49999743422677057,0.03537143421590372,0.35329836611526844,1.0010481185186109,4.932555112816772
26,23,female,146,75,75,same,valid,anti,1,0,2,0.06336851436572033,1,f,same,1.39858298738136,0.11731582521818011,0.4992860734942042,0.03535732246155021,0.35330606343586624,1.0010769834711937,5.061347326207397
26,23,female,147,105,105,same,valid,anti,5,0,2,0.10829328588397402,1,f,same,1.0723952266348533,0.11316169383089762,0.4998912753435434,0.03536020895671754,0.35331664725254086,1.0010436284146635,4.790876622210362
26,23,female,148,105,55,change,valid,anti,2,0,1,0.1596177382193673,0,j,change,1.276281219050361,0.10899119553186618,0.4999477223627764,0.03530921420588129,0.3533204959126124,1.001070569037438,5.049722447440217
26,23,female,149,45,95,change,valid,clock,2,1,2,0.3277346015097464,1,j,change,0.9750667742578116,0.15742689628719764,0.49980981203134434,0.03529766822475722,0.3533368527196217,1.0010785870799737,4.885288752161614
26,23,female,150,105,105,same,catch,clock,5,1,2,0.13099204353602545,1,j,change,0.8901226696361846,0,0.499668053039386,0.0353290989519337,0.35330638415780413,1.0010670410983948,6.14481675244906
26,23,female,151,105,55,change,valid,anti,4,2,1,0.04309216771935098,0,j,change,1.2025886731357787,0.21313930523613367,0.5015016190031929,0.035323005239206395,0.35331344003543563,1.0010663996554285,4.875022771240765
26,23,female,152,135,135,same,valid,clock,5,2,2,0.030454770543201448,1,f,same,1.0553001185385256,0.2238607121048124,0.49918664976712535,0.03536534050363116,0.35328906518589065,1.0010959060514324,4.70810893504995
26,23,female,153,75,125,change,valid,clock,4,2,2,0.020142605696946703,1,j,change,1.0531067028273355,0.22089473027185735,0.49950191919879217,0.03529830966817826,0.35333813560646377,1.001068965428658,4.719645294627753
26,23,female,154,75,75,same,valid,clock,2,2,2,0.07573009087991522,1,f,same,1.1337204230444513,0.218035384542169,0.5000019243302631,0.03536213328652593,0.35329804539333054,1.0010378554238741,4.802645505021246
26,23,female,155,15,15,same,valid,clock,5,1,2,0.05933960836046026,1,f,same,1.3579058540690312,0.1540800083014252,0.500147531982293,0.035345135036550346,0.3532842543604602,1.0010609473861223,5.049828285601507
26,23,female,156,165,215,change,valid,clock,5,0,1,0.12136494024298372,0,j,change,1.5943338738566126,0.11282799301270999,0.5003585668614505,0.03527810420109745,0.35333364550251645,1.001091736669423,5.309731209556958
26,23,female,157,15,325,change,catch,anti,3,0,1,0.1855387867999525,0,j,change,0.40478029280575356,0,0.49965907283240085,0.035354115243990236,0.3532781606481876,1.001105527702748,5.744725731630297
26,23,female,158,105,55,change,valid,anti,1,1,2,0.1143546053067439,1,j,change,2.3027375521492104,0.15070573586087083,0.49985150585234805,0.03531466647518755,0.35332466529507656,1.0010728140891842,5.991801391162426
26,23,female,159,135,135,same,valid,clock,2,1,2,0.0891894977753509,1,f,same,1.051843380047103,0.14747048560004017,0.5,0.03531627008396754,0.35329163095957483,1.001091095226002,4.720404122171658
26,23,female,160,165,165,same,catch,clock,2,2,2,0.08869173769562622,1,j,change,1.1054404663545938,0,0.49942238021685625,0.03529830966817826,0.3533150436437609,1.0010843600703083,6.32143530658459
26,23,female,161,135,135,same,valid,anti,2,2,1,0.00782176083930608,0,j,change,0.9222214596170488,0.2153558608782935,0.5002421448843961,0.03533390977690942,0.3533150436437609,1.0010898123396146,4.5790325622328965
26,23,female,162,105,105,same,valid,anti,1,2,1,0.0631799300053899,0,j,change,0.881295446265085,0.22518160140441987,0.49963149076575064,0.035330061116837896,0.3533002904455316,1.001045552744472,4.555190110995682
26,23,female,163,135,135,same,valid,anti,1,2,2,0.05075934069873256,1,f,same,0.8571960969452448,0.2345146565208345,0.49925047338501827,0.03535347380056919,0.35330542199289994,1.0010561365606918,4.496178600934854
26,23,female,164,75,125,change,valid,clock,3,2,2,0.2949161120318422,1,j,change,1.5007594689877806,0.23203649016981315,0.49967446747359645,0.03529285739932675,0.35333909777136796,1.0010378554238741,5.3788306999945235
26,23,female,165,75,75,same,valid,anti,2,0,2,0.06413503923067765,1,f,same,0.976121948654054,0.11643223478136502,0.5007309247562262,0.03528323574846581,0.35333877704943006,1.0010708897589211,4.661828472902926
26,23,female,166,45,355,change,catch,anti,1,1,2,0.06293072924381704,1,j,change,1.7240664432733865,0,0.4997103883042655,0.03533230616858418,0.3532999697240484,1.001047477074735,6.887245475258169
26,23,female,167,75,125,change,valid,clock,5,0,2,0.04718521806489662,1,j,change,1.2696878223255226,0.1126361369936167,0.49943873702386554,0.03533326833348838,0.3532986868367516,1.0011007168773176,4.943484987658394
26,23,female,168,105,105,same,valid,clock,5,2,3,0.06187427196164208,1,f,same,1.1939115475206563,0.229621022078469,0.4995452166281211,0.03531049709272338,0.35329580034158425,1.0010317617111468,4.84925374474642
26,23,female,169,75,125,change,valid,clock,1,1,3,3.3751751140484885,1,j,change,1.4743303972331887,0.14444846723093904,0.4995468202369011,0.03535796390497126,0.3532762363179245,1.0010782663580358,8.44137528031115
26,23,female,170,135,135,same,valid,anti,3,2,4,1.356320526701893,1,f,same,1.31635731989536,0.22732325416751997,0.5000817840336822,0.035355398131287075,0.35329355528983797,1.0010862844005715,6.274795956854177
26,23,female,171,15,15,same,catch,clock,1,1,2,0.7632474098518287,1,f,same,3.163208538381241,0,0.5003364370641066,0.0353290989519337,0.353327231068306,1.0010481185181561,9.019071395216542
26,23,female,172,165,115,change,valid,anti,4,2,2,0.25338297249982134,1,j,change,2.294846836144643,0.22515431990881035,0.5003136658233416,0.03533390977736417,0.3532909895161538,1.0010869258439925,6.157850561647592
26,23,female,173,15,15,same,valid,anti,2,0,2,0.11470483340463034,1,f,same,1.3981249967928306,0.10880125541019911,0.49937812062216835,0.03532332596114429,0.3533275517902439,1.0010477977962182,5.11954869325109
26,23,female,174,75,25,change,catch,anti,3,2,1,0.21513723040106925,0,j,change,1.1650257475380386,0,0.49987010771110363,0.035285801522149995,0.35332691034682284,1.0010529293435866,6.487157340934573
26,23,female,175,105,105,same,valid,clock,2,0,2,0.10328746157756541,1,f,same,1.3966920122334159,0.10518854304960155,0.499840601314645,0.03533583410717256,0.3533179301389282,1.0010670410983948,5.085017870613228
26,23,female,176,105,155,change,catch,clock,2,1,1,0.23113707388938565,0,j,change,0.8774971391626423,0,0.5003062892242269,0.03532813678657476,0.35330798776612937,1.0010773041931316,6.215934544549782
26,23,female,177,165,115,change,valid,anti,4,1,2,0.09193808275131232,1,j,change,3.5740960138141418,0.1413970391849973,0.5001196291946144,0.035309855649302335,0.35332145807797133,1.0010413833624625,7.264648963684067
26,23,female,178,15,325,change,catch,anti,3,2,1,0.7145201618491228,0,j,change,1.404706206093124,0,0.4996202655061097,0.03535956751284175,0.35327431198766135,1.0010965474948534,7.263791995299471
26,23,female,179,15,15,same,valid,anti,2,2,1,0.09882942993635879,0,j,change,1.3066327172055026,0.22307578846969142,0.49973123521476737,0.03533519266420626,0.3533249860165597,1.001035931093611,5.085501518938145
26,23,female,180,135,85,change,valid,anti,1,1,1,0.2189987196788934,0,j,change,0.5491631087938913,0.13842152933850857,0.4990320619067461,0.03534128637647882,0.3533156850871819,1.0010647960466486,4.401176984497852
26,23,female,181,135,135,same,valid,clock,2,0,1,0.07473040133845643,0,j,change,0.29258254093656433,0.101717120515283,0.5001956402375072,0.035316911526933836,0.3533047805494789,1.0010532500655245,3.989709644229606
26,23,female,182,105,155,change,valid,clock,1,1,1,0.21047201254168613,0,j,change,0.5587295956856906,0.14342681003898833,0.500615144222138,0.035359888235234394,0.35328714085608226,1.0010846807917915,4.414848388437349
26,23,female,183,75,25,change,valid,anti,1,0,1,0.07395233049237504,0,j,change,0.7251482375700107,0.10493019242407632,0.49992527184349456,0.035327495343153714,0.3533512851959131,1.0010522879006203,4.4488291733587175
26,23,female,184,15,325,change,valid,anti,4,1,1,0.07141093173504487,0,j,change,0.35701456846254587,0.14809137624250593,0.5006077676230234,0.03531177997956547,0.35332338240823447,1.0010641546032275,4.049746822289308
26,23,female,185,45,45,same,valid,clock,2,0,1,0.2593083059223318,0,j,change,0.09414272372259802,0.1080190403446103,0.49988935101328025,0.035301196163345594,0.3533172886959619,1.0010737762540884,3.9668595059347354
26,23,female,186,165,115,change,valid,anti,3,2,1,0.11276542927953415,0,j,change,0.7107911306338792,0.230586007146218,0.49894482560466713,0.03532685389973267,0.3532855372473023,1.0010622302734191,4.436090107403288
26,23,female,187,15,325,change,valid,anti,5,2,2,0.09314271345920133,1,j,change,1.6438423999220504,0.2379331050602677,0.500556452150704,0.03529863039011616,0.35331985446919134,1.0010833979054041,5.34487108270514
26,23,female,188,105,105,same,catch,clock,2,2,1,0.046430880624939164,0,j,change,0.5873982670764235,0,0.5001324580621258,0.035334551220785215,0.3532791228130918,1.0010885294523177,5.791759248330891
26,23,female,189,105,155,change,catch,clock,1,1,1,0.012608852945504623,0,j,change,0.47093876524741063,0,0.5005362466836232,0.035306648432651855,0.3533557752998604,1.0011007168768629,5.697991127554815
26,23,female,190,15,65,change,catch,clock,5,0,2,0.05041616847893238,1,f,same,2.2704915509075363,0,0.4999868504105507,0.03527489698399222,0.35335288880469307,1.0010747384194474,7.428462703914647
26,23,female,191,135,135,same,valid,anti,1,1,1,0.07856527071453456,0,j,change,1.2515526137535744,0.15300025147393764,0.5002440692146592,0.03533006111638315,0.35329932828017263,1.0010535707874624,4.944421815746864
26,23,female,192,135,135,same,valid,clock,1,2,2,0.0725090828386783,1,f,same,0.9714220928503892,0.23598362279510343,0.49938357289101987,0.03531947730061802,0.3533294761200523,1.0010619095514812,4.625255935916812
26,23,female,193,75,75,same,valid,clock,1,0,2,0.05104125507386925,1,f,same,1.1678124983964153,0.11132881839277309,0.4996090402464688,0.0353515494707608,0.35328714085608226,1.001072493367701,4.826160499402249
26,23,female,194,105,155,change,valid,clock,3,0,2,0.10176788215903798,1,j,change,1.1964330615323888,0.10791318580768064,0.49966099716220924,0.03538233875406149,0.35328938590782855,1.0010564572826297,4.919747091695626
26,23,female,195,15,325,change,valid,anti,3,1,1,0.16863001801175415,0,j,change,0.7456208658973082,0.15757944985823383,0.5004737059521176,0.03531915657913487,0.3533198544696461,1.0010625509949023,4.508776870064139
26,23,female,196,135,135,same,catch,anti,5,1,2,0.31039382059088894,1,f,same,2.3304341160651347,0,0.4997809470783068,0.03533615482865571,0.3532775192047666,1.0010728140891842,7.78168473826554
26,23,female,197,75,75,same,valid,clock,5,1,2,0.03783136966148959,1,f,same,1.0301362938939747,0.1624156744260237,0.5006404812365872,0.0352627095594471,0.35339362046033784,1.0010455527449267,4.696920237795894
26,23,female,198,45,95,change,valid,clock,1,1,2,0.0856163373068739,1,j,change,1.1626007707582175,0.1596575387644752,0.49991212225404524,0.035302158328704536,0.35333236261567436,1.001034648206769,4.849222634741636
26,23,female,199,75,25,change,valid,anti,4,1,2,0.07462039379515772,1,j,change,1.9940377835819163,0.15704606337340432,0.500442595946879,0.035309855649302335,0.3533230616867513,1.001068323985237,5.662698590877426
26,23,female,200,45,355,change,valid,anti,1,2,3,0.23761180358451384,1,j,change,1.4135651809124283,0.2341197807011486,0.5002398998321951,0.03532974039535475,0.35333107972883226,1.0010503635699024,5.261825009108179
26,23,female,201,165,115,change,valid,anti,1,2,2,0.03405839957304124,1,j,change,1.5113990906897925,0.23216423250437687,0.5037457087432813,0.035349625140497665,0.3532913102380917,1.0010567780041129,5.194892955925297
26,23,female,202,165,215,change,valid,clock,2,2,2,0.039577378600824886,1,j,change,0.9066533075388179,0.23024122620186827,0.49965714850168297,0.03535764318303336,0.35329612106352215,1.0010779456365526,4.5781897056031085
26,23,female,203,45,355,change,valid,anti,3,1,2,0.43551729844557485,1,j,change,1.021080395950321,0.1545800188712573,0.49998588824519175,0.035302158328704536,0.35331889230428715,1.0010670410983948,5.026260051418376
26,23,female,204,135,185,change,catch,clock,5,1,1,0.033685079513361416,0,j,change,0.27578377969257417,0,0.5002767828282231,0.03534481431461245,0.3532672561104846,1.001082756461983,5.426895657684781
26,23,female,205,135,185,change,catch,clock,4,0,1,0.06925119180186812,0,j,change,0.876982380832942,0,0.5005837134954163,0.03533647555104835,0.35330061116746947,1.0010955853299492,6.110101514832422
26,23,female,206,105,105,same,valid,anti,3,0,1,0.043179083300401544,0,j,change,0.7341634038580196,0.10470539101400607,0.5008018042522053,0.03528387719188686,0.353350002309071,1.0010651167681317,4.4380060988437435
26,23,female,207,75,125,change,valid,clock,5,2,1,0.07707648057976257,0,j,change,0.37441981444317207,0.22837083709281208,0.49978222996514887,0.035315307918608596,0.35330959137490936,1.0011023204856428,4.07213063123163
26,23,female,208,45,95,change,valid,clock,2,0,2,0.09267093183780162,1,j,change,1.1702410031148247,0.10757820387549588,0.4997376496489778,0.03534962514004292,0.3533025354977326,1.001048439240094,4.861339500597751
26,23,female,209,165,165,same,valid,anti,4,0,2,0.07213544205706057,1,j,change,1.348422113376273,0.10448671383767273,0.5000269406227744,0.03535251163611974,0.35331857158234925,1.00103528965019,5.014784949684781
26,23,female,210,45,95,change,valid,clock,5,1,3,0.12316611331470995,1,j,change,0.8613074284276081,0.15207636254266538,0.49991083936720315,0.03530889348485289,0.35332081663409554,1.001047477074735,4.590695927604429
26,23,female,211,45,45,same,catch,clock,4,0,1,0.06515493423921725,0,j,change,0.5423400753311398,0,0.49997530442897187,0.03532364668262744,0.35331921302622504,1.0010631924383233,5.756810525316723
26,23,female,212,75,75,same,valid,clock,1,2,3,0.21551632345153848,1,f,same,1.4720965705873823,0.23496479123036063,0.5000038486605263,0.03534288998480406,0.35331921302622504,1.0010708897589211,5.308948007163508
26,23,female,213,135,85,change,valid,anti,1,0,1,0.1333374813343653,0,j,change,0.8296396884124988,0.10138485869757782,0.5002992333470502,0.03531947730061802,0.3533070256016799,1.0010708897589211,4.578825696735748
26,23,female,214,75,75,same,catch,clock,2,1,2,0.37708693610693444,1,f,same,1.9488759987275444,0,0.49985054368744386,0.03532813678657476,0.3533237031297176,1.0010779456360979,7.464329011715108
26,23,female,215,15,15,same,valid,clock,4,0,2,0.1724552657374261,1,j,change,2.2820824331743097,0.10419125952261826,0.5002091105488944,0.03535379452250709,0.3532897066293117,1.0010782663580358,6.110095741842088
26,23,female,216,15,65,change,valid,clock,4,2,3,0.054079451745565166,1,j,change,1.8668023533277847,0.2331760733442946,0.49959556993553633,0.03532813678612001,0.3533371734411048,1.0010647960466486,5.5322415111381815
26,23,female,217,165,165,same,valid,clock,4,0,1,0.07271338256214221,0,j,change,1.283373017298345,0.10118563561730917,0.4996844098463953,0.03533294761200523,0.3532980453937853,1.001049722126936,4.9551566917944
26,23,female,218,15,65,change,valid,clock,2,1,3,0.04376760762124832,1,j,change,1.6331896286301344,0.1495984447117423,0.5003653020171441,0.03533070256025894,0.3533034976626368,1.001071210480859,5.2977795153769875
26,23,female,219,135,85,change,valid,anti,3,0,2,0.07776378718472188,1,j,change,0.9158897717998116,0.1039133887090698,0.4995958906570195,0.03532557101289058,0.3533002904459863,1.0010817942966241,4.5904133717854165
26,23,female,220,165,165,same,valid,clock,3,2,2,0.04411751499719685,1,j,change,1.0635628717163854,0.23142439630417896,0.49995253318820687,0.03532076018746011,0.35333781488452587,1.0010744176975095,4.69680862664427
26,23,female,221,105,105,same,valid,clock,5,0,2,0.056485505944692704,1,f,same,1.137795192253634,0.10099727862887833,0.49988678523959607,0.03532941967341685,0.3533217787994545,1.0010638338812896,4.802737231427727
26,23,female,222,135,85,change,valid,anti,4,2,2,0.048442767853885016,1,j,change,1.2259526075954454,0.22968848542292586,0.49993810071191547,0.03532172235281905,0.3533204959126124,1.0010651167685864,4.861882803159006
26,23,female,223,15,15,same,catch,anti,4,0,2,0.0527651342158606,1,j,change,1.0443965428767115,0,0.49969050355866784,0.035336475550593605,0.35333332478057855,1.0010548536738497,6.215842176699425
26,23,female,224,45,95,change,valid,clock,4,0,2,0.047685223196822335,1,j,change,1.628132168130378,0.0981175332363871,0.5001141769257629,0.035352511635664996,0.35332562745998075,1.001060305943156,5.274018848173
26,23,female,225,75,125,change,valid,clock,5,1,2,0.04301134585102773,1,j,change,0.9435391896263354,0.14724416253102118,0.4998819744141656,0.035321722352364304,0.3533208166345503,1.0010891708957388,4.578741026206899
26,23,female,226,15,15,same,valid,clock,2,1,2,0.03882656909900106,1,f,same,1.287574150857381,0.1450160308095611,0.4995580454960873,0.035348342253655574,0.3532887444644075,1.00108083213172,4.920213741770112
26,23,female,227,105,105,same,valid,anti,3,2,4,0.08906537847724394,1,f,same,1.2574840408879027,0.22801929142471136,0.49994836380619745,0.035324288126048486,0.3533233824077797,1.0010439491361467,4.943831687817237
26,23,female,228,45,45,same,valid,clock,5,2,4,0.06946543389767612,1,f,same,2.082202896245235,0.22643315509785428,0.5002059033317892,0.035315307918608596,0.35331408147840193,1.0010635131598065,5.768854266625112
26,23,female,229,45,45,same,valid,anti,4,0,4,0.054556044192850095,1,f,same,1.2112180112176247,0.09540711844276402,0.4998954447255528,0.03533262689006733,0.353269180440293,1.0010833979054041,4.849862153812865
26,23,female,230,45,355,change,valid,anti,4,0,3,0.2296287197300444,1,j,change,2.7677060829360016,0.09278711935758231,0.49992783761717874,0.03534545575848824,0.35332755178978914,1.001056457282175,6.592903134349399
26,23,female,231,105,105,same,valid,anti,3,1,3,0.3546688099427229,1,f,same,1.2891498565732036,0.14286175251127334,0.49956349776539355,0.03529702678133617,0.35332434457313866,1.0010635131598065,5.249409230626952
26,23,female,232,45,95,change,catch,clock,3,0,2,0.10755530525011636,1,j,change,1.4057851138945807,0,0.5001523428077235,0.03531049709317813,0.35334679509196576,1.0010542122304287,6.628594328100917
26,23,female,233,15,15,same,catch,anti,3,0,2,0.17444149522998487,1,j,change,1.1071463850817054,0,0.5000901227981558,0.03535315307908604,0.35331728869550716,1.0010522879001655,6.44014146392783
26,23,female,234,15,325,change,valid,anti,1,2,2,0.05754709477469078,1,j,change,1.0100241567588455,0.2249096565703363,0.4999650413346899,0.03536854772073639,0.35330862921000517,1.0010603059427012,4.708035169058803
26,23,female,235,45,95,change,valid,clock,2,2,2,0.16360719545536995,1,j,change,0.9947148270925936,0.22330868566268608,0.49996279628248885,0.035320118744039064,0.3533102328183304,1.0010599852207633,4.755244761973245
26,23,female,236,135,185,change,valid,clock,3,2,2,0.07428652250428058,1,j,change,0.798956884740619,0.22173585361509837,0.5002982711816912,0.03534641792339244,0.3532996490021105,1.0010471563527972,4.449726231955992
26,23,female,237,15,15,same,valid,clock,2,0,2,0.10815729988235034,1,f,same,1.330757403539792,0.09009151139428945,0.4999297619474419,0.035306648432651855,0.3533249860165597,1.0010843600703083,5.026717400563484
26,23,female,238,15,15,same,valid,anti,3,2,2,0.1469707193919021,1,f,same,0.9190222606516727,0.2201728313555499,0.4992302679183922,0.035393884735185566,0.35328136786529285,1.001078587079519,4.684302083921466
26,23,female,239,105,155,change,valid,clock,4,1,2,0.03880700507488655,1,f,same,1.1410162002944162,0.14062647940270953,0.5000060937122726,0.035293819564230944,0.3533535302481141,1.0010689654291127,4.766850076716764
26,23,female,240,15,65,change,valid,clock,1,0,1,0.21412407054822324,0,j,change,1.050014624909636,0.08747029376626678,0.5004233526451571,0.035314345753249654,0.3533156850871819,1.0010782663580358,4.850655619301051
26,23,female,241,165,165,same,catch,anti,4,1,1,0.12557890266998584,0,j,change,0.6921511061050296,0,0.49968120262929006,0.035303761937484524,0.35332434457313866,1.0010721726457632,5.908880719750869
26,23,female,242,135,135,same,valid,clock,1,0,2,0.02637422834368408,1,f,same,1.0695966090734146,0.08994998023916033,0.5004272013056834,0.035315307918608596,0.353314722921823,1.0010699275935622,4.697567774910112
26,23,female,243,165,165,same,valid,clock,5,1,2,0.10189777444793435,1,f,same,1.039692838412975,0.1384322568344907,0.4991455973890879,0.03528900873925522,0.35330125261043577,1.001057419447534,4.73128107793309
26,23,female,244,105,105,same,valid,clock,4,2,2,0.3412097237692251,1,j,change,1.4899113781798405,0.21863769614504797,0.49948139300977346,0.03532396740456534,0.35334615364899946,1.0010529293435866,5.391404273552325
26,23,female,245,75,75,same,valid,clock,3,2,3,0.07664863783111286,1,f,same,0.9725074150860564,0.2171781758878139,0.4997004459314667,0.035306327711168706,0.35331985446919134,1.0010647960466486,4.6497382269476475
26,23,female,246,165,165,same,valid,anti,4,1,3,0.13437309170558365,1,f,same,0.960740135883043,0.13636721234760052,0.4994810722882903,0.03531530791815385,0.3533249860165597,1.0010407419194962,4.660664573850681
26,23,female,247,165,165,same,valid,anti,5,1,2,0.06835413320459338,1,f,same,1.1668788775250505,0.13438935764065169,0.5002216186953774,0.03534192781944512,0.35326853899687194,1.0010910952264567,4.826779492284913
26,23,female,248,165,215,change,catch,clock,1,0,2,0.06486339821321963,1,f,same,0.9846839351785093,0,0.4997889651208425,0.03537271710274581,0.3533038183845747,1.0010635131598065,6.156930731810007
26,23,female,249,105,105,same,valid,anti,2,0,2,0.19126591421081685,1,j,change,1.4648325447856223,0.08740514939042954,0.5000763317648307,0.0353448143150672,0.35329066879467064,1.0010651167681317,5.2498601653387595
26,23,female,250,105,55,change,valid,anti,2,2,2,0.0847738013990238,1,f,same,1.1115489318685832,0.21577827138588584,0.49978832367742143,0.03531466647518755,0.3533227409648134,1.0010542122304287,4.779055461762255
26,23,female,251,105,105,same,valid,clock,1,1,1,0.01662781657796586,0,j,change,1.4003671622031106,0.1323619197439625,0.504291897800158,0.03535507740934918,0.35330510127096204,1.0010513257352613,5.019183647811587
26,23,female,252,45,355,change,valid,anti,5,2,2,0.08065797981271317,1,j,change,1.0848366628520125,0.21442268287853342,0.4992030065736799,0.03532557101289058,0.35331087426175145,1.0010734555326053,4.755118718344875
26,23,female,253,105,105,same,valid,clock,1,0,1,0.0406412124821145,0,j,change,0.24416254432389906,0.08499368658203847,0.4995224453878109,0.03536052967865544,0.3533076670446462,1.0010606266646391,3.895566599785525
26,23,female,254,105,55,change,valid,anti,4,1,2,0.13543468053558172,1,j,change,0.8695483725296071,0.13566909034101965,0.4998909546216055,0.0353367962725315,0.35330413910605785,1.0010532500655245,4.6257912204359855
26,23,female,255,45,45,same,valid,clock,5,1,2,0.08043475750901052,1,f,same,0.8980554001836936,0.1337940396576049,0.5002459935444676,0.03533230616858418,0.3532913102380917,1.0010776249146147,4.578847826533092
26,23,female,256,45,45,same,valid,anti,1,2,3,0.09133127729319312,1,f,same,0.91795650244012,0.21298722586457164,0.5004810825512322,0.035312742144924414,0.3533224202428755,1.0010795492448779,4.555828347179613
26,23,female,257,165,215,change,valid,clock,1,0,2,0.09669823423473645,1,j,change,1.4307109630376544,0.08716437561305891,0.4999220646268441,0.035329098951478954,0.3533025354977326,1.0010734555326053,5.085698442062494
26,23,female,258,75,75,same,valid,anti,4,1,1,0.07748957013018298,0,j,change,1.0508812149450932,0.13185795294795585,0.49957376085967553,0.03531787369229278,0.3533031769406989,1.0010987925470545,4.696736143539965
26,23,female,259,135,85,change,catch,anti,4,1,1,0.060029480738649,0,j,change,1.0887052080074682,0,0.49933482319238465,0.035317232248416985,0.35330959137490936,1.0010747384194474,6.274533927224184
26,23,female,260,15,15,same,valid,clock,3,2,2,0.09164815033363993,1,f,same,1.0721877196942842,0.21156860231447908,0.4994150036177416,0.03529574389494883,0.3533086292095504,1.0010894916176767,4.778499651054517
26,23,female,261,165,165,same,valid,clock,1,1,2,0.1377095595589708,1,j,change,2.8200308662567295,0.13503524240666331,0.4994332847545593,0.03532108090894326,0.35330510127096204,1.0010837186268873,6.545217590430639
26,23,female,262,165,165,same,valid,anti,1,0,1,0.08692071246377964,0,j,change,0.8149551246197007,0.08482026435487347,0.5000862741376295,0.03532717462121582,0.353327231068306,1.0010426662493046,4.472794461008107
26,23,female,263,45,355,change,catch,anti,5,0,2,0.08816831988042395,1,f,same,1.144929005044105,0,0.5002508043698981,0.03533872060233989,0.3533224202428755,1.0010439491361467,6.3338706490894765
26,23,female,264,45,45,same,valid,clock,2,1,3,0.10589396684008534,1,f,same,0.8616073032180793,0.1332498165358089,0.5004717816218545,0.03534577647997139,0.35329772467230214,1.0010538915084908,4.568065483673763
26,23,female,265,75,25,change,valid,anti,1,2,2,0.04246932617661514,1,j,change,1.6123253991063393,0.21015220774920268,0.4989916509730392,0.035295102451073035,0.35333011756392807,1.0010526086221034,5.237156378770123
26,23,female,266,105,105,same,valid,anti,2,2,2,0.04787124178301383,1,f,same,0.8916255715262196,0.20875222257587447,0.4996648458227355,0.03535764318303336,0.35329195168151273,1.0010410626405246,4.543118787620642
26,23,female,267,45,45,same,catch,clock,3,2,1,0.050207699373459036,0,j,change,1.0180345019575725,0,0.5000695966086823,0.03533198544710103,0.35329002735079484,1.0010731348111221,6.192699540213198
26,23,female,268,75,75,same,valid,clock,5,2,3,0.11970552616321584,1,f,same,0.9932199432450943,0.20741741686455126,0.5001334202274847,0.035342248541383015,0.35331183642665565,1.0010715312023422,4.697066807613282
26,23,female,269,165,165,same,valid,anti,5,0,1,0.15360099911231373,0,j,change,1.0797811266825192,0.08693578470554619,0.49985824100804166,0.03536854772073639,0.35329034807273274,1.0010901330610977,4.82586190749862
26,23,female,270,45,95,change,catch,clock,1,2,2,0.06138998219375935,1,j,change,2.6026492253927245,0,0.49974566769105877,0.03533872060279464,0.3532855372473023,1.0011071313110733,7.782365309714805
26,23,female,271,15,15,same,valid,anti,3,0,2,0.05705606985020495,1,j,change,5.129613581666035,0.08921570120738102,0.49988454018739503,0.035355718852770224,0.35332434457313866,1.0010452320229888,8.807010848091068
26,23,female,272,165,165,same,valid,clock,2,1,1,0.08243381586953547,0,j,change,1.1873482986356976,0.1313939927394981,0.49929184648453884,0.03538714957949196,0.3533317211722533,1.0010564572826297,4.873219353116838
26,23,female,273,135,135,same,valid,anti,4,0,2,0.61078336916853,1,j,change,0.9387370235999697,0.08688796965751897,0.49890345250514656,0.0352854808002121,0.3533237031297176,1.0010696068725338,5.143114040939508
26,23,female,274,75,25,change,catch,anti,2,0,1,0.08397712869418683,0,j,change,0.32226886228500007,0,0.5000962165104283,0.03533262689052208,0.353315364365244,1.0010291959379174,5.520850759212408
26,23,female,275,45,45,same,valid,clock,1,2,2,0.1977316636989599,1,f,same,1.0529338338301386,0.20613514496243227,0.5006331046374726,0.035280028531360585,0.3533516059173962,1.0010856429571504,4.862002753075103
26,23,female,276,75,75,same,valid,anti,2,2,1,0.24160061937800492,0,j,change,1.0784251153313562,0.20489265653326377,0.5003152694316668,0.03530696915458975,0.35322107218553356,1.0011542774013833,4.908862117892113
26,23,female,277,165,165,same,valid,anti,1,1,3,0.06480149892513509,1,f,same,1.2288426308414273,0.1344563350190187,0.4996439989117789,0.03533038183877579,0.35332081663409554,1.0010420248058836,4.873245973018129
26,23,female,278,75,75,same,valid,anti,5,2,2,0.04762749329029248,1,f,same,1.022240125620101,0.20940201425228222,0.49983226255017144,0.03534609720190929,0.35329708322842635,1.0010737762540884,4.6727945892967
26,23,female,279,135,135,same,catch,anti,2,0,2,0.0470835492860715,1,j,change,1.0452137417705671,0,0.5003101378847532,0.035327495343153714,0.3533076670446462,1.0010445905795677,6.227902274814824
26,23,female,280,45,95,change,valid,clock,5,0,2,0.32744114115348566,1,j,change,1.0271959173410323,0.08466604294053767,0.5005080231740067,0.03531755297035488,0.35333492838935854,1.001082115018562,4.9560925577170565
26,23,female,281,165,115,change,valid,anti,5,2,2,0.05855159514158004,1,j,change,1.2438386154062755,0.20812796908223496,0.4996808819078069,0.03534898369662187,0.3533144022003398,1.0010663996549738,4.908222598820885
26,23,female,282,45,355,change,catch,anti,3,1,1,0.04598379457365809,0,j,change,0.27294443047549066,0,0.4995817789022112,0.03533294761200523,0.3532807264218718,1.0010872465654757,5.438145612783956
26,23,female,283,165,215,change,valid,clock,3,2,2,1.3579738470693883,1,j,change,0.7262797437301742,0.20690805195634732,0.500419824706114,0.035342248541383015,0.35328008497845076,1.0010920573913609,5.698091834168736
26,23,female,284,135,185,change,valid,clock,2,2,3,0.0987024241430845,1,j,change,0.8198891072647712,0.20573051493044517,0.4995942870482395,0.03532332596114429,0.3532781606481876,1.001102961929064,4.508222983687119
26,23,female,285,75,75,same,valid,anti,3,2,3,0.197664632863507,1,f,same,1.0692566440707196,0.20458475931788309,0.49907696294485504,0.035334551220785215,0.3532553894074226,1.0011228466742068,4.8491341155522605
26,23,female,286,75,25,change,valid,anti,5,0,2,0.10660628973755593,1,j,change,1.0934265521646012,0.08242109214045241,0.4995262940478824,0.03533390977690942,0.35332915539856913,1.0010753798628684,4.790564239273863
26,23,female,287,135,85,change,valid,anti,2,0,2,0.06340764241349461,1,j,change,1.1832013670441484,0.08016017588529706,0.4997148784077581,0.035334871942268364,0.35333813560646377,1.0010789078014568,4.837604491130151
26,23,female,288,135,135,same,valid,clock,5,0,2,0.05604675865833997,1,f,same,1.050980317950689,0.07794119340670144,0.5002488800400897,0.03533807915937359,0.35329708322842635,1.0010487599615772,4.696794514889461
26,23,female,289,75,125,change,valid,clock,4,1,3,0.14505729372422138,1,j,change,2.3010579326023617,0.1326642385071442,0.5002010925068134,0.03535026658391871,0.3533275517902439,1.001038817589233,6.03984582266412
26,23,female,290,135,185,change,valid,clock,1,0,2,0.16776567302804324,1,j,change,1.04213994499014,0.07584334604686085,0.49961705828945924,0.03536854772073639,0.35331344003543563,1.001071531202797,4.7667025447340166
26,23,female,291,75,75,same,valid,anti,1,2,4,0.2403465975276049,1,f,same,0.9186024359455587,0.20336742977750785,0.5004650464661609,0.035309855649302335,0.3532470506434038,1.001173199981622,4.76787221677705
26,23,female,292,45,45,same,valid,clock,4,2,4,0.18773476828528146,1,f,same,1.0808013424129967,0.2021623709593113,0.4998284138900999,0.035327174621670565,0.35330542199289994,1.0010750591409305,4.861588059915903
26,23,female,293,15,15,same,valid,clock,3,1,2,0.048303895357548754,1,f,same,1.5633508746723237,0.13087748895580342,0.4995731194162545,0.03535732246155021,0.3532977246718474,1.0010914159479398,5.226536962534283
26,23,female,294,135,185,change,catch,clock,1,2,1,0.06592755281644713,0,j,change,1.1234817034687694,0,0.499829696776942,0.03534770081023453,0.3533057427143831,1.0010747384194474,6.309874251435758
26,23,female,295,135,185,change,catch,clock,5,0,1,0.021514973854664277,0,j,change,0.9905762342650632,0,0.50053432235336,0.03530921420588129,0.3532961210630674,1.001093340278203,6.157184743397011
26,23,female,296,75,75,same,valid,clock,1,1,3,0.29814481739367693,1,f,same,1.0596256921176064,0.1290911961523653,0.500158436519996,0.03529510245152778,0.35333268333761225,1.0010420248058836,4.944439455440261
26,23,female,297,135,185,change,valid,clock,2,1,2,0.08823887865446522,1,j,change,1.096404773878021,0.12739791235865047,0.49912282614832293,0.03534032421111988,0.35331087426175145,1.001071210480859,4.766090287007501
26,23,female,298,105,155,change,valid,clock,2,1,2,0.033855703457902564,1,j,change,1.106266324734861,0.1257823446200198,0.5002568980821707,0.03531915657913487,0.3532986868367516,1.0010904537830356,4.743600639903889
26,23,female,299,45,355,change,valid,anti,2,2,3,0.0753202085461453,1,j,change,1.2176225028611043,0.2009589951325615,0.5004737059521176,0.03532621245631162,0.35328682013414436,1.0010840393488252,4.8857611752268895
26,23,female,300,165,165,same,catch,anti,3,2,3,0.06663859282707563,1,f,same,0.9249472733522452,0,0.49972674511082005,0.03535347380102394,0.35332594818191865,1.0010615888295433,6.121647816783025
26,23,female,301,105,55,change,catch,anti,3,2,1,0.03603917679674851,0,j,change,1.2393991856233697,0,0.5068878192464581,0.035299271833537205,0.3533224202428755,1.0010766627497105,6.423260597927765
26,23,female,302,135,85,change,valid,anti,3,2,2,0.009563921118115104,1,j,change,1.036058740820863,0.19974618040599,0.4994627911510179,0.03531017637169498,0.35331344003543563,1.0010846807922462,4.6843607759929
26,23,female,303,15,65,change,catch,clock,5,0,1,0.03390733965215986,0,j,change,0.8530135652454192,0,0.4995153895101794,0.03532396740411059,0.35330670487974203,1.0010619095514812,6.01529746296319
26,23,female,304,105,155,change,valid,clock,5,0,1,0.5972534034990531,0,j,change,1.0501368198774799,0.07381174866954077,0.4995814581807281,0.03532813678612001,0.35332017519112924,1.001024064390549,5.261286196650872
26,23,female,305,15,15,same,catch,clock,4,0,1,0.04166303182091724,0,j,change,0.9131941059049495,0,0.5003617740785558,0.035365661225569056,0.3532964417850053,1.0010651167685864,6.098925325724849
26,23,female,306,75,75,same,valid,anti,3,0,1,0.022521077830333525,0,j,change,0.8821979571312113,0.07567400935560414,0.4995410472461117,0.035379131536956265,0.3532877822995033,1.0010651167685864,4.531618348873508
26,23,female,307,45,355,change,valid,anti,4,2,1,0.05007844852798371,0,j,change,0.8327657628301495,0.1985594297207559,0.49918055605439804,0.03534770081023453,0.35331344003543563,1.0010631924383233,4.507136378564155
26,23,female,308,75,125,change,catch,clock,4,2,1,0.061836747522647784,0,j,change,0.79097540449402,0,0.5004634428578356,0.03536405761678907,0.3532569930162026,1.0010782663580358,5.980922190349702
26,23,female,309,165,115,change,valid,anti,2,1,2,0.018044444330371334,1,j,change,1.1367733729143765,0.12421708914341506,0.500203337558105,0.035335834107627306,0.35331311931349774,1.0010715312023422,4.779001901238189
26,23,female,310,165,165,same,valid,clock,1,0,2,0.09363021044509878,1,f,same,1.3035945205338066,0.07765847851576853,0.4998094913098612,0.03527329337566698,0.35334390859679843,1.0010837186268873,4.967158418559848
26,23,female,311,45,45,same,valid,anti,1,1,2,0.05253902541653588,1,f,same,0.8826646072056974,0.12260017285128905,0.5000400902126785,0.03532525029140743,0.3533224202428755,1.001045552744472,4.5315558081415475
26,23,female,312,135,135,same,catch,anti,4,0,2,0.05869335413353838,1,f,same,1.251104886259327,0,0.49992815833911664,0.03535796390451651,0.3532864994126612,1.0010532500650697,6.439449025775957
26,23,female,313,75,75,same,valid,clock,4,0,2,0.05174042838143578,1,f,same,1.1378000030790645,0.07566084617509224,0.5003556803662832,0.03533839988085674,0.35329740395036424,1.0010449113015056,4.790844550040674
26,23,female,314,15,15,same,valid,anti,1,1,2,0.35464988736248415,1,f,same,0.9617943481139264,0.12098255887999596,0.4999381007114607,0.035371754937841615,0.3532476920868248,1.0010776249150695,4.944246380976438
26,23,female,315,15,15,same,valid,anti,4,1,1,0.10416752192440981,0,j,change,1.077113363574881,0.11935276283898723,0.49925720854071187,0.03534032421111988,0.3533253067384976,1.0010631924378686,4.76629939755594
26,23,female,316,15,15,same,catch,anti,5,2,2,0.07123389335629327,1,f,same,0.9248446424080612,0,0.5003909597535312,0.03529574389449408,0.35334166354505214,1.0010846807917915,6.133794189036053
26,23,female,317,15,325,change,catch,anti,2,2,2,0.3273061173172209,1,j,change,1.0303223124801661,0,0.5003014783983417,0.03533134400367999,0.35329932828017263,1.001083077183921,6.4640172702224845
26,23,female,318,105,105,same,valid,clock,3,1,3,0.08855222375586891,1,f,same,1.048559510553332,0.12211199671950201,0.49991757452289676,0.03535764318303336,0.35328649941220647,1.0010667203769117,4.814072177777234
26,23,female,319,105,55,change,valid,anti,3,0,2,0.1375735735582566,1,j,change,1.057197828842618,0.0737208112120509,0.49972417933713587,0.035257898734016635,0.35334936086564994,1.0010513257352613,4.802119842153843
26,23,female,320,15,325,change,valid,anti,3,0,2,0.09860428330239301,1,f,same,0.8989726642480491,0.0717318905005726,0.5004082787249899,0.03532685389973267,0.35331728869550716,1.0010404211975583,4.614823821155369
26,23,female,321,75,75,same,catch,clock,3,1,1,0.0916895234331605,0,j,change,1.2724941372071044,0,0.49995413679698686,0.035305365545355016,0.35333492838935854,1.0010740969760263,6.474938485577695
26,23,female,322,135,185,change,valid,clock,3,1,2,0.29124962154855893,1,j,change,0.971166798376089,0.12054273425828547,0.5002690855071705,0.03533134400367999,0.3532685389973267,1.0010955853299492,4.849877869175998
26,23,female,323,75,75,same,valid,anti,4,2,2,0.08633282958635391,1,f,same,0.8493826748704123,0.20283202385386903,0.49970076665340457,0.035359888235234394,0.3532861786907233,1.0010776249146147,4.543236813206477
26,23,female,324,105,155,change,valid,clock,4,0,1,0.08264036064520042,0,f,same,2.861896914913814,0.06970916061792126,0.5001882636383925,0.03533519266375151,0.35325282363373844,1.0010962267733703,6.533930110892925
26,23,female,325,45,45,same,catch,anti,4,2,2,0.170153766812291,1,j,change,1.18584988684961,0,0.5002883288088924,0.035331985446646286,0.3532980453937853,1.0010676825422706,6.4168583513364865
26,23,female,326,105,155,change,valid,clock,4,2,2,0.09290537940114518,1,f,same,0.9977061983959175,0.20170415329493385,0.4995968528219237,0.03531755297080963,0.3532977246718474,1.001059343777797,4.68470491037715
26,23,female,327,75,125,change,valid,clock,1,2,2,0.49105956186849653,1,j,change,1.1053166677784247,0.200572900981152,0.49927035813061593,0.03534481431461245,0.3532855372473023,1.0010869258439925,5.155210059885576
26,23,female,328,75,25,change,valid,anti,2,1,2,0.1537828483164958,1,j,change,1.1018701923817389,0.11897510145426773,0.4996125681855119,0.03530985564975708,0.353318571582804,1.001045552744472,4.8142469711042395
26,23,female,329,75,125,change,valid,clock,1,0,2,0.09900197821161782,1,j,change,0.9797185218062623,0.07159565251107919,0.4998758807014383,0.03536758555583219,0.35331311931349774,1.0010757005848063,4.672813191155456
26,23,female,330,105,105,same,valid,clock,3,2,3,0.07462552534252609,1,f,same,1.0740132676155554,0.19943281437218,0.4997604208897428,0.03534898369707662,0.3532557101293605,1.0010792285233947,4.720250175755609
26,23,female,331,135,85,change,catch,anti,3,1,2,0.1638875062221814,1,j,change,0.9908196620363015,0,0.4998274517251957,0.03535603957425337,0.3533144022003398,1.0010654374900696,6.238844016359053
26,23,female,332,165,165,same,catch,anti,2,0,1,0.09577134851951996,0,j,change,0.8567730650215708,0,0.5008983414841168,0.03532043946552221,0.35330317694115365,1.001078587079519,6.087187552918749
26,23,female,333,45,355,change,valid,anti,2,1,2,0.037384925054084306,1,j,change,1.0543466129224726,0.11748922400532945,0.49981205708354537,0.03533390977690942,0.35328040570038866,1.0010631924378686,4.696375973069735
26,23,female,334,75,25,change,valid,anti,3,0,1,0.09197721079863186,0,j,change,0.7682987766388578,0.06961047456552752,0.4996096816903446,0.03536117112162174,0.3532986868367516,1.0010490806830603,4.44923616919732
26,23,female,335,45,45,same,catch,anti,3,1,2,0.06728484705445226,1,j,change,1.1639292000431851,0,0.49989063390012234,0.03531723224887173,0.3533147229222777,1.001046194187893,6.344903154875283
26,23,female,336,75,125,change,valid,clock,2,1,2,0.017698385615403822,1,j,change,0.8334508243833625,0.11606839892026125,0.5006350289677357,0.03529702678133617,0.3533455122055784,1.0010519671786824,4.473835523648631
26,23,female,337,165,165,same,valid,clock,4,2,3,0.06511259897479249,1,f,same,0.9304646487712489,0.19833116233004486,0.49915778481363304,0.035353794522961834,0.35328008497845076,1.001092698834782,4.637174916484128
26,23,female,338,15,15,same,valid,anti,1,2,3,0.018390503045793594,1,f,same,1.0897318381712466,0.19727387480592098,0.4999958306179906,0.03530279977212558,0.353316967974024,1.0010926988343272,4.696921199960798
26,23,female,339,45,45,same,valid,anti,2,0,2,0.02462405002233936,1,f,same,0.9785587921364822,0.07146427167710606,0.49989384111722757,0.035330061116837896,0.3533358905547175,1.0010702483155,4.613878333581397
26,23,female,340,15,15,same,valid,clock,1,2,3,0.048817050078923785,1,f,same,0.9922350069018648,0.1962521814288766,0.5003794137719524,0.035327495343153714,0.35330542199289994,1.0010622302729644,4.637782363385213
26,23,female,341,15,15,same,valid,clock,4,2,3,0.19532240228227238,1,f,same,0.9561906985572932,0.19525809827747348,0.5005093060608488,0.03530889348439814,0.35332819323366493,1.0010647960466486,4.767845917597697
26,23,female,342,15,15,same,catch,anti,4,2,2,0.02146141333059859,1,f,same,0.9951718555162188,0,0.4995362364202265,0.035325891734828474,0.35328778229904856,1.0010731348106674,6.133300598338337
26,23,female,343,135,85,change,valid,anti,2,1,2,0.08388732661796894,1,j,change,2.412539833635492,0.11469140112593872,0.5000574091841372,0.03535636029619127,0.35331760941744506,1.0010647960466486,6.098068678062191
26,23,female,344,45,45,same,valid,anti,4,2,3,0.009833006624830887,1,f,same,1.0103987597049127,0.19428427929929531,0.4996978801577825,0.03533423049884732,0.35326661466706355,1.0010882087308346,4.62522610879887
26,23,female,345,45,45,same,valid,anti,5,1,2,0.11165733580310189,1,f,same,0.8406500644009611,0.11327154863631385,0.5000821047556201,0.03529863039011616,0.35333140045077016,1.0010689654291127,4.579274707116838
26,23,female,346,75,25,change,valid,anti,2,0,2,0.07566851231331384,1,j,change,1.1393699358045524,0.06951557234064387,0.4996193033412055,0.035348342253655574,0.3533140814788567,1.0010628717163854,4.837664145366489
26,23,female,347,15,65,change,valid,clock,5,1,2,0.1256452920620177,1,j,change,1.143393389540961,0.1118561534831337,0.5000048108258852,0.03533358905542627,0.35330510127096204,1.0010384968672952,4.861740723445564
26,23,female,348,165,215,change,valid,clock,1,2,2,0.07805371960193952,1,j,change,1.0036122885162513,0.19324332739181196,0.4994220594953731,0.03530440338090557,0.35334358787486053,1.001057419447534,4.696282963776412
26,23,female,349,75,25,change,valid,anti,5,1,3,0.03700743561194031,1,j,change,2.610496964689901,0.11042542960246711,0.4999265547307914,0.03535315307908604,0.3533127985920146,1.001068003263299,6.297917104986482
26,23,female,350,105,105,same,valid,clock,2,1,3,0.19477236456577884,1,f,same,1.4594508346463044,0.1089939528064263,0.5003713957294167,0.03533968276769883,0.3533265896253397,1.001036572537032,5.226689305342461
26,23,female,351,165,165,same,valid,clock,1,2,2,1.163563898026041,1,f,same,1.483711827703246,0.19220825898230198,0.5076427981302913,0.0353072898760729,0.353314722921823,1.0010875672874135,6.247588493531566
26,23,female,352,165,165,same,valid,clock,4,1,2,0.24864206431857383,1,f,same,0.9943026997070774,0.1076354108095978,0.4990217988124641,0.03533166472516314,0.35330510127096204,1.0010673618203327,4.860162131234119
26,23,female,353,105,155,change,valid,clock,5,2,2,0.23873112232104177,1,j,change,1.0102454547318303,0.19117132191446304,0.4999547782404079,0.03532653317779477,0.353304459827541,1.0010673618203327,4.826241321270572
26,23,female,354,105,105,same,catch,clock,3,1,2,0.05670680391813221,1,j,change,1.534387780759971,0,0.4998444499751713,0.035306969154135004,0.3533371734411048,1.001046194187893,6.6986951116882665
26,23,female,355,135,185,change,valid,clock,4,2,3,0.07936162269743363,1,j,change,1.2232133235493166,0.1901249892048076,0.5000057729907894,0.035354115243990236,0.35331921302622504,1.0010526086216487,4.9557747225117055
26,23,female,356,135,135,same,catch,anti,3,0,3,0.16104623267483476,1,f,same,1.155185364314093,0,0.5001103282652366,0.03532717462121582,0.35327206693591506,1.0010657582120075,6.404849568693862
26,23,female,357,75,75,same,valid,anti,1,1,4,0.18609908761072802,1,f,same,0.9858574558816144,0.10633539663379697,0.49938710082960824,0.03531819441377593,0.35329932828017263,1.001102961929064,4.778457636511575
26,23,female,358,15,15,same,catch,anti,1,1,1,0.21246882585046478,0,j,change,16.98263869289258,0,0.49947369568917566,0.03536085039968384,0.3532909895161538,1.0010468356317688,22.291842315251415
26,23,female,359,75,75,same,valid,clock,4,1,2,0.09786309545188487,1,j,change,1.1004968620586624,0.10507609926578998,0.49996600350004883,0.03535347380102394,0.353281688586776,1.0010991132685376,4.826023871957659
26,23,female,360,135,135,same,valid,anti,5,1,3,0.1052647108626843,1,f,same,0.7827100855429308,0.10384127571704675,0.49972931088450423,0.035336475550593605,0.3533140814788567,1.0010628717163854,4.496250763317676
26,23,female,361,75,125,change,valid,clock,2,0,2,0.2555090366549848,1,j,change,0.9368175042204712,0.0676408550176015,0.49946599836857786,0.03533872060233989,0.3533047805494789,1.0010789078014568,4.778230244826318
26,23,female,362,105,105,same,valid,anti,4,1,2,0.12834448589592284,1,f,same,1.106388840424188,0.10255393388109227,0.5005214934858486,0.03529157451248466,0.35331632653060296,1.0010875672874135,4.8388658895792105
26,23,female,363,75,75,same,valid,clock,4,2,3,0.1489749092997954,1,f,same,1.4924726616823136,0.18907529651051683,0.49973283882354735,0.03536854772073639,0.35330574271483783,1.0010449113010509,5.202827931524553
26,23,female,364,15,325,change,valid,anti,4,0,2,0.19695391357436165,1,j,change,0.9687302756155987,0.06585690662719693,0.5001263643498532,0.03532685389973267,0.35327367054469505,1.0010737762540884,4.767802940889396
26,23,female,365,15,65,change,valid,clock,3,2,2,0.1789187701733681,1,j,change,0.9426976158829348,0.1880681405530403,0.49972546222397796,0.0353743207115258,0.353306063436321,1.0010551743957876,4.696806381592523
26,23,female,366,135,85,change,valid,anti,1,2,3,0.6244095513488901,1,j,change,1.0098240264169362,0.1870978637043671,0.4997373289270399,0.03535026658391871,0.3533034976626368,1.0010494014049982,5.1908409579573345
26,23,female,367,165,215,change,catch,clock,2,0,1,0.15717961184964224,0,j,change,1.0390568472798805,0,0.49986754193741945,0.035354115244444984,0.3532999697240484,1.0010401004756204,6.2744322584453585
26,23,female,368,75,75,same,valid,clock,3,0,2,0.112069783910556,1,f,same,1.1318990445056443,0.06412395248124278,0.5004984015231457,0.03531049709272338,0.35331921302622504,1.0010554951172708,4.861910705946684
26,23,female,369,165,115,change,catch,anti,4,0,2,0.22289035679614244,1,j,change,1.6498969841895814,0,0.4995615734351304,0.035389715352721396,0.3532704633275898,1.0010644753251654,7.01624166765032
26,23,female,370,15,15,same,catch,anti,3,2,1,0.006210455014297622,0,j,change,0.3404335772529521,0,0.49992398895665247,0.035363095451884874,0.353270784049073,1.0010625509949023,5.497503823002717
26,23,female,371,135,135,same,valid,anti,4,1,2,0.01794566204671355,1,f,same,0.9100260169443573,0.10125866905220504,0.4999079528715811,0.03533775843789044,0.3532929138464169,1.0010773041931316,4.54367780554503
26,23,female,372,105,55,change,valid,anti,2,1,1,0.06769921949171476,0,f,same,1.1367842774525343,0.0999392093127324,0.4992754896779843,0.03529414028616884,0.35331857158234925,1.0010628717163854,4.778145895018497
26,23,female,373,45,355,change,catch,anti,4,2,1,0.004971827806002693,0,f,same,1.0628184766492268,0,0.49966484582228077,0.035321080909398006,0.35330959137490936,1.0010481185181561,6.251153956679445
26,23,female,374,105,155,change,valid,clock,3,2,2,0.21829377338053746,1,j,change,1.8251242475867002,0.1861571976985848,0.5001295715669585,0.03529991327695825,0.35330959137490936,1.0010930195567198,5.662098199853517
26,23,female,375,165,165,same,valid,anti,3,1,2,0.08661698901369164,1,f,same,1.079266047630881,0.10216466961399567,0.5002902531391555,0.03536020895671754,0.35328361291703914,1.0010846807922462,4.755609422546968
26,23,female,376,135,185,change,catch,clock,4,1,1,0.06265362569456556,0,j,change,1.152341204271579,0,0.4997501577950061,0.035405751438247535,0.35320407393555797,1.0010715312023422,6.427242999286591
26,23,female,377,135,185,change,valid,clock,5,0,1,0.0061687611932939035,0,j,change,2.1069356709244857,0.062351426475173416,0.5007806366197656,0.03534770081023453,0.3532864994126612,1.0010513257352613,5.734060772913381
26,23,female,378,45,95,change,valid,clock,3,1,2,0.20306526558351834,1,j,change,0.8754470860508263,0.10089856677202735,0.4996488097376641,0.035308252040977095,0.353339739214789,1.0010747384194474,4.6495592642390875
26,23,female,379,45,45,same,valid,clock,4,0,2,0.034685410498241254,1,f,same,0.8793316672908986,0.06396088860446128,0.4990493808786596,0.035378810815473116,0.35329772467230214,1.0010734555326053,4.50709083608308
26,23,female,380,165,215,change,catch,clock,4,2,2,0.12572835898254198,1,f,same,1.1904532054209085,0,0.5003165523185089,0.03530857276291499,0.35330253549727786,1.0010891708957388,6.4048854895240765
26,23,female,381,45,95,change,valid,clock,3,2,2,0.08612820914140684,1,j,change,0.8164355759904538,0.18523946527239812,0.49972321717223167,0.035311138536144426,0.3533374941630427,1.001091736669423,4.4726187055157425
26,23,female,382,165,165,same,catch,anti,5,0,1,0.04148535199874459,0,j,change,1.8719422393046443,0,0.4998595238953385,0.035343852149708255,0.35325795518065206,1.0010811528536578,7.028637240664466
26,23,female,383,105,55,change,catch,anti,5,0,1,0.12103299328236972,0,j,change,0.7351457744275649,0,0.4996199447841718,0.035303761937484524,0.3533445500406742,1.0010599852207633,5.968568631878497
26,23,female,384,15,65,change,valid,clock,3,0,2,0.09563311746615,1,j,change,0.7194268831499357,0.062219675605333175,0.49952821837814554,0.03533807915937359,0.35333813560646377,1.0010795492448779,4.401566019920665
26,23,female,385,135,135,same,valid,clock,4,2,2,0.01857459730172195,1,f,same,2.509935637569015,0.18433847010657103,0.499861127503209,0.03531659080545069,0.35331760941744506,1.0010721726457632,6.121371354676739
26,23,female,386,105,105,same,valid,clock,5,1,1,0.3188502896755381,0,j,change,0.831280179912028,0.09960887548981495,0.5001337409489679,0.03535796390497126,0.35330349766218205,1.0010737762545432,4.743649068881041
26,23,female,387,45,45,same,valid,clock,1,1,3,0.04828882143738156,1,f,same,0.8416311520836643,0.10179449499286893,0.5004015435692963,0.035323005239206395,0.3533182508608661,1.0010404211975583,4.543816998763305
26,23,female,388,165,215,change,catch,clock,3,2,1,0.08386936620263441,0,j,change,1.613458829596766,0,0.5002674818983905,0.035334871942268364,0.3533034976626368,1.0010513257352613,6.757882697962486
26,23,female,389,105,105,same,valid,anti,5,1,2,0.0002629917944432236,1,j,change,0.967196584442263,0.10055446777737409,0.5003383613943697,0.03539805411719499,0.35322363795921774,1.0010846807917915,4.6029584011125735
26,23,female,390,165,165,same,valid,clock,5,2,2,0.08797588685956725,1,f,same,0.9475693785184376,0.18337364715560014,0.49934348267879614,0.035357322461095464,0.3533281932332102,1.0010651167681317,4.6722179316784604
26,23,female,391,15,15,same,valid,clock,3,0,2,0.0011744828680093633,1,j,change,1.1489797201256806,0.060451463402980715,0.500078576816577,0.03533262689006733,0.35326918044074773,1.0010888501742556,4.755504867272521
26,23,female,392,45,45,same,valid,anti,5,2,3,0.3693360547640623,1,f,same,0.7949189985270095,0.18241316850747408,0.5003114207711405,0.035367264833894296,0.3532977246718474,1.001045552744472,4.767887290696763
26,23,female,393,135,135,same,valid,anti,3,1,3,0.707217008000498,1,j,change,1.1869355298067603,0.09929937569543996,0.49993489349481024,0.03531017637124023,0.3533278725121818,1.0010510050137782,5.438923683630037
26,23,female,394,135,135,same,catch,clock,4,0,1,0.06589708425462959,0,j,change,0.7937044254463217,0,0.49949518404309856,0.035354115243990236,0.35334005993627216,1.0010529293440413,5.991641671755588
26,23,female,395,45,45,same,valid,anti,4,1,2,0.03450740995413071,1,f,same,1.033859872839912,0.09810117774427897,0.5001786419875316,0.03533583410717256,0.3532765570398624,1.0010782663580358,4.720804703576505
26,23,female,396,165,165,same,valid,clock,2,2,2,0.008649222827443737,1,j,change,1.3081362605389586,0.1814503437144218,0.49916804790836977,0.03533390977736417,0.35330253549727786,1.001081473575141,4.931268377353717
26,23,female,397,45,355,change,catch,anti,3,0,1,0.06872200099587644,0,j,change,1.376944214950072,0,0.5001565121897329,0.035336154829110455,0.35327880209160867,1.0016520374806532,6.557808482960809
26,23,female,398,75,75,same,catch,anti,5,1,1,0.009492079456776992,0,j,change,1.3655852144729579,0,0.5001885843598757,0.035317232248416985,0.3533352491108417,1.001058381612438,6.5461489662498025
26,23,female,399,165,115,change,valid,anti,3,1,2,0.14535011263751585,1,j,change,1.0199341365914734,0.09695654654441047,0.5001016687788251,0.03533262689006733,0.35331536436569877,1.0010744176975095,4.838016618515667
26,23,female,400,75,25,change,valid,anti,5,2,2,0.07784909915699245,1,j,change,1.0373490042234152,0.18047864288284846,0.49965554489335773,0.0353226845172685,0.3533140814788567,1.0010830771834662,4.731279795045793
26,23,female,401,75,25,change,valid,anti,3,2,1,0.08807755563839237,0,j,change,3.327863531633284,0.1794903371267744,0.5020526188850454,0.03533839988085674,0.3532752741530203,1.001091095226002,7.065701123295639
26,23,female,402,165,215,change,valid,clock,5,1,2,0.023846941341162164,1,j,change,1.132192825583843,0.09585151966019922,0.4997690803752448,0.03536341617382277,0.35325955878943205,1.001068323985237,4.755236743930709
26,23,female,403,75,75,same,valid,anti,2,1,2,0.0731223027305532,1,j,change,0.8620332216369206,0.09477336487554511,0.4999063492637106,0.03533519266375151,0.3533012526108905,1.001013159852846,4.5434860139680495
26,23,female,404,15,15,same,catch,clock,5,1,1,0.02528120878696427,0,j,change,0.2691557450234541,0,0.5001189877507386,0.03532396740411059,0.3532967625069432,1.0010410626409794,5.450806101922808
26,23,female,405,45,45,same,valid,anti,3,1,1,0.07719097822655385,0,j,change,0.7885247699782667,0.09365732981223909,0.4996500926245062,0.035354115244444984,0.3533057427143831,1.0010667203769117,4.519679162839111
26,23,female,406,45,45,same,valid,clock,3,1,2,0.020616953092485346,1,f,same,1.1139800023606767,0.09547937536352691,0.499452207334798,0.03532813678657476,0.35329868683720633,1.0010214986173196,4.802149027828364
26,23,female,407,165,165,same,valid,clock,3,1,3,0.02086166375056564,1,f,same,1.3349396145185892,0.0944336698678856,0.49932263576783953,0.03535764318257861,0.35331664725254086,1.001048439240094,4.967102612983581
26,23,female,408,45,95,change,valid,clock,1,0,1,0.04511399732109567,0,j,change,1.2477850959339776,0.0586752437692063,0.499941949371987,0.03532717462121582,0.35330927065297146,1.001058381612438,4.896868729891139
26,23,female,409,75,75,same,catch,anti,1,1,2,0.008532480127996678,1,f,same,1.594540097909885,0,0.500022771240765,0.035330381838321046,0.35331857158234925,1.0010311202681805,6.733854228138171
26,23,female,410,165,115,change,catch,anti,1,1,2,0.13045258963529704,1,j,change,0.9626564480454363,0,0.5003919219184354,0.035250522134901985,0.35339458262524204,1.0010545329523666,6.216806586853636
26,23,female,411,105,55,change,valid,anti,5,0,2,0.20309028187602962,1,j,change,1.4774840537170348,0.06035137412002245,0.49994002504172386,0.035294781729589886,0.35332562745998075,1.0010452320229888,5.309108047292284
26,23,female,412,15,325,change,catch,anti,3,2,1,0.20127916643150456,0,j,change,0.8386198960347429,0,0.49929312937138093,0.03534128637647882,0.3533285139551481,1.0010522879001655,6.156126361784118
26,23,female,413,165,165,same,catch,clock,5,2,2,0.011879852519086853,1,f,same,2.3751873014730336,0,0.5000189225802387,0.03532396740411059,0.35331087426175145,1.0010667203769117,7.487619500905566
26,23,female,414,165,115,change,valid,anti,5,1,2,0.1693699229754202,1,j,change,0.9696841019535896,0.09334700786354377,0.5005542070989577,0.03531017637124023,0.35329708322842635,1.0010910952264567,4.75596446146983
26,23,female,415,15,325,change,valid,anti,4,2,1,0.026477180009806034,0,j,change,1.2439649797561287,0.1829510486002573,0.5001529842511445,0.0353371169944694,0.3532778399267045,1.0010901330610977,4.8737074915457015
26,23,female,416,15,325,change,valid,anti,5,1,2,0.037368247524682374,1,j,change,1.0407640488933794,0.09225900882422154,0.4992389274038942,0.03533358905542627,0.35330510127096204,1.0010731348106674,4.766182334135465
26,23,female,417,135,185,change,catch,clock,1,2,2,0.08736010119446291,1,f,same,1.4114112139695862,0,0.5004679329613282,0.035309214206790784,0.35332658962488495,1.001050042848874,6.604858997910924
26,23,female,418,135,135,same,valid,anti,2,1,2,0.01661145977141132,1,f,same,0.8896605096651911,0.09115784257469971,0.5002892909742513,0.03531979802301066,0.3533041391065126,1.0010753798633232,4.508751212327297
26,23,female,419,135,185,change,valid,clock,1,1,2,0.1909551348826426,1,j,change,1.28443845478796,0.09003172238608186,0.499829696776942,0.035376565762817336,0.3532707840486182,1.0010894916176767,5.084796251918306
26,23,female,420,75,75,same,catch,clock,4,2,2,0.024752338702455745,1,j,change,0.869161902880478,0,0.499886143796175,0.035299271833537205,0.353337494162588,1.0010356103721278,6.027253326526079
26,23,female,421,45,45,same,valid,anti,1,0,3,0.022116647764960362,1,f,same,1.203638715984198,0.058608381674045834,0.5005320773016138,0.035340644933057774,0.35326148312014993,1.0010869258439925,4.838101609766454
26,23,female,422,105,155,change,valid,clock,1,0,2,0.05374012818629126,1,j,change,0.9058207140042214,0.05695967504401944,0.4999015384373706,0.0353521909137271,0.35328585796924017,1.0010914159483946,4.567224551374238
26,23,female,423,135,135,same,valid,anti,5,0,2,0.03986025514041103,1,f,same,1.1223678370015477,0.05537513349880993,0.49927677256528114,0.03534962514095241,0.3533134400358904,1.0010612681080602,4.755151752679922
26,23,female,424,135,185,change,valid,clock,3,0,2,0.09507121304704924,1,j,change,1.4741196830755143,0.05382363260786008,0.499741819031442,0.03535283235760289,0.3533134400358904,1.001063192438778,5.190777775782408
26,23,female,425,105,105,same,valid,clock,2,2,3,0.024130459325533593,1,f,same,0.8885511333019167,0.18607664911680769,0.5004483689372137,0.03533326833348838,0.3533156850871819,1.001092378112844,4.508870841522366
26,23,female,426,165,115,change,valid,anti,1,0,2,0.009198298378578329,1,f,same,0.8687959594199128,0.052227159351452085,0.5000016036083252,0.035302799771670834,0.3533423049875637,1.0010487599611224,4.5078470978533005
26,23,female,427,135,85,change,valid,anti,3,1,2,0.03291470598833257,1,j,change,1.1668326936005542,0.08891412253702684,0.5005285493625706,0.03529702678133617,0.35332338240732497,1.001072814089639,4.802810997418419
26,23,female,428,45,95,change,valid,clock,5,2,3,0.3065477259551699,1,j,change,0.9142746173147316,0.18525069275590617,0.5004660086315198,0.035302799771670834,0.3533362112757459,1.0010558158392087,4.849817894218177
26,23,female,429,75,25,change,valid,anti,1,1,3,0.06889262494041759,1,f,same,1.2760826923176865,0.08785192582483248,0.5003229667527194,0.03533038183923054,0.35328842374292435,1.001081473575141,4.979623267460738
26,23,female,430,135,135,same,valid,anti,2,0,2,1.1640751284166981,1,j,change,1.6052980659196692,0.05060267786523007,0.49964688540694624,0.03533423049884732,0.353283292195556,1.0010510050133234,6.380348034361305
26,23,female,431,105,105,same,catch,anti,4,1,1,0.048198698639680515,0,j,change,0.8765962319048413,0,0.5001908294125315,0.035343210706741957,0.35327495343153714,1.001077304192222,6.050834389577176
26,23,female,432,105,105,same,valid,clock,4,0,2,0.6740158975335362,1,f,same,1.427072375341595,0.04895328176663313,0.5008675522003614,0.03528323574846581,0.35333332478057855,1.0010449113005961,5.734155706537422
26,23,female,433,105,105,same,catch,anti,2,0,1,0.5390773734688992,0,j,change,0.9809003812742958,0,0.499900255551438,0.03535860534884705,0.353316967974024,1.0010593437782518,6.639956856516619
26,23,female,434,135,85,change,valid,anti,2,2,2,0.10223485295500723,1,j,change,1.0426415537294815,0.18443888704075187,0.4996783161341227,0.03530632771071396,0.35333396622445434,1.0010590230567686,4.755477605927808
26,23,female,435,45,45,same,valid,anti,2,2,3,0.015226262745272834,1,f,same,1.0347793819564686,0.1835692280711586,0.49981526430019585,0.0353448143150672,0.35332915539856913,1.00106864470672,4.649766129736236
26,23,female,436,135,85,change,valid,anti,5,2,3,0.16250679929999023,1,j,change,1.2881257921826545,0.18270368037214088,0.4991686893508813,0.03530985564975708,0.3533471158143584,1.0010644753247107,5.014261852591517
26,23,female,437,45,45,same,valid,anti,5,0,2,0.07087147783477121,1,j,change,0.8455580685877067,0.04738612005281331,0.4994637533163768,0.0353374377154978,0.3532993282797179,1.0010689654282032,4.495594887439438
26,23,female,438,105,105,same,catch,clock,1,1,1,0.1316889717918457,0,j,change,0.762688391926531,0,0.5004637635793188,0.035318515135259076,0.3533156850871819,1.0010558158382992,5.992877091746777
26,23,female,439,45,95,change,valid,clock,4,2,1,0.05301080703884509,0,j,change,0.73295973531458,0.18183676061295864,0.5001273265152122,0.03536790627731534,0.353314722921823,1.0010692861505959,4.426056649715065
26,23,female,440,15,325,change,valid,anti,1,0,2,0.14121248197534442,1,j,change,0.7278711648104945,0.04588483716546862,0.49953976435881486,0.035322684518177994,0.3533156850871819,1.0010680032637538,4.460341158087431
26,23,female,441,15,325,change,valid,anti,5,0,1,0.06043775946363894,0,j,change,0.7679331539002305,0.04442131301501798,0.4996988423226867,0.03534128637693357,0.3533224202428755,1.0010291959379174,4.4141007861526305
26,23,female,442,15,65,change,valid,clock,2,2,2,0.09551797837593767,1,j,change,1.3248586900190276,0.1848325709777065,0.4992764518428885,0.03534609720190929,0.3533134400358904,1.0010657582115527,5.025369407255312
26,23,female,443,135,135,same,valid,anti,5,2,2,0.07012996926187043,1,f,same,0.9002687006413908,0.1840001378295325,0.5001542671379866,0.035297347503728815,0.3533378148849806,1.0010583816128928,4.5794883077696795
26,23,female,444,135,135,same,catch,anti,4,0,1,0.09436113520041545,0,f,same,1.7786834245889622,0,0.49969659727048565,0.035290612347125716,0.35334262570995634,1.0010461941883477,6.992932897323044
26,23,female,445,165,165,same,valid,anti,3,2,3,0.21156567354137223,1,f,same,0.8974434631791155,0.18317384385728228,0.5003078928320974,0.035344172871191404,0.3532618038416331,1.0010721726457632,4.708970714259522
26,23,female,446,105,105,same,valid,anti,1,1,1,0.1339660958674358,0,f,same,0.9299684922998495,0.08683311901103821,0.4993999296975744,0.03532076018746011,0.3533176094178998,1.0010404211971036,4.649320968015672
26,23,female,447,165,115,change,valid,anti,4,0,2,0.07395617915335606,1,f,same,1.018032898349702,0.04576261079103208,0.49916099203073827,0.035344172871191404,0.35331985447010084,1.0010808321321747,4.696247042946197
26,23,female,448,135,185,change,valid,clock,4,0,2,0.06704751299548661,1,f,same,1.5161791269183595,0.04432404910754467,0.4996901828371847,0.03530664843219711,0.35332723106876074,1.0010702483150453,5.202758976359291
26,23,female,449,75,125,change,catch,clock,4,0,1,0.09178573994358885,0,j,change,0.9311570869231218,0,0.5001513806428193,0.03532300523966114,0.3533047805494789,1.0010888501747104,6.10997098110056
26,23,female,450,45,45,same,valid,clock,4,1,2,0.21051114058900566,1,f,same,1.1854926028745467,0.08866517411424465,0.5005189277117097,0.0353669441119564,0.3532845750823981,1.0010817942966241,4.9921073596651695
26,23,female,451,15,15,same,valid,anti,5,0,1,0.16846933643955708,0,j,change,0.9359727232613295,0.04285019122212841,0.5082691676116156,0.03531145925808232,0.35332338240823447,1.0010481185181561,4.728691891641574
26,23,female,452,105,55,change,valid,anti,5,2,2,0.0812301473270054,1,j,change,0.940735761239921,0.18234861481437203,0.49937747917829256,0.03532300523875165,0.3533330040590954,1.0010731348111221,4.60223838089405
26,23,female,453,135,185,change,catch,clock,4,0,2,0.07660309534912813,1,j,change,1.1440896763533601,0,0.4989980654063402,0.03535347380056919,0.3532839336385223,1.0010535707870076,6.332207065627699
26,23,female,454,15,65,change,valid,clock,5,0,1,0.035441351546978694,0,j,change,0.2611393061124545,0.04418620107773502,0.5004441995552042,0.035315949361574894,0.35330991209593776,1.0010494014049982,3.9075478003624085
26,23,female,455,75,75,same,valid,anti,5,0,1,0.03714438377755869,0,j,change,0.24254161684802966,0.045486724147673796,0.5004692158481703,0.03529863038966141,0.3533237031297176,1.001062871717295,3.8846373663873237
26,23,female,456,135,185,change,valid,clock,5,1,2,0.05758558137858927,1,j,change,1.3234074243227951,0.0876374921682644,0.49926073647930025,0.03532813678612001,0.35332658962488495,1.0010619095510265,4.955137769214161
26,23,female,457,15,65,change,valid,clock,1,2,2,0.08643129114898329,1,j,change,0.6515653784772439,0.18151951948417988,0.5000298271179417,0.035318835856742226,0.35333524911129643,1.0010583816128928,4.331813219378091
26,23,female,458,105,55,change,valid,anti,5,1,1,0.04218805324489949,0,j,change,0.3902897656416826,0.08664964023599472,0.4998941618387107,0.03532717462076107,0.35329098951660853,1.0010997547124134,4.036789986298572
26,23,female,459,105,55,change,valid,anti,1,0,2,0.018112758052666322,1,f,same,1.8527409517992055,0.046877712071160205,0.5003842245969281,0.03530921420588129,0.35332658962488495,1.00106864470672,5.450853889456084
26,23,female,460,45,355,change,valid,anti,1,1,2,0.1024304931934239,1,j,change,1.0007498473369196,0.0884295527911777,0.5000410523780374,0.03530600698923081,0.3532813678648381,1.0011247710053794,4.672888240032989
26,23,female,461,15,15,same,catch,clock,4,1,1,0.08206787240942504,0,j,change,2.316225182555172,0,0.5001260436283701,0.035331023281287344,0.3533330040590954,1.0010429869716972,7.523572724287078
26,23,female,462,105,55,change,valid,anti,3,1,2,0.12149868119286111,1,j,change,1.1545339785398028,0.0874341992030171,0.4997257829463706,0.035327495343153714,0.35327623631746974,1.0010862844001167,4.896659619342245
26,23,female,463,165,115,change,valid,anti,5,0,2,0.07274000246343348,1,j,change,1.031185374577035,0.04548118636076498,0.5000182811372724,0.03531787369229278,0.35334005993627216,1.0010417040839457,4.684776431316095
26,23,female,464,135,135,same,catch,anti,5,1,1,0.057868778640113305,0,j,change,0.3256925664409209,0,0.4996151339591961,0.03533262689052208,0.35339233757440525,1.0009705038664833,5.509177451467622
26,23,female,465,105,105,same,valid,clock,1,2,3,0.04626763327905792,1,f,same,1.2330873825512754,0.1806817086861473,0.4997466298564177,0.035353153079995536,0.3532925931249338,1.0010583816128928,4.884747694652106
26,23,female,466,75,25,change,valid,anti,2,2,2,0.1211163809257414,1,j,change,1.208857820221965,0.1798284188274052,0.49960615375130146,0.03530985564975708,0.35330189405431156,1.0010850015141841,4.908188281598086
26,23,female,467,165,165,same,valid,anti,2,0,2,0.05083952112454426,1,j,change,1.1058933253962095,0.044112540149621904,0.4995689500337903,0.03534641792339244,0.3532967625069432,1.0010570987260508,4.755183504128581
26,23,female,468,45,45,same,catch,clock,1,0,3,0.6513925094805018,1,f,same,1.1660857327597114,0,0.5000894813547347,0.03533968276769883,0.35329836611526844,1.001037213980453,6.89895630744104
26,23,female,469,75,75,same,valid,anti,5,1,2,0.08865196820443089,1,j,change,0.8935104529618911,0.08647542333948262,0.5005266250327622,0.035332306168129435,0.3532820093078044,1.001091415947485,4.5910647575601615
26,23,female,470,45,355,change,valid,anti,1,0,2,0.2869942860215815,1,j,change,0.9240011443353069,0.04270606465120544,0.5002293160159752,0.03534866297559347,0.3532800849789055,1.001050042848874,4.7787674536748455
26,23,female,471,165,165,same,valid,clock,3,0,3,0.040054291769592965,1,f,same,0.9474163942668383,0.04127967299023716,0.5001161012551165,0.035315628640091745,0.35331247787053144,1.0010811528536578,4.579217297932701
26,23,female,472,165,215,change,valid,clock,3,0,3,0.038964158708040486,1,f,same,0.927895667948178,0.03980919986563353,0.4997815885217278,0.035317873691383284,0.35333396622445434,1.0010699275935622,4.566695360567792
26,23,female,473,15,15,same,valid,anti,4,2,3,0.06729575159170054,1,f,same,0.9592747584329118,0.17898275937879943,0.5002748584975052,0.03533936204621568,0.35328970662976644,1.001066399654519,4.626786419873497
26,23,female,474,165,165,same,valid,anti,1,2,4,0.005020256782700017,1,f,same,0.9316849948427262,0.1781699287246021,0.4996151339591961,0.03532460884798638,0.35330927065388096,1.0010615888295433,4.542760541480675
26,23,female,475,105,105,same,catch,anti,3,0,1,0.11743449579989829,0,j,change,0.9929733082572056,0,0.5005888450423299,0.03531113853568968,0.3533089499314883,1.0010734555326053,6.204960089391534
26,23,female,476,165,115,change,catch,anti,1,1,2,0.016778876498392492,1,j,change,1.0395440235433853,0,0.5000157153635882,0.03536117112162174,0.353308308488522,1.001080511409782,6.1920212138156785
26,23,female,477,135,135,same,valid,anti,3,0,1,0.52277220292126,0,j,change,0.9006009683234879,0.03836508522436871,0.5007915411579233,0.03531498719712545,0.35331247787053144,1.0010494014049982,5.027081419693786
26,23,female,478,135,85,change,catch,anti,5,0,2,0.10469767489576043,1,j,change,0.7380604932441202,0,0.49969467294067726,0.035360208956262795,0.3532618038416331,1.0010747384194474,5.933317468300629
26,23,female,479,15,15,same,valid,anti,4,0,1,0.03961297870864655,0,j,change,1.2110307097445911,0.039735711470888446,0.4993829314471441,0.03536566122511431,0.3532868201345991,1.0010785870799737,4.849433348898856
26,23,female,480,15,15,same,valid,anti,5,2,3,0.08667022881490993,1,f,same,1.5008691558086866,0.1773847537113532,0.49928158339025686,0.03535924679181335,0.3532820093078044,1.0010766627492558,5.179253924350633
