subject,age,gender,ntrial,memory_ori,test_ori,type,trial_type,which_change,trial,quest,pas,pas_rt,vis,test_key,test,test_rt,contrast,fix_dur,target_dur,mask_dur,retention_dur,trial_dur
27,22,female,1,165,165,same,valid,clock,5,0,1,0.6713570695042108,0,f,same,3.0386671190935886,0.2,0.5023720348763163,0.03532715543769882,0.35330875773524895,1.0010471462778696,7.466257835957549
27,22,female,2,15,325,change,valid,anti,5,2,1,0.5630343573025129,0,j,change,1.3848934476545764,0.2,0.4998784476451874,0.03529540429462941,0.35330587126736646,1.0010654272387,5.827143250251993
27,22,female,3,75,25,change,catch,anti,5,1,1,0.4776443089440363,0,j,change,1.3919200717896274,0,0.4995490696273919,0.03529572501338407,0.3533000983320562,1.0010234131004836,7.157307990576101
27,22,female,4,45,45,same,valid,clock,4,0,1,0.3599909300778563,0,j,change,1.5411507640478703,0.3150270229513009,0.500524695653894,0.035316251004587684,0.353291438929773,1.0010788974204843,5.686908715143545
27,22,female,5,135,135,same,valid,clock,1,1,1,0.5298435085587698,0,j,change,0.7025864031984383,0.2,0.49922738885652507,0.03494068950658402,0.3533802779861617,1.0010618993342177,5.002058051352378
27,22,female,6,15,325,change,valid,anti,2,2,1,0.3986869138466318,0,j,change,1.2796252595412625,0.3670372117912738,0.499313341445486,0.035350567896330176,0.3532805344971166,1.0010898018535954,5.438327734655104
27,22,female,7,45,45,same,valid,clock,1,1,1,0.5145006507382277,0,j,change,0.1633474428140289,0.33948538693435915,0.4992575364062759,0.03536147232944131,0.3532648192845045,1.0010599750225992,4.46028733822186
27,22,female,8,105,55,change,valid,anti,1,1,1,0.37543738001113525,0,j,change,0.5076314994430504,0.43994886294822894,0.4997103910909573,0.03526814321230631,0.3533222279165784,1.0010769731088658,4.661289391462105
27,22,female,9,135,135,same,valid,clock,5,2,1,0.5436344090021521,0,j,change,0.12355363922597462,0.4895303947352734,0.49950769692577524,0.03533709771454596,0.3532882317435906,1.001061578615463,4.40148646663647
27,22,female,10,75,75,same,valid,clock,4,0,1,0.32350469756556777,0,j,change,1.1287322827015487,0.3996559747928428,0.5003303401736048,0.03533324909130897,0.3533113234834673,1.001046504840815,5.15575763679135
27,22,female,11,165,215,change,valid,clock,5,1,1,0.7127461274831148,0,f,same,1.9988133411243325,0.5219745890327315,0.5004640798356377,0.03530181866699422,0.3533020226436747,1.0010837081995305,6.49862892792089
27,22,female,12,165,165,same,catch,anti,1,0,1,0.615376276700772,0,j,change,0.15338271544760573,0,0.5003162285543112,0.03530598800898588,0.3533103613281128,1.00109044329065,6.086677092159789
27,22,female,13,105,105,same,valid,anti,5,2,1,0.38782994729308484,0,j,change,1.8185694795183736,0.5890718826496524,0.5003354716709509,0.03534126705653762,0.35330939917230353,1.001037845438077,5.969070538210872
27,22,female,14,75,75,same,catch,clock,4,0,1,0.45254422870084454,0,f,same,2.1652868282785676,0,0.49975048091755525,0.03532651400018949,0.35330651270442104,1.0010673515507733,7.899648748972595
27,22,female,15,165,165,same,catch,clock,4,1,1,0.3424716757353963,0,j,change,0.35680298704482993,0,0.5000035279044823,0.03535409580126725,0.3532920803668276,1.001033034658576,5.992589796401262
27,22,female,16,75,75,same,valid,anti,4,1,1,0.2154206000132035,0,j,change,1.0266946931974417,0.5923157676589426,0.49979730583572746,0.03529444213882016,0.3533324909121802,1.0010551642430983,5.120862489328374
27,22,female,17,135,135,same,valid,clock,3,0,1,0.24132408038758513,0,j,change,0.6870783752906391,0.46690619962159796,0.49973893504738953,0.035342229212346865,0.3532981740208925,1.0010352796889492,4.8019235419646975
27,22,female,18,165,215,change,valid,clock,1,1,1,0.2157358664117055,0,j,change,0.3542365966882244,0.655190058817081,0.5003871073681694,0.03531111950678678,0.3532814966524711,1.0010699172994464,4.414550297979531
27,22,female,19,165,165,same,valid,anti,3,2,1,0.31176864128838133,0,j,change,0.5652194132258046,0.6758845662617424,0.4997889671512894,0.0353480021476571,0.35331036132765803,1.0010407319055048,4.696667220440759
27,22,female,20,15,65,change,valid,clock,1,2,1,0.25058771686190084,0,j,change,0.6938580460923731,0.7550828364566777,0.4997277098959785,0.03534543639852927,0.35331228563973127,1.0010259788491567,4.743649931782784
27,22,female,21,165,115,change,catch,anti,1,2,1,0.6030744727868296,0,j,change,0.6453993876843924,0,0.49990346369713734,0.03531977890952476,0.35332094504246925,1.0010240545375382,6.521794754198254
27,22,female,22,45,95,change,valid,clock,4,2,1,0.674692543099809,0,j,change,0.5129137350309065,0.8277920650611539,0.5005227713422755,0.03533100406093581,0.3532728372501879,1.0010920468839686,4.991965677976623
27,22,female,23,75,125,change,catch,clock,1,1,1,2.4226872499598358,0,j,change,0.4666815052482889,0,0.49969435516004523,0.03534190849404695,0.3533366602541719,1.0010522777756705,8.217901358500058
27,22,female,24,105,105,same,valid,anti,2,0,1,0.27970351488374945,0,f,same,2.260389198453595,0.5261480498876727,0.5000914048055165,0.03530278082280347,0.353343716064046,1.0010561263993623,6.3099450352438
27,22,female,25,105,105,same,valid,clock,1,2,1,0.44735788797834175,0,f,same,1.6011318801361085,0.8941448639260581,0.5000525978530277,0.035332928372554306,0.35328726958778134,1.0010599750221445,5.921458576945952
27,22,female,26,75,75,same,valid,clock,2,2,1,0.3472923972371973,0,j,change,0.5348752629092814,0.9539979878836427,0.4997357278612071,0.03533902202616446,0.35328149665292585,1.0010631822087817,4.731348127869296
27,22,female,27,135,85,change,valid,anti,1,0,1,0.5920058319475174,0,j,change,0.6870341161220495,0.5793366454280041,0.500396087489662,0.035312402381350694,0.3533052298303119,1.001075369516002,5.167747702211727
27,22,female,28,105,105,same,valid,clock,3,2,1,0.7223128430487122,0,j,change,0.8575399984224532,1,0.5004445160002433,0.035309836632677616,0.35332864228894323,1.0010400904679955,5.521753060777883
27,22,female,29,75,25,change,catch,anti,3,1,1,0.7871464317809114,0,j,change,0.8311134259870414,0,0.49979987158440053,0.03533517340292747,0.35330971989060345,1.0010388075938863,6.933802074279356
27,22,female,30,135,185,change,catch,clock,3,0,1,0.3355152889771489,0,f,same,0.8869014669026001,0,0.500424952164849,0.03528802776645534,0.35332126576076917,1.001082425325876,6.675834301368923
27,22,female,31,105,55,change,valid,anti,3,2,1,0.29444662889454776,0,j,change,0.8239052751155214,1,0.5000968570216173,0.03531721316039693,0.353315172107159,1.001074086641438,4.9679906786341235
27,22,female,32,45,95,change,valid,clock,2,2,1,0.2665524480771637,0,f,same,0.5784785622054187,1,0.49975946103859314,0.0353287590310174,0.3533093991718488,1.0010692758623918,4.707812833747539
27,22,female,33,135,85,change,valid,anti,5,1,1,0.8757744552754048,0,j,change,0.6796790761250122,0.7151214254916749,0.5004509303726081,0.03531336453715994,0.3533167757004776,1.0010625407712723,5.356725052421552
27,22,female,34,105,105,same,catch,anti,2,2,1,0.46346213179094775,0,j,change,0.53109527331344,0,0.49996407951493893,0.03531111950724153,0.3533209450420145,1.00108402891874,6.32180136100169
27,22,female,35,105,105,same,catch,clock,1,0,1,0.33033119328501925,0,j,change,1.0469827113424799,0,0.5003672228140204,0.0353470399913931,0.35327925162209795,1.0010731244856288,6.78205117514517
27,22,female,36,75,75,same,catch,clock,1,1,1,0.4958569569316751,0,f,same,0.799687491781242,0,0.49942110290021446,0.03533196621674506,0.3532831002457897,1.0010821046071214,6.662627108804827
27,22,female,37,45,355,change,valid,anti,1,2,1,0.35907335412002794,0,j,change,0.7733096685756209,1,0.5006722262169205,0.035345115680229355,0.3532920803668276,1.0010766523905659,4.945128572885551
27,22,female,38,15,15,same,valid,anti,1,2,1,0.6141995601024064,0,f,same,0.5799054393237384,1,0.49903527840615425,0.035313043818405276,0.35331004060981286,1.0010519570569159,4.990120904503783
27,22,female,39,15,15,same,valid,anti,3,2,1,1.921495780305122,0,j,change,0.4917254597344254,1,0.4994788322505883,0.035331645497990394,0.35326385712869524,1.0010914054464592,6.203278834688263
27,22,female,40,45,45,same,valid,anti,3,1,1,0.5743637423761356,0,j,change,2.314211554978556,0.7705518255581851,0.5004983967273802,0.03527968908292678,0.353323831509897,1.0010747280784926,6.698891083316994
27,22,female,41,75,75,same,valid,clock,3,2,1,1.3011830026830467,0,f,same,0.5639400666709662,1,0.5004711356455118,0.03530727088354979,0.3533296044452072,1.0010596543038446,5.768787215386055
27,22,female,42,45,95,change,valid,clock,5,0,1,0.4824361657706504,0,j,change,0.516715854211725,0.6269063766957922,0.5001584349956829,0.03530342225985805,0.3532850245574082,1.0010808217325575,4.873795300702568
27,22,female,43,45,45,same,valid,clock,5,1,1,0.3343093869848417,0,j,change,0.595917957612528,0.8206341458734543,0.4997350864236978,0.035369811012969876,0.3533000983320562,1.001053881368989,4.778775675930319
27,22,female,44,135,135,same,valid,clock,3,1,1,0.30228723687423553,0,f,same,1.4306099619052475,0.8678314452902671,0.500073444562986,0.035325231126080325,0.3532744408430517,1.0010602957408992,5.5796972929424555
27,22,female,45,105,105,same,valid,clock,1,0,1,0.24656975405378034,0,f,same,0.5628435297262513,0.6716318026819171,0.500424631446549,0.03531528884877844,0.35329047677396375,1.0010849910745492,4.62678070992979
27,22,female,46,165,165,same,valid,clock,1,2,1,0.3659344874499766,0,j,change,0.8430175388180032,1,0.4996911479734081,0.03530727088309504,0.3533254351027608,1.0010500327452974,4.966739234598663
27,22,female,47,45,355,change,valid,anti,2,1,1,0.3820092251503411,0,f,same,0.865314859085629,0.9134282131376517,0.5005875565025235,0.03528353770570902,0.35333249091263497,1.0010580507109808,5.014779034495859
27,22,female,48,105,105,same,valid,clock,1,1,1,0.5062915370695009,0,j,change,0.6816261588364796,0.9553397774714711,0.5005484288317348,0.03534575711728394,0.35328406240159893,1.0010474669966243,4.967848921006407
27,22,female,49,45,95,change,valid,clock,5,2,1,0.9925477822630455,0,f,same,0.4951994837711027,1,0.5001815267364691,0.03532170322114325,0.3533116442026767,1.0010404111867501,5.379620833624813
27,22,female,50,45,45,same,valid,anti,2,0,1,0.46006411806547476,0,j,change,0.41804292369670293,0.7121782405476902,0.5000724824071767,0.03534030490072837,0.35328919389939983,1.0010647858021002,4.779467465983089
27,22,female,51,135,135,same,valid,anti,4,2,1,0.4263132946202859,0,f,same,1.0547973411144085,1,0.5023332279238275,0.035329400467617234,0.35330939917230353,1.001039128312641,5.4055230311246305
27,22,female,52,105,55,change,valid,anti,5,2,1,0.24394563434589145,0,j,change,0.701482810444304,1,0.5002562541735642,0.03533196621674506,0.35329047677396375,1.001033034658576,4.743801631687802
27,22,female,53,75,75,same,catch,clock,2,2,1,0.4652876621471478,0,f,same,1.6869702931176107,0,0.49982456691805055,0.0353653209526783,0.3532744408430517,1.0010798595762935,7.558431403740542
27,22,female,54,75,125,change,valid,clock,1,1,1,0.57242724337857,0,f,same,0.5926075000688797,0.9976483425635696,0.4999682488569306,0.03534768142890243,0.35331228563973127,1.0010654272391548,4.8617455816197435
27,22,female,55,105,105,same,catch,clock,1,2,1,0.24380868749767615,0,j,change,1.9797007567035507,0,0.49924438694324635,0.03534415352442011,0.3532997776137563,1.0010824253254214,7.58123738373115
27,22,female,56,165,215,change,valid,clock,4,0,1,0.41191334952736725,0,j,change,0.3541670007484754,0.7502722747458377,0.499870429679504,0.03531721316039693,0.35328245880828035,1.0010987819746333,4.566449689833007
27,22,female,57,105,55,change,valid,anti,4,2,1,0.265078104604072,0,f,same,1.8045925622786854,1,0.49991180238112065,0.03529444213882016,0.35333505666130804,1.001058050710526,5.921094561318114
27,22,female,58,165,165,same,catch,anti,4,0,1,0.5919525926574352,0,j,change,0.45253428642354265,0,0.4998688260866402,0.0353277968747534,0.35330458839280254,1.0010606164596538,6.451325177245053
27,22,female,59,15,325,change,catch,anti,5,2,1,0.3291689090242471,0,j,change,0.8818094174530415,0,0.4998608081209568,0.0353226653769525,0.3532850245574082,1.0010298274728484,6.557600742527939
27,22,female,60,45,45,same,valid,anti,5,2,1,0.5207514565436213,0,j,change,0.7147130947487312,1,0.4993765230124154,0.03534575711728394,0.3532920803672823,1.0010859532303584,5.143314395967991
27,22,female,61,135,135,same,valid,anti,2,0,1,0.30954734416127394,0,f,same,0.7080633149862479,0.7869214580172195,0.4997783834373877,0.03533164549844514,0.35332126576076917,1.0010339968143853,4.920271597351984
27,22,female,62,15,15,same,valid,clock,2,1,1,0.45974179585755337,0,j,change,0.5882598385246638,1,0.49984894153249115,0.035330683342635893,0.3532972118646285,1.0010718416110649,4.8735685526417
27,22,female,63,105,155,change,valid,clock,1,0,1,0.27771185228448303,0,j,change,0.6536562884261912,0.8226559822230832,0.4997126361208757,0.035324589688570995,0.35330907845354886,1.001057729992226,4.825779233982757
27,22,female,64,135,185,change,valid,clock,1,0,1,1.0814022330996522,0,f,same,0.5663313446639222,0.8555383277756634,0.5002293138099958,0.03535120933338476,0.35325359413309343,1.0010779352651298,5.485815898535293
27,22,female,65,105,105,same,valid,clock,4,1,1,0.23396487104901098,0,j,change,0.8162763414220535,1,0.5003033998095816,0.035366603827242216,0.3532420482629277,1.0010602957408992,4.8148696695766375
27,22,female,66,105,105,same,valid,clock,4,2,1,0.3119520923364689,0,j,change,0.41821290456255156,1,0.4999486850215362,0.03533453196541814,0.35331966216790534,1.0010452219662511,4.507798593841471
27,22,female,67,165,165,same,catch,clock,5,2,1,0.9575532120288699,0,f,same,1.5872896647142625,0,0.5003681849698296,0.03531945819077009,0.3533061919856664,1.001055484961853,7.959750775978591
27,22,female,68,45,95,change,valid,clock,4,0,1,0.44277866759375684,0,j,change,0.9731016504820218,0.8887039530740575,0.4998996150734456,0.035296366450438654,0.3533302458822618,1.0010336760956307,5.321015921113485
27,22,female,69,75,75,same,valid,anti,1,0,1,0.41944767123004567,0,j,change,1.2600210134837653,0.9199498010814595,0.4992421419128732,0.035366603827242216,0.3533049091115572,1.0010484291524335,5.47327836643899
27,22,female,70,15,65,change,valid,clock,2,1,1,0.15378906593286956,0,j,change,0.6208249652499944,1,0.4993527898350294,0.03533549412168213,0.3533017019253748,1.0010638236458362,4.6840995407951596
27,22,female,71,135,185,change,valid,clock,5,2,1,0.3299678190942359,0,f,same,1.8481160026403813,1,0.5001610007448107,0.035342229212346865,0.35326898862649614,1.0010606164596538,5.886719298729531
27,22,female,72,45,355,change,catch,anti,3,0,1,1.044936526579022,0,j,change,0.351396312633824,0,0.49964785096108244,0.0353743010737162,0.35331260635848594,1.0010471462778696,6.627849344355127
27,22,female,73,75,125,change,valid,clock,3,2,1,0.5556122871153093,0,f,same,0.9810666972844047,1,0.5001779988310773,0.03530342225985805,0.353316134263423,1.0010728037668741,5.3329056016068535
27,22,female,74,165,215,change,valid,clock,5,2,1,0.3990130846782449,0,j,change,1.532705280760183,1,0.4996350222163528,0.035339984181973705,0.35331453067010443,1.0010500327452974,5.732437929722892
27,22,female,75,45,95,change,valid,clock,4,1,1,0.927617657227529,0,j,change,1.1012681855472692,1,0.4995795378958974,0.03532491040732566,0.35330907845354886,1.0010670308320186,5.827098028927594
27,22,female,76,15,15,same,valid,clock,3,0,1,0.31329526189529133,0,j,change,0.7828818363577739,0.9498727153922786,0.49985118656240957,0.03534415352442011,0.3533119649209766,1.001053881368989,4.896791146113628
27,22,female,77,15,325,change,valid,anti,5,1,1,0.440223823107317,0,f,same,1.0706719503987188,1,0.5000731238442313,0.035327476156453486,0.3533023433624294,1.0010747280789474,5.308831179494064
27,22,female,78,105,105,same,valid,anti,3,0,1,0.4146696053044252,0,j,change,0.7451505741823894,0.9788637608968467,0.5003810137145592,0.03531817531620618,0.35331164420222194,1.001067030831564,4.920720282694219
27,22,female,79,135,185,change,catch,clock,1,0,1,0.6184686455858355,0,j,change,0.9246157309912633,0,0.5002065427879643,0.03534639855433852,0.35326706431487764,1.0010728037668741,6.89893194286833
27,22,female,80,105,155,change,valid,clock,3,2,1,0.5018527914389779,0,j,change,0.8378081063556237,1,0.5004429124069247,0.035337739151600545,0.3532959289905193,1.0010609371779537,5.10883073048808
27,22,female,81,135,85,change,valid,anti,4,2,1,0.3714043434283667,0,f,same,1.4641295472283673,1,0.499940025619253,0.03531496813002377,0.35334307462699144,1.0010695965806917,5.674228783982471
27,22,female,82,105,155,change,valid,clock,1,2,1,0.19821757422550945,0,j,change,0.716405526879953,1,0.4994255929609608,0.035350567896330176,0.35331068204686744,1.0010564471176622,4.6612069667780816
27,22,female,83,15,325,change,catch,anti,4,2,1,0.2860784387930835,0,j,change,1.260944683094749,0,0.4997684411600858,0.03530662944604046,0.3533103613281128,1.0010622200529724,6.851947948651741
27,22,female,84,45,355,change,valid,anti,2,2,1,0.2757686181967074,0,j,change,1.9060063540773626,1,0.4998944835756447,0.03533870130786454,0.35328053449666186,1.0010795388579936,6.003938745310279
27,22,female,85,45,45,same,valid,clock,1,0,1,0.2161495934251434,0,j,change,4.045564493626898,1,0.4997934572120357,0.03533196621674506,0.35331292707678585,1.001030468909903,8.040666478939329
27,22,female,86,75,125,change,valid,clock,2,2,1,0.4294887296273373,0,j,change,1.0421135613296428,1,0.5001237973856405,0.03530630872774054,0.35329753258338314,1.0010798595762935,5.226345558913181
27,22,female,87,165,165,same,valid,anti,1,2,1,0.44976007040395416,0,f,same,0.8150008434899974,1,0.5004666455847655,0.03532426897027108,0.35329785330168306,1.0010695965811465,5.132750245510124
27,22,female,88,75,25,change,valid,anti,4,1,1,0.34344794319940775,0,f,same,1.386530074746588,1,0.5001626043376746,0.03533453196541814,0.35327027150106005,1.0010808217325575,5.426707137079575
27,22,female,89,75,25,change,valid,anti,5,2,1,0.3985214230415295,0,f,same,0.6018464412100002,1,0.5003572805367185,0.03533998418242845,0.3532895146181545,1.0010474669966243,4.790759006259577
27,22,female,90,75,75,same,valid,clock,2,0,1,1.0482177987287287,0,f,same,0.4642081232891542,1,0.500416292762111,0.035318496034960845,0.35328342096454435,1.0010792181396937,5.309633617468535
27,22,female,91,165,165,same,valid,clock,5,2,1,0.2517807901094784,0,f,same,1.350581687351223,1,0.49992527256290487,0.035332928372554306,0.35331420995225926,1.0010657479579095,5.402802054395579
27,22,female,92,135,135,same,valid,clock,1,2,1,0.3374812940874108,0,f,same,0.9438601307629142,1,0.5005388072731876,0.03532619328234432,0.35332094504246925,1.0010397697496956,5.0858275085493005
27,22,female,93,105,155,change,valid,clock,4,2,1,0.28065220054668316,0,f,same,0.8067202095699031,1,0.5001763952377587,0.03529764932500257,0.3532988154574923,1.0010772938276205,4.955823255820178
27,22,female,94,75,25,change,valid,anti,2,1,1,0.7287236874426526,0,f,same,0.8712394940594095,1,0.5002212958443124,0.03532940046807198,0.3532818173716805,1.001054202087289,5.308826047996263
27,22,female,95,15,65,change,valid,clock,5,1,1,0.3577705951065582,0,f,same,0.8848222481219636,1,0.5006321363898678,0.035315609567078354,0.35334050887740887,1.0010785767017296,4.955867194269558
27,22,female,96,105,105,same,valid,clock,5,0,1,0.34275936033373,0,f,same,1.028171602420116,1,0.5006901864589963,0.03532491040732566,0.35330490911201196,1.0010545228060437,5.1798464912426425
27,22,female,97,165,165,same,valid,clock,1,1,1,1.348782455921537,0,f,same,0.6315064987211372,1,0.5005336757749319,0.03529123495263775,0.3533084370164943,1.0010933297580777,5.7808937016634445
27,22,female,98,75,75,same,valid,clock,5,1,1,0.365880606722385,0,f,same,0.6449176683236146,1,0.49961513766174903,0.03530662944649521,0.35329657042802864,1.0010622200534272,4.814493145921915
27,22,female,99,15,325,change,valid,anti,5,0,1,0.34827924841556523,0,f,same,0.739537036265574,1,0.49963373934133415,0.035286424173136766,0.35331420995134977,1.0010747280784926,4.9437882897937016
27,22,female,100,75,75,same,catch,clock,5,0,1,0.21465279964922956,0,f,same,1.581513843177163,0,0.4997806284673061,0.03534511567977461,0.3533222279165784,1.001066710113264,7.086762403311695
27,22,female,101,165,165,same,valid,clock,4,2,1,0.5216469029164728,0,j,change,1.6287742968406747,1,0.5030779365479248,0.035315609567078354,0.35328438312080834,1.0010477877149242,5.842262246480459
27,22,female,102,165,165,same,valid,clock,3,2,1,0.4111320789806996,0,j,change,1.0406074667143912,1,0.49947626650100574,0.03533260765379964,0.3533119649209766,1.0010622200525177,5.214321176601516
27,22,female,103,165,165,same,valid,clock,2,1,1,0.604976654892198,0,j,change,0.6080549121588774,1,0.4994708142849049,0.03529572501338407,0.3533129270772406,1.001029186035339,4.9201340090667145
27,22,female,104,75,75,same,valid,anti,5,0,1,0.4437924591356932,0,j,change,0.5728768908766142,1,0.4998694675241495,0.03534832286641176,0.3533129270763311,1.0010574092739262,4.825828945367903
27,22,female,105,165,165,same,catch,anti,5,0,1,0.27591999738342565,0,f,same,0.853598045925537,0,0.5004053883294546,0.035321703221598,0.3533074748602303,1.0010612578971632,6.4868726663708
27,22,female,106,15,15,same,valid,clock,1,2,1,0.34379271571015124,0,j,change,1.622257294584415,1,0.5004191792295387,0.03534030490118312,0.35331902073085075,1.0010561263989075,5.768860659949496
27,22,female,107,165,165,same,valid,clock,4,1,1,0.2517686028022581,0,j,change,1.2163663992087095,1,0.4997674790038218,0.035327155436789326,0.3533244729469516,1.0010343175326852,5.249483803389012
27,22,female,108,165,165,same,valid,clock,2,0,1,0.23281477409545914,0,j,change,0.9042154613316598,1,0.4998806926751058,0.03529604573122924,0.3533328116309349,1.0010365625630584,4.967090100763016
27,22,female,109,105,105,same,catch,anti,3,0,1,0.24495525654674566,0,j,change,0.6873952452824597,0,0.5005516360179172,0.03534030490118312,0.35328438311989885,1.0010509949015614,6.215964218065892
27,22,female,110,75,75,same,valid,clock,1,0,1,0.30225644788788486,0,f,same,1.379351750706519,1,0.5008806933165033,0.035289952078528586,0.3533100406093581,1.0010631822087817,5.486094923729979
27,22,female,111,45,45,same,catch,clock,3,0,1,1.6855639419909494,0,j,change,2.4163646031847748,0,0.5000067350911195,0.035322986095707165,0.35332639725857007,1.001035600407704,9.431338313879678
27,22,female,112,75,75,same,valid,anti,1,2,1,0.3404912382884504,0,j,change,0.8311454978484107,1,0.49980532380050136,0.035320099627824675,0.3533103613272033,1.0010622200525177,4.955710683586403
27,22,female,113,135,135,same,valid,clock,4,2,1,0.2611409628871115,0,j,change,1.0754968412420567,1,0.4994737007527874,0.03532523112517083,0.3533222279165784,1.001025337412102,5.120310853310002
27,22,female,114,105,55,change,valid,anti,3,1,1,0.25101972483571444,0,j,change,2.3674130002655147,1,0.4993300188134526,0.035292517826746916,0.3533324909121802,1.0010712001740103,6.403279925131756
27,22,female,115,135,135,same,catch,anti,2,0,1,0.2511268448542978,0,j,change,1.3062115498469211,0,0.5003633741907834,0.03529059351512842,0.35333217019342555,1.0010583714292807,6.8287000184091085
27,22,female,116,45,45,same,valid,anti,1,2,1,0.17008253372841864,0,f,same,0.5076494596851262,1,0.5001542656536913,0.03533966346276429,0.35330779557898495,1.0010333553773307,4.449860134611299
27,22,female,117,105,55,change,valid,anti,5,1,1,0.5316417778331015,0,f,same,0.8402747532227295,1,0.4993499033671469,0.03534447424226528,0.35331613426296826,1.0010795388570841,5.214466462133714
27,22,female,118,135,185,change,valid,clock,2,1,1,0.23274453671820083,0,f,same,1.0339406888651865,1,0.4998300191336966,0.03535634083164041,0.3532930425226368,1.0010570885551715,5.037708811873017
27,22,female,119,15,15,same,valid,clock,4,2,1,0.46889799159635004,0,f,same,1.0825218617846986,1,0.5004137270134379,0.03529764932500257,0.35333409450504405,1.0010400904684502,5.3798084540139826
27,22,female,120,135,135,same,catch,clock,5,2,1,0.6656107540793528,0,f,same,0.7807073641488387,0,0.5004669663030654,0.0352982907625119,0.3533196621683601,1.0010481084336789,6.6878747196115
27,22,female,121,45,95,change,catch,clock,4,2,1,0.2683013266841954,0,f,same,1.3769915824186683,0,0.4992222573591789,0.035290914233883086,0.35334339534529136,1.00105901286679,6.910379673110583
27,22,female,122,135,185,change,valid,clock,4,0,1,0.10642213369010278,0,f,same,1.0434673146037312,1,0.5000311097055601,0.03532875903056265,0.3533110027647126,1.0010442598104419,4.920125670382731
27,22,female,123,15,15,same,catch,anti,2,2,1,0.17190421546092693,0,f,same,1.1579442963084148,0,0.5001395125973431,0.03529604573213874,0.35332479366570624,1.0010461841220604,6.710511680893433
27,22,female,124,15,325,change,valid,anti,1,2,1,0.043975653608868015,0,f,same,0.6243535114526821,1,0.4998733161473865,0.035318175317115674,0.35330106048786547,1.0010679929873731,4.449381622438523
27,22,female,125,45,45,same,valid,clock,5,2,1,0.06205039259202749,0,f,same,0.4547754681052538,1,0.4994464396704643,0.03533966346367379,0.35333024588271655,1.001067672269528,4.2253404267739825
27,22,female,126,105,155,change,valid,clock,5,2,1,0.09366907868388807,0,f,same,0.722219513932032,1,0.4990994221288929,0.03532811759305332,0.3533411503149182,1.0010647858016455,4.590093707564847
27,22,female,127,105,105,same,valid,clock,5,1,1,0.11057992981386633,0,f,same,0.7582410251707188,1,0.4998351506319523,0.03538392263180867,0.35330009833251097,1.0010554849623077,4.5908361711581165
27,22,female,128,45,45,same,valid,anti,3,2,1,0.13188590884237783,0,f,same,0.6900783772152863,1,0.49980051302100037,0.035357623705749575,0.3532452554491101,1.0010914054464592,4.554836148066897
27,22,female,129,135,135,same,valid,clock,2,2,1,0.7210623611681513,0,f,same,0.025385519810697588,1,0.5004910201996609,0.035321703220688505,0.35331517210670427,1.0010545228060437,4.449845702274615
27,22,female,130,165,115,change,valid,anti,3,2,1,0.34189117504229216,0,f,same,1.0088402879027853,1,0.4995452210041549,0.035327476156453486,0.3533174171370774,1.0010323932210667,5.120229711500542
27,22,female,131,135,85,change,valid,anti,5,0,1,0.06919247542828089,0,f,same,0.637977317496734,1,0.5000179602429853,0.03541503233827825,0.35328245880918985,1.001086273949113,4.484871702932651
27,22,female,132,45,45,same,catch,anti,2,0,1,0.24653222997585544,0,f,same,1.4660878550912457,0,0.500043617731535,0.035316892442097014,0.3533090784530941,1.0010795388579936,7.004892562471468
27,22,female,133,105,55,change,valid,anti,1,2,1,0.2572634748321434,0,j,change,1.3235896879987195,1,0.5004429124073795,0.03534575711728394,0.3532661021590684,1.0010609371784085,5.40300025849956
27,22,female,134,15,325,change,valid,anti,3,1,1,0.24676731672025198,0,j,change,0.5671036350886425,1,0.5004518925288721,0.03534447424317477,0.35330875773433945,1.001038486874677,4.532407333166702
27,22,female,135,165,215,change,valid,clock,2,0,1,0.19373424870718736,0,j,change,0.8786705443681058,1,0.49931430360175,0.035326514001098985,0.3533212657612239,1.0010712001740103,4.754207667869196
27,22,female,136,105,155,change,valid,clock,2,1,1,0.2535123499110341,0,j,change,1.3904524634072004,1,0.5007777426408211,0.03537782897819852,0.3532978533021378,1.0010631822078722,5.356826078785161
27,22,female,137,135,135,same,valid,anti,1,2,1,0.16465789907488215,0,j,change,0.6861684965797394,1,0.500307569152028,0.03533068334309064,0.3533071541423851,1.0010567678364168,4.543854421972355
27,22,female,138,105,105,same,valid,anti,4,0,1,0.09968832565027697,0,j,change,1.00166356745558,1,0.500141116190207,0.03533260765379964,0.3532641778474499,1.0010663893945093,4.778785618207621
27,22,female,139,15,15,same,catch,clock,2,2,1,0.032005152023884875,0,j,change,0.5468553860528118,0,0.5000339961734426,0.035313364536705194,0.35331324779508577,1.0010615786159178,5.827299119499003
27,22,female,140,45,95,change,valid,clock,3,2,1,0.2804286596719976,0,f,same,2.514669669448267,1,0.5004509303726081,0.03529861148126656,0.3533007397691108,1.0010811424508574,6.534212016813399
27,22,female,141,135,185,change,catch,clock,4,1,1,0.11349205483838887,0,f,same,1.2160488877798343,0,0.49961577909925836,0.035349926459275594,0.353291438929773,1.0010474669961695,6.533223562041712
27,22,female,142,135,135,same,valid,anti,2,2,1,0.08194617187109543,0,f,same,0.5195615904822262,1,0.5000506735414092,0.035321382502843335,0.3533100406093581,1.001031751784467,4.3314100907055035
27,22,female,143,135,135,same,catch,clock,1,0,1,0.09655073543945036,0,f,same,1.4103280374138194,0,0.5003608084416555,0.03533036262342648,0.35331420995134977,1.001036562563968,6.686922826763293
27,22,female,144,105,105,same,valid,clock,3,0,1,0.04662831727273442,0,f,same,1.315555686694097,1,0.5001536242161819,0.03534415352351061,0.3532808552154165,1.0010670308320186,5.026426251716657
27,22,female,145,75,125,change,valid,clock,5,2,1,0.9425451844417694,0,f,same,0.5513146576740837,1,0.4992796659907981,0.03535024717803026,0.35328983533690916,1.0010394490309409,5.1668269190677165
27,22,female,146,15,325,change,valid,anti,2,1,1,0.18892122445231507,0,f,same,1.078425002196127,1,0.5002944196885437,0.035330362624335976,0.3533081162977396,1.0010407319059595,4.908772552131268
27,22,female,147,45,355,change,valid,anti,4,0,1,0.08529864355296013,0,j,change,0.7492708462286828,1,0.4999111609431566,0.03534607783512911,0.3532850245574082,1.0010574092730167,4.626421184361789
27,22,female,148,165,115,change,catch,anti,3,2,1,0.222966146867293,0,j,change,0.5723573267205211,0,0.4994201407444052,0.03530117722948489,0.3533215864790691,1.001035600407704,6.073596262729552
27,22,female,149,45,45,same,valid,anti,4,0,1,0.282144183543096,0,j,change,0.40136298996912956,1,0.5008056451606535,0.0353226653769525,0.35336424205524963,1.0010333553773307,4.426148445252693
27,22,female,150,105,105,same,catch,anti,1,1,1,0.047009010268993734,0,j,change,0.91957307220855,0,0.5000041693419917,0.03530630872683105,0.3532959289905193,1.0010772938276205,6.169262135511417
27,22,female,151,135,135,same,valid,clock,2,0,1,0.1760475792480065,0,j,change,0.7273631990783542,1,0.4998412442855624,0.03531368525545986,0.35329015605475433,1.001075369516002,4.637209196414005
27,22,female,152,45,45,same,valid,anti,2,2,1,0.1356671813127832,0,j,change,0.6767137118113169,1,0.4997854392468071,0.035365962389732886,0.35329079749226366,1.00103399681484,4.555064499720174
27,22,female,153,135,85,change,valid,anti,3,2,1,0.06459625695697468,0,j,change,0.8449857889581835,1,0.4995580497488845,0.035323627532307,0.35325712203757575,1.0010920468839686,4.684203132907896
27,22,female,154,135,135,same,valid,clock,3,2,1,0.05443621195445303,0,j,change,0.4336827669558261,1,0.5004012189874629,0.03529572501338407,0.35331902073085075,1.0010660686766641,4.2728170447826415
27,22,female,155,15,325,change,valid,anti,1,0,1,0.22534748258294712,0,j,change,0.327878978755507,1,0.5003858244936055,0.03535185077089409,0.35329560827176465,1.0010333553773307,4.308825727277508
27,22,female,156,75,125,change,valid,clock,1,2,1,0.1032797326997752,0,j,change,0.42921900527198886,1,0.4996651697656489,0.035313364536705194,0.3532821380895257,1.0010817838883668,4.307750678479351
27,22,female,157,75,75,same,catch,clock,3,1,1,0.9942770970346828,0,j,change,1.6293984152653138,0,0.5000060936545196,0.0353338905288183,0.35331132348437677,1.0010583714301902,7.899863309726243
27,22,female,158,105,105,same,valid,clock,2,0,1,0.024620285195851466,0,j,change,0.5351497980427666,1,0.5005477873946802,0.03536179304774123,0.35327668587342487,1.0010413733434689,4.3200646697014236
27,22,female,159,75,25,change,valid,anti,1,1,1,0.011455427488726855,0,j,change,0.5696703461644574,1,0.5003851830570056,0.0353226653769525,0.35331132348437677,1.0010497120274522,4.319747478991303
27,22,female,160,75,75,same,valid,anti,1,1,1,0.06567515437836846,0,j,change,0.3251727550823489,1,0.5000016035928638,0.03530983663313236,0.35333698097292654,1.0010635029275363,4.214239714073301
27,22,female,161,45,355,change,catch,anti,1,2,1,0.03106352217037056,0,j,change,0.29160057190620137,0,0.4997100703722026,0.03530406369736738,0.3533392260032997,1.0010606164596538,5.626880774138044
27,22,female,162,45,355,change,valid,anti,5,1,1,0.0021055177076050313,0,j,change,0.4581016408610594,1,0.5002642721383381,0.03521618679678795,0.3533539790596478,1.0010522777756705,4.319976472082999
27,22,female,163,75,125,change,valid,clock,5,1,1,0.08170242572305142,0,j,change,0.8470191449769118,1,0.4995365616014169,0.03533805987080996,0.3533129270763311,1.0010198851960013,4.708193526743344
27,22,female,164,165,165,same,catch,anti,5,0,1,0.034326834077546664,0,j,change,0.5095067411848504,0,0.4999538165202466,0.035320099627824675,0.35329849473964714,1.0010651065194907,5.826923237282244
27,22,female,165,135,185,change,valid,clock,3,2,2,1.9440362052828277,1,j,change,2.173429873912937,1,0.5002065427879643,0.03534607783512911,0.35327700659217953,1.0010481084336789,7.958707799042713
27,22,female,166,165,115,change,valid,anti,5,1,1,1.806810010782101,0,j,change,1.0681421219633194,1,0.49991533028514823,0.03529347998301091,0.3533334530675347,1.001037845438077,6.628231320225495
27,22,female,167,105,155,change,valid,clock,2,0,1,0.057997792173409835,0,j,change,2.4169335580072584,1,0.4993127000079767,0.03532234465910733,0.3532869488690267,1.0010968576634696,6.2152223959092225
27,22,female,168,15,325,change,valid,anti,3,0,1,0.6752143522862752,0,j,change,1.4529011885188083,1,0.49970590103021095,0.035327476156453486,0.35327700659217953,1.0010323932219762,5.921401809750932
27,22,female,169,75,25,change,valid,anti,3,2,1,0.40887261633906746,0,j,change,0.5893233414517454,1,0.4992982676703832,0.03533870130831929,0.35327027150106005,1.0010898018535954,4.790195182935349
27,22,female,170,45,45,same,valid,anti,4,1,1,0.23074613902917918,0,j,change,0.5841636203740563,1,0.5000307889877149,0.035329721186826646,0.35332928372554306,1.0010365625630584,4.578749890153631
27,22,female,171,75,125,change,valid,clock,3,1,1,0.23863196833281108,0,j,change,0.43092715261536796,1,0.5003806929953498,0.03534062561902829,0.35327764802968886,1.0010721623302743,4.472884844698456
27,22,female,172,135,135,same,valid,clock,5,1,1,0.1173788437326948,0,j,change,0.3552042047494979,1,0.500453496121736,0.03534030490027362,0.3532875903056265,1.0010689551436371,4.296746502081987
27,22,female,173,105,105,same,valid,anti,3,2,1,0.17300973252713447,0,j,change,0.9131545305672262,1,0.49975176379211916,0.03533902202616446,0.35331260635848594,1.001033034658576,4.9084887161570805
27,22,female,174,75,75,same,catch,anti,2,1,1,0.2582464773868196,0,j,change,0.47312538365986256,0,0.49976491325560346,0.035353133645003254,0.353294325396746,1.0010538813685343,6.086570292861325
27,22,female,175,15,15,same,valid,anti,2,0,1,0.22267140645999461,0,j,change,0.6216620408349627,1,0.4998883899224893,0.03530246010450355,0.35331132348437677,1.0010756902347566,4.637985014743208
27,22,female,176,45,45,same,catch,clock,2,2,1,0.7764238463278161,0,j,change,0.3061358602544715,0,0.49984477219095425,0.03529540429462941,0.3532972118646285,1.0010856325116038,6.427933244344786
27,22,female,177,75,25,change,valid,anti,5,0,1,0.2821329583921397,0,j,change,0.5605167161747886,1,0.4997055803114563,0.035328438311807986,0.35329849473873765,1.0010788974204843,4.637592455158483
27,22,female,178,45,45,same,catch,clock,1,0,1,0.21484234434956306,0,j,change,1.2753202535723176,0,0.49949935824224667,0.0353338905288183,0.3533090784540036,1.001024054537993,6.7693635467376225
27,22,female,179,45,45,same,valid,clock,2,0,2,0.34688508459657896,1,j,change,1.3747872833791916,1,0.4998066066746105,0.03531208166259603,0.3533113234834673,1.001074407359738,5.826952101957431
27,22,female,180,135,85,change,valid,anti,2,2,1,0.642802208340072,0,j,change,0.7324995076969572,1,0.499616099818013,0.03532330681446183,0.35328726958778134,1.0010522777756705,5.473173812169989
27,22,female,181,165,215,change,valid,clock,2,2,1,0.14744172382415854,0,j,change,0.8585435269687878,1,0.49989352141983545,0.035310157350977533,0.35330330551823863,1.001075369516002,4.755204782042711
27,22,female,182,75,75,same,catch,anti,4,2,1,0.11175760856804118,0,j,change,1.0418528170966965,0,0.5001484927188358,0.03536564167097822,0.35327861018504336,1.0010769731088658,6.427674103703794
27,22,female,183,105,105,same,catch,anti,5,1,1,0.24767911974231538,0,j,change,0.4653825948571466,0,0.5006234769880393,0.03529283854550158,0.3533366602541719,1.001030148191603,5.968925573396518
27,22,female,184,165,165,same,catch,anti,3,1,1,0.23030547165217286,0,j,change,0.6100770430257398,0,0.5004592690565914,0.03537847041570785,0.3532311438293618,1.0010718416115196,6.133913812645005
27,22,female,185,15,65,change,valid,clock,1,0,2,0.337901435472304,1,j,change,0.8592606537913525,1,0.4997729312208321,0.03532491040732566,0.35327476156180637,1.0010763316713565,5.0144053973090195
27,22,female,186,45,95,change,valid,clock,3,1,1,0.3896984539442201,0,j,change,0.9286247136778911,1,0.49961417550548504,0.035358906580768235,0.35327572371807037,1.001069596580237,5.108363122747505
27,22,female,187,135,135,same,valid,anti,5,1,2,0.12411457608413912,1,j,change,1.1788189088001673,1,0.5002334831515327,0.0353601894548774,0.3533042676745026,1.0010218095067103,4.979816215405663
27,22,female,188,105,105,same,catch,clock,2,1,2,0.6997118022527502,1,j,change,0.5558804078773392,0,0.49954265525502706,0.03532875903056265,0.3533231900719329,1.0010516363381612,6.521513163253985
27,22,female,189,45,355,change,catch,anti,2,2,1,0.23491195311908086,0,j,change,1.48909075631218,0,0.5004660041468014,0.03535858586201357,0.3533017019253748,1.0010208473513558,7.041110994940027
27,22,female,190,15,15,same,valid,anti,5,1,2,0.6736508490384949,1,j,change,0.6663330124010827,1,0.49956895418108616,0.035351209334294253,0.35329528755301,1.001073445203474,5.155561356998987
27,22,female,191,75,75,same,valid,anti,5,1,2,0.6013765884390523,1,j,change,0.9281894985178951,1,0.5000926876800804,0.03533838058865513,0.35330875773433945,1.0010359211264586,5.403806865815568
27,22,female,192,15,325,change,catch,anti,3,0,1,0.24203800002396747,0,j,change,1.0568323007255458,0,0.49973765217237087,0.03531432669296919,0.35331517210761376,1.00105901286679,6.592908013411943
27,22,female,193,75,75,same,valid,clock,3,1,1,0.788871577210557,0,f,same,0.04990991014165047,1,0.49936273211278603,0.0353085537581137,0.35331260635757644,1.001063823646291,4.613414440933411
27,22,female,194,75,25,change,valid,anti,4,2,1,0.37742230751882744,0,f,same,0.5126170703124444,1,0.4997373314545257,0.035348002146747604,0.35326546072155907,1.0010673515507733,4.67328330550572
27,22,female,195,105,105,same,valid,clock,2,2,1,0.14919958255268284,0,f,same,1.0721225606939697,1,0.49914977495154744,0.03530887447686837,0.3533033055191481,1.0010657479579095,4.9662459693690835
27,22,female,196,15,15,same,catch,clock,5,0,1,0.114316301677718,0,f,same,0.5331327986732504,0,0.500618024771029,0.03529347998301091,0.3533183792933414,1.001067672269528,5.933931644600307
27,22,female,197,45,45,same,catch,clock,1,2,1,0.07169664637422102,0,f,same,0.7427400530723389,0,0.49989897363684577,0.035332607654709136,0.3533042676745026,1.0010295067540937,6.0626587958040545
27,22,female,198,105,105,same,catch,anti,1,1,1,0.40075779394373967,0,f,same,0.7475694339764232,0,0.49983643350606144,0.03537686682284402,0.3532426896999823,1.001071520892765,6.498568632820934
27,22,female,199,105,105,same,catch,anti,5,0,1,0.23808610525065887,0,f,same,0.9112446512153838,0,0.49952020495220495,0.03538007400948118,0.3532952875539195,1.0010606164596538,6.439395086205877
27,22,female,200,15,15,same,valid,anti,2,1,2,0.3796073634430286,1,f,same,1.0000141116188388,1,0.4995984602937824,0.03533998418151896,0.3533052298298571,1.0010599750221445,5.190482161950968
27,22,female,201,165,115,change,valid,anti,5,0,1,1.1051309205449797,0,f,same,2.1342277961684886,1,0.5054794775360278,0.03534062561902829,0.3533061919861211,1.0010625407721818,6.9986247585793535
27,22,female,202,135,185,change,valid,clock,5,0,1,0.44846981941645936,0,f,same,1.1051928192391642,1,0.4997094289346933,0.03532651400018949,0.353282779527035,1.0010558056810623,5.297336303615339
27,22,female,203,165,115,change,valid,anti,3,0,1,0.1471963740841602,0,f,same,0.631768205111257,1,0.4998454136275541,0.03532491040732566,0.3533260765398154,1.00105901286679,4.472888693321693
27,22,female,204,15,15,same,valid,anti,4,0,1,0.17976085937243624,0,f,same,0.6580061950007803,1,0.49998171903916955,0.03529347998301091,0.3533270386960794,1.001038486874677,4.531790270551028
27,22,female,205,75,25,change,valid,anti,1,2,1,0.15527206880778976,0,f,same,0.6317627528942467,1,0.4998508658445644,0.03530342225985805,0.3533113234834673,1.0010833874812306,4.49657280088104
27,22,female,206,165,115,change,valid,anti,1,1,1,0.1567040774234556,0,f,same,0.5214108540158122,1,0.49931462431959517,0.03533998418242845,0.3532856659949175,1.0010936504768324,4.401272547320332
27,22,female,207,75,75,same,catch,clock,1,2,1,0.38981615767534095,0,f,same,0.36936553519262816,0,0.5004611933682099,0.035313364536705194,0.35328791102529067,1.0010894811348408,6.039920808159877
27,22,female,208,165,115,change,valid,anti,3,1,1,0.1633028629266846,0,f,same,0.3660717550174013,1,0.49993681843261584,0.035351530052139424,0.35331164420222194,1.0010490705890334,4.272810630411186
27,22,female,209,45,45,same,catch,anti,1,1,1,0.13566782275029254,0,f,same,0.5993765871562573,0,0.49993296980937885,0.035323627533216495,0.3533090784530941,1.0010885189785768,6.003869149370985
27,22,female,210,105,55,change,catch,anti,2,0,1,0.17869030063502578,0,f,same,0.4044136654356407,0,0.49988518273585214,0.03535249220840342,0.35329528755301,1.0009695323733467,5.862623388468819
27,22,female,211,15,15,same,valid,anti,4,2,1,0.2928795977413756,0,f,same,1.1126780709928425,1,0.5000904426487978,0.035332928372554306,0.35328983533599967,1.001066710113264,5.17991929436721
27,22,female,212,75,75,same,valid,anti,3,1,1,0.3320819962036694,0,f,same,0.5755532877183214,1,0.49921167364391295,0.03530630872683105,0.3533158135442136,1.0010788974204843,4.6371790488638
27,22,female,213,165,165,same,valid,clock,1,0,1,0.18159248338179168,0,f,same,0.5735475135006709,1,0.4992860803631629,0.035326834718944156,0.3533074748602303,1.0010631822087817,4.660149557505065
27,22,female,214,15,325,change,catch,anti,3,1,1,0.061093688963410386,0,f,same,0.6540876549634049,0,0.5006622839400734,0.0352861034543821,0.35333217019342555,1.0010333553773307,5.921925543249017
27,22,female,215,165,215,change,valid,clock,3,1,2,0.18398279921984795,1,f,same,0.6478583373054789,1,0.5005234127802396,0.03532009962873417,0.35332094504246925,1.0010439390916872,4.685086712692282
27,22,female,216,75,125,change,catch,clock,4,1,1,0.11087916028191103,0,f,same,1.0020615792573153,0,0.5002180886585847,0.03531368525545986,0.3532959289905193,1.0010673515507733,6.357548657824736
27,22,female,217,165,165,same,valid,anti,2,2,2,0.7564488495499972,1,f,same,0.9622748314777709,1,0.4996558689263111,0.035323948251061665,0.35330683342272096,1.0010439390916872,5.650456478804699
27,22,female,218,135,135,same,valid,clock,2,1,2,0.6529651398104761,1,f,same,0.8377227952032626,1,0.49928736323818157,0.035316251004587684,0.35330779557898495,1.0010785767026391,5.3201592816931225
27,22,female,219,15,15,same,catch,clock,2,0,1,0.04701350032883056,0,f,same,0.6077341935433651,0,0.500125721697259,0.03534896430392109,0.3533000983316015,1.0010769731088658,5.862874831863337
27,22,female,220,75,125,change,valid,clock,3,0,1,0.22770348152880615,0,f,same,0.8384181131614241,1,0.4999589480166833,0.035315609567078354,0.35331453067010443,1.0010525984935157,4.872792413592833
27,22,female,221,75,75,same,valid,anti,3,0,1,0.3464155525434762,0,f,same,0.6599035663266477,1,0.4999926234722807,0.03534864358516643,0.3532811759341712,1.0010898018535954,4.744226263134806
27,22,female,222,75,75,same,catch,anti,1,2,1,0.19807357156787475,0,f,same,0.30247325367145095,0,0.49980243733352836,0.035312402381350694,0.3533167757004776,1.0010506741818972,5.67392442201708
27,22,female,223,45,45,same,valid,clock,2,1,1,0.10959885157080862,0,f,same,0.2935361087465935,1,0.5002588199222373,0.035310798788486863,0.3533344152247082,1.001015395135255,4.16692794543178
27,22,female,224,165,115,change,valid,anti,2,2,1,0.25527341582710505,0,f,same,0.6135892325783061,1,0.49947241787776875,0.03531560956798785,0.3533241522291064,1.0010304689103577,4.708156002665419
27,22,female,225,105,105,same,valid,clock,3,1,1,0.0017174481827169075,0,f,same,0.4547607150489057,1,0.49972546486515057,0.03534575711728394,0.3533036262369933,1.0010712001740103,4.201653432747662
27,22,female,226,75,75,same,valid,anti,4,2,1,0.03474569258924021,0,f,same,0.26965892858152074,1,0.5002235408746856,0.03533998418242845,0.3532773273109342,1.0010712001740103,3.9897527195334987
27,22,female,227,45,45,same,catch,clock,4,2,1,0.014174800625369244,0,f,same,0.8206974475288007,0,0.5006577938793271,0.03531977890907001,0.3532821380895257,1.0010734452043835,6.074928207137418
27,22,female,228,75,25,change,valid,anti,4,0,1,1.1455251093811967,0,f,same,0.444546468599583,1,0.5007424635932693,0.03534062561902829,0.353282779527035,1.0010529192122704,5.321118551069958
27,22,female,229,165,215,change,valid,clock,1,2,1,0.23979745977976563,0,f,same,0.3671448795030301,1,0.5000381655154342,0.035291555671392416,0.3533347359434629,1.0010525984944252,4.378220255433007
27,22,female,230,165,165,same,valid,anti,4,0,1,0.07481114484380669,0,f,same,1.0945619593085212,1,0.5005221299052209,0.03531657172334235,0.3533305666005617,1.0010291860362486,4.838757433455612
27,22,female,231,15,325,change,catch,anti,2,1,1,0.07265784006267495,0,f,same,0.43458751416801533,0,0.49991404741194856,0.03534543639852927,0.35329079749226366,1.0010724830481195,5.803886339888777
27,22,female,232,75,75,same,catch,anti,5,1,1,0.010367549946749932,0,f,same,0.445241786556835,0,0.5000875561818248,0.035350567896784924,0.3533071541423851,1.00105901286679,5.709072937185738
27,22,female,233,165,115,change,valid,anti,1,0,1,0.0040728056910666055,0,f,same,0.7581451303049107,1,0.5002787044768411,0.03530278082325822,0.3533235107906876,1.001036883281813,4.5674083177736975
27,22,female,234,165,115,change,valid,anti,1,2,2,0.5207158567773149,1,f,same,2.01970046164206,1,0.49941597140241356,0.035359868736122735,0.35330138120662014,1.0010708794552556,6.39221545363398
27,22,female,235,45,355,change,valid,anti,3,2,1,0.21663227494082093,0,j,change,2.318803283388661,1,0.49936818432797736,0.035326193281434826,0.3533212657612239,1.001045542684551,6.227279170801012
27,22,female,236,165,215,change,valid,clock,3,2,1,0.13213991798602365,0,j,change,0.8530056786430578,1,0.49992238609593187,0.035352171489648754,0.3533074748602303,1.0010432976541779,4.755848464303199
27,22,female,237,165,115,change,catch,anti,2,1,1,0.14447668022876314,0,j,change,0.7208471589783585,0,0.49978672212091624,0.035284820580272935,0.3533344152247082,1.0010593335855447,6.168856105744453
27,22,female,238,15,15,same,valid,anti,4,1,2,0.17159632559105376,1,j,change,0.944931330937834,1,0.4999727389176769,0.03534287064940145,0.353287590306536,1.0010827460437213,4.990985882608584
27,22,female,239,45,355,change,valid,anti,4,1,2,0.05631401944447134,1,j,change,0.7954591375619202,1,0.5002232201559309,0.0353226653769525,0.3532808552154165,1.0010670308320186,4.661816011427618
27,22,female,240,75,125,change,valid,clock,4,2,2,0.47710261520296626,1,j,change,0.9848745893996238,1,0.4991757531588519,0.03532587256268016,0.35332832157018856,1.0010586921480353,5.42615774609294
27,22,female,241,45,355,change,valid,anti,1,1,1,0.9899332841132491,0,j,change,2.6009840288543273,1,0.4999756253855594,0.03533260765379964,0.3533065127048758,1.001036562563968,7.487880364259581
27,22,female,242,105,155,change,valid,clock,5,1,1,0.24402645543705148,0,j,change,0.37961794715738506,1,0.5001776781127774,0.03530213938483939,0.35331998288620525,1.0010776145463751,4.47291082290576
27,22,female,243,45,45,same,catch,anti,1,0,1,0.5927082057141888,0,f,same,1.136987900569693,0,0.5002716486669669,0.035353775082512584,0.3532564806009759,1.0010827460446308,7.0998663244808995
27,22,female,244,105,105,same,valid,anti,1,2,1,0.320390519814282,0,f,same,1.3035643383991555,1,0.5000211674278034,0.035320741065334005,0.3532875903056265,1.001036883281813,5.556119343245882
27,22,female,245,105,105,same,valid,clock,4,0,1,0.0660003630528081,0,f,same,0.7936015353443509,1,0.5002158436282116,0.035331324779690476,0.3533007397691108,1.0010426562166685,4.590576709799279
27,22,female,246,135,85,change,catch,anti,1,2,1,0.10028069293184672,0,f,same,0.4594213979617052,0,0.4999336112459787,0.03534254993155628,0.35328630743242684,1.0010647858016455,5.803332458840487
27,22,female,247,15,15,same,catch,anti,4,2,1,0.08972327756509912,0,f,same,0.3928107073834326,0,0.5006577938793271,0.035323627533216495,0.3533071541414756,1.0010516363381612,5.851096761447479
27,22,female,248,135,85,change,valid,anti,2,1,1,0.011305331177027256,0,f,same,0.8218302256764218,1,0.5006622839400734,0.035286424173136766,0.3533138892325951,1.0010635029275363,4.543953524023891
27,22,female,249,45,95,change,valid,clock,1,0,1,0.04214755750308541,0,f,same,0.3765400106094603,1,0.5002062220692096,0.03531817531620618,0.35331420995134977,1.0010583714292807,4.060619666850471
27,22,female,250,105,155,change,valid,clock,5,0,1,1.2814552799591183,0,f,same,0.5582999091084275,1,0.49978287349767925,0.03532491040732566,0.3533244729469516,1.0010362418443037,5.544232228499823
27,22,female,251,135,85,change,valid,anti,1,1,1,0.22559956741406495,0,f,same,0.6259455586568947,1,0.504375243344839,0.0353348526841728,0.3533244729469516,1.0011523419834703,4.642209199620993
27,22,female,252,75,75,same,valid,clock,4,1,1,0.07306900132789451,0,f,same,0.27429074681913335,1,0.4994220650560237,0.03533998418151896,0.3533090784540036,1.0010747280794021,4.131130616505288
27,22,female,253,105,105,same,valid,anti,4,1,1,0.3059864053793717,0,f,same,0.5753230117534258,1,0.4990394477481459,0.03533389052790881,0.35330683342272096,1.001030789628203,4.601076395815653
27,22,female,254,105,105,same,valid,anti,2,1,1,0.07008503533415933,0,f,same,0.7834751657956076,1,0.5004781914549312,0.035284820580272935,0.35333666025508137,1.0010615786159178,4.590745087071809
27,22,female,255,45,45,same,valid,clock,3,2,1,0.4147238067507715,0,f,same,0.41361989327833726,1,0.5005602954206552,0.0352973286071574,0.35334724396943784,1.0010525984944252,4.590870167331559
27,22,female,256,45,355,change,valid,anti,4,2,2,1.2210767935057447,1,f,same,0.8089395823863015,1,0.5003556769443094,0.03529861148035707,0.35336424205524963,1.0010381661559222,5.874742382772638
27,22,female,257,135,85,change,valid,anti,5,2,1,0.23266211203463172,0,f,same,1.0072447127940904,1,0.5001975626664716,0.03531753387869685,0.35329849473873765,1.0010211680701104,4.990880045465019
27,22,female,258,15,15,same,valid,anti,1,0,1,0.7079834560508971,0,j,change,2.0128819838892014,1,0.500497113853271,0.035315609567078354,0.3533392260032997,1.0010545228051342,6.475831928050866
27,22,female,259,135,135,same,valid,anti,1,1,1,0.24766917746546824,0,j,change,0.6177062974384171,1,0.49958017933295196,0.03540316574890312,0.3532696300644602,1.0010413733425594,4.649619082500976
27,22,female,260,15,65,change,valid,clock,1,1,2,0.9588187676836242,1,j,change,0.36137451018294087,1,0.4997806284673061,0.03532106178408867,0.3533193414486959,1.0010570885551715,5.049893553491529
27,22,female,261,15,15,same,valid,anti,3,1,1,0.8513639200537,0,j,change,0.4719874740139858,1,0.5000118665884656,0.035330041904671816,0.35332928372645256,1.0010186023209826,5.132907397632152
27,22,female,262,45,95,change,valid,clock,1,2,1,0.25630067754991614,0,j,change,0.4461478166431334,1,0.49964207802622695,0.035312402381350694,0.35333794312919053,1.0010336760960854,4.413792119174104
27,22,female,263,165,165,same,catch,anti,4,2,1,0.11658121653726994,0,j,change,0.42440790532873507,0,0.49997498394805007,0.0353358148395273,0.35331420995134977,1.0010558056801528,5.826839850442411
27,22,female,264,165,115,change,valid,anti,4,1,2,0.22800110840307752,1,j,change,1.1448618632857688,1,0.5007982686329342,0.03528289626865444,0.3533299251639619,1.0010631822087817,5.263052445831818
27,22,female,265,45,95,change,catch,clock,5,2,1,0.37065257899485005,0,j,change,1.622041771674958,0,0.4991632451337864,0.03533549412077264,0.3533382638470357,1.0010384868755864,7.263276628144013
27,22,female,266,75,25,change,valid,anti,3,0,1,0.5779413585260045,0,j,change,0.8955451542942683,1,0.4997966643977634,0.03531657172334235,0.3532962497083645,1.001038807594341,5.308486406982411
27,22,female,267,45,95,change,valid,clock,2,1,1,0.11627044019951427,0,j,change,0.326877053802491,1,0.500520205592693,0.03530149794823956,0.3533356980988174,1.00105901286679,4.143792908141222
27,22,female,268,75,25,change,valid,anti,5,1,2,0.22122272047636216,1,j,change,1.428137221383622,1,0.4993592042073942,0.035326834718944156,0.3533324909121802,1.0010606164596538,5.508245675590842
27,22,female,269,15,15,same,valid,clock,5,0,1,0.0047684443670732435,0,j,change,0.565833910092806,1,0.5003386788566786,0.03529123495263775,0.3533193414486959,1.0010622200525177,4.3555999715199505
27,22,female,270,45,45,same,catch,clock,1,2,1,0.46886239182913414,0,j,change,0.899285374781357,0,0.49993745987012517,0.03532843831271748,0.35332190719873324,1.0010570885551715,6.604821747800997
27,22,female,271,75,75,same,catch,clock,2,1,1,0.05820786286585644,0,j,change,0.41757659883114684,0,0.5000670301906212,0.035368848857615376,0.35331228563973127,1.0010558056801528,5.7801470687281835
27,22,female,272,75,125,change,valid,clock,5,0,1,1.0243621067111235,0,j,change,0.5695760548915132,1,0.49991116094406607,0.035329721186826646,0.35329945689500164,1.0010272617237206,5.379460153598302
27,22,female,273,75,75,same,valid,anti,5,2,1,0.23286897554135066,0,j,change,1.1211325344020224,1,0.49967863994788786,0.035359868736122735,0.3533071541423851,1.001021488788865,5.108260813509332
27,22,female,274,165,165,same,valid,clock,2,2,1,0.21439397972699226,0,j,change,0.44403973318821954,1,0.49983739566141594,0.03531496813047852,0.35330587126736646,1.0010432976541779,4.484191458750502
27,22,female,275,105,55,change,valid,anti,5,0,1,0.22627083147563098,0,j,change,0.21072271374123375,1,0.5004602312119459,0.03537911185321718,0.35322601233201567,1.0010670308320186,4.237813494428337
27,22,female,276,135,85,change,valid,anti,3,1,1,0.12488686650885938,0,j,change,0.7198503655235982,1,0.49951282842357614,0.03533709771454596,0.35327668587342487,1.0010638236453815,4.6492210707001504
27,22,female,277,45,45,same,valid,clock,3,0,2,1.0875164127746757,1,j,change,0.9727790075558005,1,0.4999118023815754,0.03535313364591275,0.3533061919861211,1.0010333553773307,5.944822286608542
27,22,female,278,135,135,same,valid,anti,4,1,1,0.0398204232333228,0,j,change,0.7672477660344157,1,0.5002158436282116,0.035331966217199806,0.3532754029984062,1.0010769731088658,4.496721935036476
27,22,female,279,15,15,same,valid,anti,5,2,1,0.14885641363434843,0,j,change,0.2837798484797531,1,0.500116100138257,0.0353348526841728,0.35330298479948397,1.001036883281813,4.178887863301497
27,22,female,280,45,355,change,catch,anti,5,1,1,0.18335162498533464,0,j,change,0.5404188841685027,0,0.49953143010316126,0.03538745053720049,0.35328630743151734,1.001033034658576,6.015587886842695
27,22,female,281,15,15,same,valid,clock,1,0,1,0.9135153390088817,0,j,change,0.48294386333782313,1,0.5000481077922814,0.0353460778360386,0.353340829597073,1.0010602957408992,5.19113290002133
27,22,female,282,75,75,same,valid,anti,2,0,1,0.10831276992485073,0,j,change,0.2179308646118443,1,0.5003867866498695,0.03534896430392109,0.3532904767744185,1.0010407319059595,4.025771985741812
27,22,female,283,105,105,same,catch,anti,3,2,1,0.8420848890864363,0,j,change,0.33525967624154873,0,0.4995349580085531,0.03531272310010536,0.3533289630076979,1.001030148191603,6.462295678188639
27,22,female,284,15,65,change,catch,clock,3,1,1,0.6234327283082166,0,j,change,0.31776928657382086,0,0.5007613859916091,0.035311760943841364,0.35330202264412947,1.0010654272391548,6.287174655019044
27,22,female,285,105,155,change,valid,clock,4,1,1,0.6001052598494425,0,j,change,0.43011573451985896,1,0.5002838359741872,0.03530246010450355,0.3533427539086915,1.0010381661559222,4.944664172330704
27,22,female,286,15,15,same,valid,clock,2,2,1,0.7366653217868588,0,j,change,0.32302682682893646,1,0.4991183445272327,0.03526750177479698,0.35330875773524895,1.001061899333763,5.002160039871342
27,22,female,287,75,75,same,catch,anti,2,2,1,0.62652541791158,0,j,change,0.7523433305605067,0,0.499379088761998,0.03532491040732566,0.35331420995134977,1.001062861490027,6.945325494115423
27,22,female,288,165,115,change,catch,anti,1,0,1,0.5393438353712554,0,j,change,0.7556236405544041,0,0.5004714563638117,0.03534736071014777,0.3533241522281969,1.0010147536977456,6.899121808289237
27,22,female,289,165,115,change,valid,anti,2,0,1,0.24321696165316098,0,j,change,0.4066981441301323,1,0.5006119311174189,0.03529700788749324,0.35333954672205437,1.001029186035339,4.414910785702887
27,22,female,290,45,45,same,catch,anti,1,0,1,0.09336343384438806,0,j,change,0.7840175009732775,0,0.4991943548393465,0.035331324779690476,0.3533154928263684,1.0010769731097753,6.062225825674432
27,22,female,291,75,75,same,valid,clock,1,2,1,0.03256897534902237,0,j,change,1.3716038304073663,1,0.49971616402581276,0.03531560956798785,0.3532997776137563,1.0010641443641362,5.120633816954978
27,22,female,292,45,45,same,valid,anti,4,2,2,1.6488278696779162,1,j,change,0.8895560548789945,1,0.4997783834369329,0.03530181866699422,0.3533459610944192,1.0010493913086975,6.356769632308897
27,22,female,293,15,65,change,valid,clock,5,2,1,0.3294537071542436,0,j,change,0.7107342596118542,1,0.49987748548846866,0.03529957363662106,0.3533289630076979,1.0010577299926808,4.779309351705706
27,22,female,294,165,215,change,catch,clock,4,1,1,0.09467292794943205,0,j,change,0.37953359816128796,0,0.4996728670130324,0.035349285021766264,0.35329945689500164,1.0010439390916872,5.7567461557064235
27,22,female,295,15,15,same,valid,clock,3,2,1,0.22492605832303525,0,j,change,0.32194632581558835,1,0.4999435535237353,0.03530534657147655,0.35331998288620525,1.0010570885551715,4.3430842482903245
27,22,female,296,165,115,change,valid,anti,5,2,1,0.26540010609369347,0,j,change,0.47897497047779325,1,0.4997382936098802,0.035332286935044976,0.3532949668342553,1.0010522777756705,4.496193070040135
27,22,female,297,105,105,same,valid,anti,1,0,1,0.12176306719902641,0,j,change,0.3625278143217656,1,0.5001103272034015,0.035310157350977533,0.3533308873193164,1.0010262995674566,4.248785919683542
27,22,female,298,105,105,same,valid,clock,2,1,1,0.12041380398568435,0,j,change,0.2667506521811447,1,0.5004005775499536,0.03530566729023121,0.35333024588271655,1.0010343175335947,4.143641849674168
27,22,female,299,75,75,same,valid,anti,3,2,1,0.034181227826593386,0,j,change,0.24451651348044834,1,0.5000683130656398,0.03536243448525056,0.3533177378558321,1.00105901286679,4.095900638807507
27,22,female,300,165,215,change,valid,clock,4,1,1,0.03177968683758081,0,j,change,0.27336771864520415,1,0.5003338680780871,0.03535666154948558,0.3532818173716805,1.0010497120274522,4.084784210894213
27,22,female,301,75,25,change,valid,anti,1,0,1,0.023775512364409224,0,j,change,0.39514008668447786,1,0.507643366031516,0.03539097844168282,0.35328149665201636,1.0010407319059595,4.174223652485125
27,22,female,302,75,75,same,valid,clock,3,0,1,0.11403503145356808,0,j,change,0.27131255376025365,1,0.49970205240697396,0.03536532095313305,0.3532715543751692,1.0010651065204001,4.166251549872868
27,22,female,303,105,155,change,valid,clock,4,0,1,0.13532754029984062,0,j,change,0.3943517603283908,1,0.49972001264904975,0.035330683342181146,0.3532763651546702,1.0010785767026391,4.22521246004635
27,22,female,304,105,55,change,valid,anti,3,0,1,0.09807575245486078,0,j,change,0.3084158488873072,1,0.4997382936107897,0.03533709771454596,0.353290476773509,1.001045542684551,4.084355730824427
27,22,female,305,135,135,same,valid,anti,3,2,1,0.010854721523173794,0,j,change,0.4864108315659905,1,0.49963566365386214,0.0352982907625119,0.35332832157109806,1.001062861490027,4.295675943345486
27,22,female,306,135,135,same,catch,clock,5,0,1,0.38602911227098957,0,j,change,0.33731580328094424,0,0.5002787044759316,0.035358265143258905,0.3532718750948334,1.0010429769363327,6.121799308401933
27,22,female,307,105,105,same,catch,clock,5,2,1,0.35846687522007414,0,j,change,0.5575795750992256,0,0.500559012546546,0.0353358148404368,0.35331453067010443,1.0010388075934316,6.2631496235726445
27,22,female,308,45,95,change,valid,clock,3,0,1,1.0783743286556273,0,j,change,0.5175798701602616,1,0.5008572808583267,0.03536756598350621,0.3532475004794833,1.0010942919143417,5.345137168144902
27,22,female,309,45,355,change,valid,anti,1,0,1,0.2747019080834434,0,f,same,2.1698150544034434,1,0.4996802435416612,0.03533453196541814,0.3532696300635507,1.0010737659231381,6.251247435053301
27,22,female,310,105,155,change,catch,clock,2,0,1,0.29503194036624336,0,f,same,0.2764007545865752,0,0.4991869783107177,0.03537462179247086,0.3533017019253748,1.0010375247193224,5.885268046996316
27,22,female,311,165,165,same,valid,anti,5,2,1,0.004818797189727775,0,f,same,0.5906912063446725,1,0.5001225145115313,0.03531432669296919,0.35330683342363045,1.001050353464052,4.390709679736574
27,22,female,312,75,25,change,valid,anti,2,2,1,0.0657742564299042,0,f,same,0.5546398682736253,1,0.4998547144678014,0.03532875903056265,0.3533167757004776,1.0010509949015614,4.343625942030485
27,22,female,313,135,85,change,catch,anti,2,1,1,0.7523741195473121,0,f,same,0.7332708359654134,0,0.49915522716855776,0.03534928502267576,0.3532808552154165,1.0010602957408992,6.792388898260469
27,22,female,314,15,15,same,catch,clock,5,2,1,0.9844297526806258,0,f,same,0.3736978022434414,0,0.500078255342487,0.03532426896981633,0.3533110027656221,1.0010689551436371,6.7339991879407535
27,22,female,315,45,45,same,valid,clock,5,0,1,0.07549523765010235,0,f,same,0.29784303902670217,1,0.5005083390051368,0.03534639855388377,0.35329111821101833,1.0010343175326852,4.132017403474492
27,22,female,316,15,15,same,valid,anti,2,2,1,0.041514138239108433,0,f,same,0.2836188477349424,1,0.49944034601685416,0.03530695016434038,0.3533344152237987,1.0010490705890334,4.178241294574036
27,22,female,317,135,135,same,valid,anti,5,0,1,0.006022774869961722,0,f,same,0.424612844524745,1,0.49916933878739655,0.035326193281434826,0.3532933632413915,1.0010830667633854,4.213204113664688
27,22,female,318,45,95,change,valid,clock,5,1,1,0.19329037414354389,0,f,same,0.39347619851014315,1,0.499928479749542,0.03535569939413108,0.3533100406093581,1.0010404111862954,4.401839898550861
27,22,female,319,45,45,same,valid,anti,3,0,1,0.008449652629678894,0,f,same,0.4138325297190022,1,0.5004480439047256,0.035281934112390445,0.3533167757004776,1.0010865946678678,4.213809951128496
27,22,female,320,135,185,change,valid,clock,1,2,1,0.0021231572309261537,0,f,same,0.5188200890443113,1,0.5004894166058875,0.035317533879606344,0.35329913617715647,1.0010449012479512,4.320723746455769
27,22,female,321,135,135,same,valid,clock,4,1,1,0.027016694687517884,0,f,same,0.33655666231970827,1,0.49958595226871694,0.03531336453761469,0.35328630743242684,1.0010795388579936,4.189694797752054
27,22,female,322,75,125,change,valid,clock,4,1,1,0.8609761776624509,0,f,same,0.2808834386678427,1,0.5002132778790838,0.03532972118591715,0.3532667435965777,1.0010936504768324,5.002782554703117
27,22,female,323,135,185,change,catch,clock,5,2,1,0.0007880056373323896,0,f,same,0.32299026490727556,0,0.5004547789967546,0.035317533879606344,0.3533045883932573,1.0010721623293648,5.685891716415426
27,22,female,324,135,185,change,catch,clock,4,2,1,0.7761377653223462,0,f,same,0.8087493962475492,0,0.5006475308837253,0.03527167111769813,0.3533533376221385,1.0010481084336789,7.0758890801089365
27,22,female,325,15,15,same,valid,anti,1,1,1,0.5717639972826873,0,f,same,0.6005497758496858,1,0.5007758183301121,0.03531208166259603,0.35333217019433505,1.001031751784467,5.098082487545071
27,22,female,326,45,45,same,valid,anti,5,1,2,1.38633475710958,1,f,same,1.0839913944773798,1,0.4999239896878862,0.03534319136815611,0.35324236898122763,1.0011321367110213,6.250884381580363
27,22,female,327,165,115,change,valid,anti,4,2,1,0.16745713114596583,0,f,same,0.8039302783390667,1,0.5000416934199166,0.0353367769957913,0.35329111821101833,1.0010372040014772,4.69642251213736
27,22,female,328,15,65,change,valid,clock,3,1,1,0.7251771809987986,0,f,same,0.5611321751966898,1,0.5002937782510344,0.035294442139274906,0.3533549412150023,1.0010615786150083,5.09673130002011
27,22,female,329,165,215,change,catch,clock,1,2,1,0.0954426526250245,0,f,same,0.4576096585051346,0,0.500761065273764,0.035384564069318,0.35330971989060345,1.001062861490027,5.768869640070079
27,22,female,330,75,25,change,catch,anti,4,1,1,0.015856649041779747,0,f,same,0.2735396238222165,0,0.5005901222511966,0.03530887447686837,0.3533225486353331,1.001075369516002,5.580977922371858
27,22,female,331,135,85,change,valid,anti,3,0,1,0.10091667794495152,0,f,same,0.3951708756712833,1,0.4993069270731212,0.03530406369736738,0.35333024588180706,1.0010352796889492,4.295411029769639
27,22,female,332,135,185,change,valid,clock,4,2,1,1.0336841139733224,0,f,same,0.741846531011106,1,0.4995946116705454,0.03534254993155628,0.353279893060062,1.0010513156194065,5.450196568439424
27,22,female,333,15,65,change,valid,clock,4,1,1,0.2482060604270373,0,j,change,1.3024546519909563,1,0.4993406025278091,0.03534736071105726,0.3533154928263684,1.0010663893954188,5.544262376050028
27,22,female,334,165,215,change,valid,clock,2,1,1,0.3013039136003499,0,j,change,0.6853631721387501,1,0.4998508658436549,0.035330041904671816,0.35331517210670427,1.0010311103469576,4.778830198094511
27,22,female,335,15,325,change,catch,anti,4,0,1,0.24268809665682056,0,j,change,0.4653274312549911,0,0.5001840924851422,0.035413108026659756,0.3532847038386535,1.0010586921480353,5.992829373206405
27,22,female,336,135,185,change,valid,clock,2,2,1,0.07231563330060453,0,j,change,1.3510258826336212,1,0.49927742096042493,0.035313685256369354,0.35331260635848594,1.0010513156194065,5.14342087454861
27,22,female,337,135,185,change,valid,clock,4,1,1,0.08231724330744328,0,j,change,0.4108710140289986,1,0.49965811395668425,0.03533004190558131,0.35326481928495923,1.0010949333509416,4.2842670200552675
27,22,female,338,45,355,change,valid,anti,3,1,1,0.1890129499761315,0,j,change,0.8240726902322422,1,0.499304682042748,0.03531272310010536,0.3533260765398154,1.0010577299917713,4.766153153401319
27,22,female,339,135,85,change,valid,anti,1,2,1,0.021115151453159342,0,j,change,0.31020353444728244,1,0.5002722901044763,0.035312402381350694,0.35330875773433945,1.0010795388579936,4.214461330635459
27,22,female,340,105,105,same,valid,anti,2,2,1,0.2233994377156705,0,j,change,0.45041080847386183,1,0.499136304770218,0.03531432669296919,0.3533324909121802,1.001036883281813,4.531246011062649
27,22,female,341,165,165,same,valid,clock,5,1,1,0.09574476956004219,0,j,change,0.5559708505270464,1,0.4996462473682186,0.03534960574052093,0.3533052298298571,1.0010631822087817,4.413690772091286
27,22,female,342,105,105,same,valid,anti,5,0,1,0.4156792275043699,0,j,change,2.78012654273698,1,0.4997251441473054,0.03530630872683105,0.35330394695574796,1.0010202059138464,6.898407888651491
27,22,female,343,15,65,change,valid,clock,2,2,1,0.27974713261573925,0,j,change,2.5469660339740585,1,0.5001773573940227,0.03530791232060437,0.3532959289905193,1.0010837081999853,6.580680936934186
27,22,female,344,165,165,same,valid,anti,4,2,1,0.339027157810051,0,j,change,0.4526603288386468,1,0.5004602312128554,0.03530278082325822,0.3533093991727583,1.0010756902347566,4.626620992059543
27,22,female,345,45,95,change,valid,clock,1,1,1,0.2793013337404773,0,j,change,0.9072658160785068,1,0.5000166773679666,0.035321703220688505,0.3533093991718488,1.0010695965811465,5.02586178695401
27,22,female,346,105,155,change,valid,clock,3,0,1,0.0731122983397654,0,j,change,0.5404592947143101,1,0.5007081467019816,0.03534094633778295,0.35330587126736646,1.001072483049029,4.485855988362346
27,22,female,347,75,125,change,catch,clock,3,1,1,0.03505422389571322,0,j,change,0.47272127820451715,0,0.4996106476019122,0.03530598800807638,0.3533026640816388,1.0010936504768324,5.861772521983767
27,22,female,348,135,185,change,valid,clock,2,0,1,0.01893137840397685,0,j,change,0.8993944191106493,1,0.5007645931782463,0.03532587256268016,0.35334243318993686,1.0010705587374105,4.709058504848144
27,22,female,349,135,85,change,valid,anti,4,1,1,0.5079127696690193,0,j,change,4.961417550620354,1,0.5004069919223184,0.03533998418242845,0.3533045883923478,1.001041694061314,10.16209343302944
27,22,female,350,165,115,change,catch,anti,5,1,1,0.0201597306986514,0,j,change,0.5833829912653528,0,0.49927453449345194,0.03530246010450355,0.3533138892325951,1.0010548435238888,5.944351792400084
27,22,female,351,105,55,change,valid,anti,4,0,1,0.1628047869171496,0,j,change,0.35712466781569674,1,0.5039730622020215,0.03533164549844514,0.35330426767359313,1.0010760109535113,4.418242731393548
27,22,female,352,135,135,same,catch,clock,2,2,1,0.1375058611329223,0,j,change,0.36025840940237686,0,0.4991228345888885,0.03535120933338476,0.3532997776137563,1.0010529192131798,5.932109321430289
27,22,female,353,15,65,change,valid,clock,4,2,2,0.9921209057865781,1,j,change,0.3934579175484032,1,0.5000339961725331,0.03534319136815611,0.3532763651546702,1.00104073190505,5.556428836708619
27,22,female,354,135,85,change,catch,anti,5,0,1,0.7923863325122511,0,j,change,0.6070135388154085,0,0.4991555478873124,0.03532651400018949,0.3533344152237987,1.001032072502312,6.756933455377293
27,22,female,355,165,115,change,valid,anti,2,1,1,0.18795457854685083,0,j,change,0.41583188956519734,1,0.49980339948979235,0.035358265143258905,0.35331902072994126,1.0010564471176622,4.5076026347678635
27,22,female,356,15,65,change,valid,clock,2,0,1,0.66332691682328,0,j,change,0.8983491971457624,1,0.4999092366324476,0.03534671927354793,0.3532754029984062,1.0010872361044676,5.497181524811822
27,22,female,357,45,45,same,valid,anti,1,1,1,0.456087207240671,0,j,change,0.478388376131079,1,0.5002459911775077,0.035356020112885744,0.35328438311989885,1.0010449012470417,5.097724565570388
27,22,female,358,105,55,change,catch,anti,5,0,1,0.07043109071855724,0,j,change,0.5075942960838802,0,0.49979955086564587,0.03529668716873857,0.3533373016916812,1.0010651065204001,6.097868247509723
27,22,female,359,105,55,change,valid,anti,2,1,1,1.7193718533499123,0,j,change,0.4514775185871258,1,0.5004592690565914,0.035276481896289624,0.35331356851384044,1.0010651065204001,6.146156604333555
27,22,female,360,45,45,same,catch,anti,2,1,1,0.6266851357822816,0,j,change,0.2599979217438886,0,0.4990218082248248,0.035329079749317316,0.35331420995134977,1.0010683137061278,6.250200930212486
27,22,female,361,15,15,same,valid,clock,4,1,2,0.2830017851201774,1,j,change,0.6886248804521529,1,0.49981302104788483,0.03534190849404695,0.3532798930591525,1.001050353464052,4.884415256199645
27,22,female,362,15,15,same,valid,clock,5,2,2,0.0081372726981499,1,j,change,0.6744529662946661,1,0.5006571524418177,0.035331645497535646,0.35331164420222194,1.0010625407712723,4.520881989019472
27,22,female,363,105,55,change,valid,anti,1,0,2,0.12777814482251415,1,j,change,0.5874792094155055,1,0.49934028180905443,0.03531817531620618,0.3533270386960794,1.0010449012479512,4.55420337023952
27,22,female,364,45,45,same,valid,clock,1,2,2,0.16283268943698204,1,j,change,0.5070599788714389,1,0.5003851830560961,0.035310157350977533,0.35331164420313144,1.0010654272391548,4.567584071573947
27,22,female,365,135,135,same,catch,clock,4,1,1,0.01942977513135702,0,j,change,0.7589959967899631,0,0.5000041693419917,0.03530406369736738,0.3533093991727583,1.00105901286679,6.1568477593637
27,22,female,366,165,215,change,valid,clock,1,0,1,0.33055345128468616,0,j,change,0.6573763036412856,1,0.500574407039494,0.035356020112885744,0.35330202264412947,1.0010372040014772,4.944106763377931
27,22,female,367,135,135,same,valid,anti,1,0,1,1.3655630952944193,0,j,change,0.42627673269907973,1,0.5000285439564323,0.03530791232060437,0.35331549282545893,1.0010564471176622,5.697242910354362
27,22,female,368,15,15,same,valid,clock,4,0,1,0.662296768631677,0,j,change,0.45412408859829156,1,0.4999586272988381,0.03531977890907001,0.35330106048786547,1.001049391307788,4.956162255395611
27,22,female,369,165,215,change,catch,clock,2,0,1,0.6040436844405122,0,j,change,0.2187749960075962,0,0.49968986509884417,0.03530662944649521,0.3532959289905193,1.0010865946678678,6.15687213397905
27,22,female,370,105,55,change,valid,anti,2,0,1,0.16156360587865493,0,j,change,0.6264048277125767,1,0.4997402179214987,0.03532587256268016,0.3533215864799786,1.0010413733425594,4.602554267193227
27,22,female,371,75,25,change,valid,anti,2,0,1,1.1720863836344506,0,f,same,2.410113476659717,1,0.4993181522240775,0.035326193281434826,0.35331068204595795,1.0010509949015614,7.345504390958013
27,22,female,372,15,325,change,valid,anti,4,1,1,0.17678426990642038,0,f,same,1.3067186059779488,1,0.5000269403644779,0.03530598800898588,0.3533017019253748,1.001083066762476,5.261361296576069
27,22,female,373,105,105,same,valid,anti,5,1,1,0.0065317553126078565,0,f,same,0.269196131620447,1,0.5006581145980817,0.03530374297861272,0.3533000983316015,1.0010391283121862,4.014680894600133
27,22,female,374,165,165,same,valid,anti,5,0,1,0.10600584092753706,0,f,same,0.34659547568662674,1,0.4995497110639917,0.035291876389237586,0.3533231900728424,1.001038807594341,4.342668596964359
27,22,female,375,45,355,change,valid,anti,3,0,1,0.003975307232394698,0,f,same,0.5608537914395129,1,0.5002674793249753,0.03532619328234432,0.35330202264412947,1.0010471462774149,4.366714475121626
27,22,female,376,15,65,change,valid,clock,5,0,1,0.11067197605643742,0,f,same,0.6295847527799197,1,0.500665491125801,0.03535249220840342,0.35329015605566383,1.0010574092730167,4.425910792758259
27,22,female,377,165,115,change,catch,anti,4,0,1,0.15627335232420592,0,f,same,0.6571886832516611,0,0.5002540091436458,0.03530310154201288,0.35330394695574796,1.0010477877149242,6.051440700090097
27,22,female,378,15,65,change,valid,clock,3,0,1,0.007529831641477358,0,f,same,0.27485906020501716,1,0.5000875561818248,0.035327476156453486,0.3533174171370774,1.0010676722686185,4.060903182105903
27,22,female,379,165,115,change,valid,anti,4,0,1,0.4939781872853928,0,f,same,0.2699536689888191,1,0.4994435532025818,0.03532940046807198,0.35330971989060345,1.0010538813685343,4.566230959738277
27,22,female,380,45,45,same,valid,anti,1,0,1,0.037291877672942064,0,f,same,0.3856872262267643,1,0.5004615140869646,0.035314005974214524,0.35331998288620525,1.0010731244856288,4.225808355233312
27,22,female,381,135,185,change,valid,clock,3,1,1,0.43487616092170356,0,f,same,0.563050393233425,1,0.5003948046150981,0.03534415352442011,0.35329368395923666,1.0010420147800687,4.873920701680618
27,22,female,382,165,215,change,valid,clock,4,2,1,0.6261790418084274,0,f,same,0.6833500213915613,1,0.4999211032209132,0.03528898992226459,0.3533363395354172,1.0010875568232223,5.1318050877516725
27,22,female,383,45,355,change,valid,anti,5,2,1,0.9257302281785087,0,f,same,0.2935861408504934,1,0.500294098969789,0.035316571722432855,0.3533119649209766,1.0010439390916872,4.932442868789622
27,22,female,384,15,65,change,catch,clock,5,2,1,0.2646371165092205,0,f,same,0.29892193644718645,0,0.5000413727011619,0.035313364536705194,0.3532972118646285,1.0010692758623918,6.015747604713397
27,22,female,385,135,135,same,valid,anti,3,1,1,0.1402720591868274,0,f,same,0.46353814210306155,1,0.5003534319139362,0.035353775082512584,0.3533026640816388,1.000965363031355,4.4970628589235275
27,22,female,386,75,75,same,valid,clock,2,1,1,0.7617451967580564,0,f,same,0.6270090615835215,1,0.4992626679040768,0.0353611516102319,0.35332479366570624,1.0010375247193224,5.273209604367366
27,22,female,387,135,135,same,catch,anti,5,1,1,0.2580983053867385,0,f,same,0.5142155318890218,0,0.4999579858613288,0.03530278082325822,0.35333217019433505,1.0010602957408992,6.144870522688507
27,22,female,388,75,125,change,valid,clock,2,1,1,0.03023414383187628,0,f,same,0.9434085589537062,1,0.5007158439493651,0.035288669203509926,0.3533215864799786,1.0010933297589872,4.792069462520885
27,22,female,389,105,105,same,valid,anti,1,1,1,0.004569278106828278,0,f,same,1.274621728429338,1,0.4990647845188505,0.03532426896981633,0.35328245880828035,1.0010821046071214,5.013241509455838
27,22,female,390,135,135,same,catch,clock,2,1,1,0.036401562798346276,0,f,same,0.5942778026155793,0,0.5006128932727734,0.03530310154110339,0.35331805857458676,1.0010336760960854,5.980842835690964
27,22,female,391,15,325,change,valid,anti,1,1,1,0.7519103604299744,0,f,same,0.414161907736343,1,0.5005330343383321,0.035332286935044976,0.353294325396746,1.0010631822087817,5.039108427908104
27,22,female,392,135,135,same,valid,anti,3,0,1,0.3082070610689698,0,f,same,0.6930713233296046,1,0.49905291792947537,0.035362113766495895,0.3532895146181545,1.0010724830481195,4.696126488855953
27,22,female,393,45,45,same,catch,anti,4,0,1,0.13064216205384582,0,f,same,1.019873649694091,0,0.4992533670638295,0.03531304381795053,0.35332639725857007,1.0010359211264586,6.450407922005979
27,22,female,394,75,75,same,valid,anti,4,0,1,0.06972871695234062,0,f,same,0.6269032244408663,1,0.5007354077843047,0.03533132477878098,0.35321318358819553,1.0011517005468704,4.497106797374727
27,22,female,395,165,215,change,valid,clock,3,0,2,1.6740129403551691,1,f,same,0.41346434474962734,1,0.49961866556623136,0.03533998418242845,0.3532705922198147,1.0010686344248825,5.933272247127206
27,22,female,396,165,215,change,catch,clock,1,2,1,0.22658417356342397,0,f,same,0.6827865187851785,0,0.4995083383628298,0.03530406369736738,0.3533026640807293,1.0010772938276205,6.262621400013813
27,22,female,397,45,45,same,valid,clock,2,2,1,0.1604298655747698,0,f,same,0.307181402938113,1,0.5002498398016542,0.03533164549844514,0.3533164549817229,1.0010407319059595,4.331967820377031
27,22,female,398,105,105,same,valid,anti,4,2,1,0.18368388946964842,0,f,same,0.39226805148700805,1,0.49938422025934415,0.03531913747156068,0.3532831002457897,1.0010708794552556,4.390226998221806
27,22,female,399,135,135,same,catch,anti,4,1,1,0.04503306288188469,0,f,same,0.8974685038283496,0,0.49938967247544497,0.035310157350977533,0.3533071541414756,1.0010413733425594,6.215526116438014
27,22,female,400,135,135,same,valid,clock,5,0,1,1.1047364366495458,0,f,same,0.6001168057191535,1,0.4999692110131946,0.035316251004587684,0.35332286935408774,1.001066710113264,5.544864044171845
27,22,female,401,75,75,same,valid,clock,5,2,1,0.25536931069291313,0,f,same,0.3894431619264651,1,0.5001305324758505,0.035352171489648754,0.35329015605475433,1.0010631822087817,4.449642045953624
27,22,female,402,15,15,same,catch,anti,3,0,1,0.08609113925012934,0,f,same,0.31054670336561685,0,0.5000006414375093,0.03533260765379964,0.35333986743989954,1.0010686344248825,5.791929949923542
27,22,female,403,165,165,same,catch,clock,3,2,1,0.15710978647166485,0,f,same,0.5003771650908675,0,0.49986465674464853,0.03533453196632763,0.3532686679081962,1.001069596580237,6.039562886185195
27,22,female,404,105,105,same,valid,clock,5,2,1,0.1458990672863365,0,f,same,0.5202241951410542,1,0.4999839640695427,0.03531721316085168,0.35328245880828035,1.0010734452043835,4.591095953236618
27,22,female,405,75,75,same,valid,clock,4,2,1,0.10333906564392237,0,f,same,0.31437736650241277,1,0.4990096209176045,0.03529283854550158,0.3533305666005617,1.001038807594341,4.2831287896915455
27,22,female,406,45,95,change,valid,clock,2,0,1,0.17650813117870712,0,f,same,0.2489029819780626,1,0.4999701731685491,0.03529893219911173,0.3533270386960794,1.0010558056810623,4.23729970320619
27,22,female,407,45,45,same,valid,anti,2,1,1,0.15966976245726983,0,f,same,0.38532128628685314,1,0.5001164208579212,0.03531881675371551,0.3533324909121802,1.0010262995674566,4.449795028733206
27,22,female,408,165,165,same,valid,anti,2,1,1,0.06458535252386355,0,f,same,0.4798354585218476,1,0.4998303398524513,0.0353855262246725,0.3532725165314332,1.0010577299917713,4.295873826730713
27,22,female,409,135,135,same,valid,clock,1,0,1,0.13083202747475298,0,f,same,0.2910710654714421,1,0.5001144965463027,0.035331966217199806,0.35328534527616284,1.0010487498711882,4.2605752152503555
27,22,female,410,45,45,same,valid,anti,5,0,1,0.18146612024793285,0,f,same,0.2941515677694042,1,0.500570558416257,0.035318496034960845,0.3532933632413915,1.0010651065204001,4.579801847210547
27,22,female,411,15,65,change,catch,clock,3,2,1,0.7265190676844213,0,f,same,0.3249007856966273,0,0.49974342510813585,0.03533100406093581,0.3533061919852116,1.0010442598104419,6.427859479063045
27,22,female,412,15,325,change,catch,anti,3,0,1,0.22475800176925986,0,f,same,0.5710029320098329,0,0.5000875561818248,0.03533645627794613,0.3533177378567416,1.0010554849613982,6.180974137892008
27,22,female,413,75,25,change,catch,anti,5,0,1,0.7514081150784477,0,f,same,0.09003597821447329,0,0.4994720971599236,0.035355378675376414,0.3533222279165784,1.001036883281813,6.21554952889619
27,22,female,414,135,185,change,valid,clock,1,1,1,1.3297070748594706,0,f,same,0.41932772246764216,1,0.499679922821997,0.03532009962873417,0.353347564687283,1.0010461841220604,5.67353827680472
27,22,female,415,165,165,same,valid,anti,4,1,1,0.1430315221505225,0,f,same,0.4126878849820059,1,0.49977645912531443,0.03531432669296919,0.3533113234834673,1.0010837081999853,4.414123100785218
27,22,female,416,75,75,same,valid,anti,2,2,1,0.49530179300927557,0,f,same,0.2661887531676257,1,0.499819114701495,0.03530438441521255,0.35333313234968955,1.00104073190505,4.696859651609884
27,22,female,417,165,165,same,catch,clock,1,1,1,0.5196420908550863,0,f,same,0.28088311794999754,0,0.499132456146981,0.03530759160184971,0.35330971989060345,1.001055164243553,6.474244691626154
27,22,female,418,75,125,change,valid,clock,1,0,1,0.3914216750617925,0,f,same,0.25767656040807196,1,0.4998059652380107,0.035367245264751546,0.3533061919861211,1.0010702380186558,4.8846217989876095
27,22,female,419,165,165,same,valid,anti,3,0,1,0.7092403523029134,0,f,same,0.28468459569285187,1,0.5000160359304573,0.03529123495263775,0.3532981740208925,1.001082425325876,5.120383656435479
27,22,female,420,15,15,same,valid,anti,3,0,1,0.6908304623666481,0,f,same,0.289990564458094,1,0.49977325193958677,0.03533453196541814,0.35328342096363485,1.0010413733425594,4.943217089940845
27,22,female,421,45,45,same,valid,clock,3,1,1,0.5715577752134777,0,f,same,0.3176143794826203,1,0.5006706226240567,0.03530342225985805,0.3533347359425534,1.0010644650828908,5.014860497024529
27,22,female,422,135,135,same,catch,clock,4,1,1,0.17633815031331324,0,f,same,0.4897989030141616,0,0.5004047468919453,0.03534190849404695,0.353299136176247,1.0010400904684502,6.133693158238202
27,22,female,423,165,165,same,valid,anti,1,0,1,0.03853466230611957,0,f,same,2.6441845055705926,1,0.5004695320521932,0.035321703220688505,0.35329657042802864,1.0010702380177463,6.580995882613934
27,22,female,424,165,165,same,valid,clock,3,0,1,0.08003789611120737,0,f,same,0.32802843362969725,1,0.5003447725111982,0.03531657172334235,0.3532850245574082,1.0010574092730167,4.2965168675536916
27,22,female,425,105,105,same,catch,clock,1,1,1,0.036104256641920074,0,f,same,0.30009704945314297,0,0.49952694004332443,0.03530181866699422,0.35328534527616284,1.0010946126330964,5.6852111515145225
27,22,female,426,165,165,same,valid,anti,2,0,1,0.02978353417802282,0,f,same,0.39424271599909844,1,0.5006100068048909,0.03531272310010536,0.35329753258338314,1.0010776145463751,4.203004620272623
27,22,female,427,165,165,same,catch,anti,1,1,1,0.5368566625129461,0,f,same,0.4747780466823315,0,0.49977164834672294,0.03530983663313236,0.3533081162977396,1.0010227716629743,6.215851325112453
27,22,female,428,165,165,same,valid,clock,4,0,1,0.025383595499079092,0,f,same,0.36983763299394923,1,0.4995311093844066,0.03531111950724153,0.3533296044452072,1.0010490705890334,4.166388176002329
27,22,female,429,105,55,change,catch,anti,3,2,1,0.33858200037320785,0,f,same,0.6639750891436051,0,0.49943296948913485,0.03529668716964807,0.35334628181317385,1.0010458634033057,6.545379759704701
27,22,female,430,105,55,change,valid,anti,2,2,1,0.21057133455542498,0,f,same,1.0983547776486375,1,0.49948749165378103,0.03534287065031094,0.353283741683299,1.0010910847277046,5.320457229287058
27,22,female,431,135,85,change,valid,anti,4,0,1,0.16114410592945205,0,f,same,0.22532599443547952,1,0.49949486818150035,0.03530053579197556,0.3533270386960794,1.001078255982975,4.36627316630711
27,22,female,432,105,155,change,valid,clock,2,2,1,0.24863550265217782,0,f,same,0.3059966683749735,1,0.4999660038265574,0.03532779687520815,0.3532798930591525,1.001075369516002,4.401533291555097
27,22,female,433,135,135,same,catch,clock,2,0,1,0.27213231053974596,0,f,same,0.3688860608626783,0,0.5006908278974151,0.035314647411723854,0.3533456403756645,1.0010525984944252,6.004781914549312
27,22,female,434,165,165,same,valid,anti,1,1,1,0.26743282067582186,0,f,same,0.5343929021128133,1,0.5002026941647273,0.0353601894548774,0.3533052298307666,1.0010654272391548,4.650030885202796
27,22,female,435,45,45,same,valid,clock,4,1,1,0.3100303463952514,0,f,same,1.3801647723958013,1,0.49950128255386517,0.035315930286742514,0.35333698097292654,1.0010689551436371,5.497491018274559
27,22,female,436,15,325,change,valid,anti,4,2,1,0.41108076400269056,0,f,same,0.6390039377829453,1,0.49907857541893463,0.03534030490027362,0.35329208036637283,1.001046504840815,4.872227628113251
27,22,female,437,135,85,change,catch,anti,3,0,1,0.23142445889880037,0,f,same,0.531906691408949,0,0.5003085313073825,0.03536564167097822,0.3532968911458738,1.0010644650828908,6.109917645873793
27,22,female,438,105,155,change,catch,clock,2,0,1,0.26201780758037785,0,f,same,0.3189206664019366,0,0.5006199490826475,0.03528449986151827,0.3533090784530941,1.0010984612563334,5.968993245024649
27,22,female,439,15,65,change,valid,clock,4,0,1,0.2531467306907871,0,f,same,0.43891432900181826,1,0.5005952537494522,0.03532747615554399,0.35330009833251097,1.0010397697496956,4.544037231582479
27,22,female,440,135,135,same,valid,anti,5,2,1,0.9676699600186112,0,f,same,0.48674277533245913,1,0.4996048746661472,0.03534126705653762,0.35327957234130736,1.0011517005468704,5.332197775623172
27,22,female,441,75,125,change,valid,clock,2,0,1,0.5368858479059782,0,f,same,0.4038578600757319,1,0.49943842170523567,0.035354416520021914,0.3532686679081962,1.0010195644772466,4.837103808276879
27,22,female,442,165,165,same,valid,anti,5,1,1,0.46376809734920243,0,f,same,1.1948920429067584,1,0.5003996153945991,0.035323627533216495,0.35330683342363045,1.0010487498711882,5.615794493774047
27,22,female,443,105,155,change,valid,clock,1,1,1,0.36782736871555244,0,f,same,0.3378196522253347,1,0.49968986509975366,0.03530919519562303,0.3533315287568257,1.00104073190505,4.590467986188742
27,22,female,444,15,15,same,valid,clock,3,1,1,0.949391885435034,0,f,same,0.7926457938719977,1,0.5000798589344413,0.03529476285712008,0.3533456403756645,1.0010644650828908,5.650943008943614
27,22,female,445,105,155,change,catch,clock,4,1,1,0.27763391766166023,0,f,same,0.32073272657635243,0,0.49983162272746995,0.0353723767620977,0.3533177378558321,1.0010497120265427,6.003836756790406
27,22,female,446,45,355,change,valid,anti,2,0,1,0.41318499883527693,0,f,same,0.3183074524104086,1,0.5001815267360143,0.03531657172334235,0.3534235749993968,1.0009579865036358,4.778908132718243
27,22,female,447,45,355,change,valid,anti,5,0,1,0.32567692474458454,0,f,same,0.48570685420600057,1,0.5004255936019035,0.03529347998301091,0.3533212657612239,1.001054202087289,4.6617444911762504
27,22,female,448,105,155,change,valid,clock,3,1,1,0.5900629185780417,0,f,same,0.4384826417463046,1,0.4994672863804226,0.035331645497535646,0.3532920803672823,1.0010420147800687,5.002159398433832
27,22,female,449,135,185,change,valid,clock,3,0,1,0.3064556167128103,0,f,same,0.9230596042725665,1,0.5001446440955988,0.03534896430392109,0.35325423557060276,1.001086915385713,5.238825682376955
27,22,female,450,165,215,change,catch,clock,5,2,1,0.2891044189245804,0,f,same,1.467454116391309,0,0.49933066025096196,0.035363396641514555,0.3533129270772406,1.0010545228060437,7.193225909702051
27,22,female,451,135,135,same,valid,anti,4,0,1,1.6363480669333512,0,j,change,1.6471989398323785,1,0.5034634403236851,0.03531111950724153,0.35333024588271655,1.0010320725032216,7.2091903201990135
27,22,female,452,135,185,change,valid,clock,5,1,1,0.06831081995551358,0,j,change,0.42552785473253607,1,0.499131493990717,0.03529797004375723,0.3533187000120961,1.0010564471176622,4.189236490850817
27,22,female,453,45,45,same,valid,clock,4,2,1,0.0008797311611488112,0,j,change,0.35195789092904306,1,0.49968345072647935,0.0353367769957913,0.3532718750939239,1.0010574092730167,4.1782922888332905
27,22,female,454,135,135,same,valid,clock,4,0,1,0.0829962046154833,0,j,change,0.3827629138950215,1,0.49988967279659846,0.03531560956798785,0.35336520421151363,1.0010397697496956,4.248744867700225
27,22,female,455,15,15,same,valid,clock,1,1,1,0.0422142669749519,0,j,change,0.3485993255926587,1,0.5004021811428174,0.03532747615554399,0.35330587126736646,1.0010471462774149,4.249767639363199
27,22,female,456,15,15,same,catch,clock,2,0,1,0.004721298731055867,0,j,change,0.33795467476193153,0,0.49992270681468653,0.0353480021476571,0.35332286935408774,1.0010211680701104,5.673905178899986
27,22,female,457,165,165,same,catch,anti,2,1,1,1.0081747967769843,0,j,change,0.24981029493937967,0,0.5002036563209913,0.03533004190558131,0.3533026640816388,1.0010718416106101,6.592726807393774
27,22,female,458,15,325,change,valid,anti,4,0,1,0.08931532348651672,0,j,change,0.5509923354666171,1,0.5006683775936835,0.03531945819122484,0.3533084370164943,1.001037845438077,4.403085248932257
27,22,female,459,135,135,same,valid,anti,2,1,1,0.05461324862881156,0,j,change,0.3598405130478568,1,0.49928928754889057,0.03537686682284402,0.35324493473035545,1.001095574788451,4.225179426029172
27,22,female,460,165,165,same,catch,anti,3,0,1,0.06930184047632792,0,j,change,0.6378006015402207,0,0.499192430527728,0.03534415352442011,0.3533148513888591,1.0010452219657964,6.026231254798404
27,22,female,461,165,165,same,valid,clock,3,1,1,0.05589387805866863,0,j,change,0.49087844187124574,1,0.5008098145026452,0.035317533879606344,0.3533129270772406,1.001069596580237,4.379035201433908
27,22,female,462,15,15,same,valid,anti,5,0,1,0.2405444134346908,0,j,change,0.301582618077191,1,0.500247594771281,0.035309515913468204,0.3533093991727583,1.0010535606506892,4.331428692385089
27,22,female,463,75,25,change,catch,anti,2,2,1,0.3118462551929042,0,j,change,0.39892873568169307,0,0.49981943542024965,0.03530310154201288,0.35333666025508137,1.0010307896291124,6.027227086098719
27,22,female,464,165,215,change,valid,clock,5,0,1,0.04183613972782041,0,j,change,0.5858150005224161,1,0.5004647212726923,0.03533164549844514,0.35329175964852766,1.001053239931025,4.485031420802443
27,22,female,465,75,75,same,valid,anti,2,1,1,0.34069329101566836,0,j,change,0.9773338533250353,1,0.5003223222083761,0.03533645627794613,0.3532715543760787,1.0010567678355073,5.297931236646036
27,22,female,466,75,25,change,valid,anti,3,1,1,0.20484875230886246,0,j,change,0.3025851844677163,1,0.499200127774202,0.03537943257106235,0.3532699507823054,1.0010763316713565,4.3422458898303375
27,22,female,467,135,85,change,valid,anti,2,0,1,0.1953811387948008,0,j,change,0.6157393301728007,1,0.5005131497837283,0.03530759160184971,0.35334980971765617,1.0010304689094482,4.685876001203724
27,22,female,468,75,125,change,valid,clock,4,0,1,0.10016683782396285,0,j,change,0.32843253908413317,1,0.4997119946838211,0.03530181866699422,0.35333120803807105,1.001063823646291,4.3308161198301605
27,22,female,469,165,165,same,valid,anti,3,1,1,0.3899556702726841,0,j,change,0.34304223415074375,1,0.500636305732769,0.035324268970725825,0.35330106048786547,1.0010532399319345,4.602889418146333
27,22,female,470,105,105,same,valid,anti,3,1,1,0.26192383702618827,0,j,change,0.5656655328193665,1,0.5003393202950974,0.03536243448525056,0.35327796874753403,1.0010712001740103,4.626857682397713
27,22,female,471,15,15,same,valid,clock,5,1,1,0.5106497823280733,0,j,change,0.7090116799308817,1,0.4996125719126212,0.035352171489648754,0.353299136176247,1.0010654272391548,5.07283872536118
27,22,female,472,105,155,change,catch,clock,5,1,1,0.8276195173957603,0,j,change,1.4713954274502612,0,0.5003210393333575,0.03530727088400454,0.3533119649209766,1.0010449012479512,7.664756038971063
27,22,female,473,75,75,same,valid,clock,1,1,1,0.10566748278870364,0,j,change,0.9582036293795682,1,0.5003252086762586,0.035438765515209525,0.35327476156180637,1.0010500327452974,4.9800490571187765
27,22,female,474,15,15,same,valid,clock,2,0,1,0.25466116399002203,0,j,change,1.7860903053824586,1,0.49927838311577943,0.035392261315791984,0.35329368396014615,1.0010609371784085,5.814379932251541
27,22,female,475,75,75,same,valid,clock,5,0,1,0.16393660291032575,0,j,change,0.2904491920780856,1,0.5003483004156806,0.03532426896981633,0.3532718750939239,1.0010942919143417,4.296707374412108
27,22,female,476,15,65,change,valid,clock,3,2,1,0.035369490295124706,0,j,change,0.30702938231479493,1,0.4998922385457263,0.03534896430392109,0.35329368396014615,1.0010266202862113,4.131569359569767
27,22,female,477,15,325,change,valid,anti,2,0,1,0.16522076024466514,0,j,change,0.3452750771493811,1,0.4997957022414994,0.035310798788486863,0.3533260765398154,1.0010631822078722,4.378763552766941
27,22,female,478,15,325,change,valid,anti,3,2,1,0.1533253068155318,0,j,change,0.26997772288541455,1,0.4998479793766819,0.03537526322998019,0.3533129270763311,1.0010349589701946,4.1898641371799386
27,22,female,479,105,55,change,valid,anti,4,1,1,0.07479254316422157,0,j,change,0.39804643877232593,1,0.5003871073686241,0.035330362624335976,0.3533017019253748,1.0010362418452132,4.272788500826209
27,22,female,480,75,75,same,catch,clock,4,1,1,0.12267807740772696,0,j,change,0.2919087824939197,0,0.5004826815156775,0.035320099627824675,0.3532962497083645,1.0010712001740103,5.7809469409539815
