subject,age,gender,ntrial,memory_ori,test_ori,type,trial_type,which_change,trial,quest,pas,pas_rt,vis,test_key,test,test_rt,contrast,fix_dur,target_dur,mask_dur,retention_dur,trial_dur
28,23,female,1,15,65,change,catch,clock,4,2,2,3.2522885170358222,1,j,change,2.624916050825618,0,0.5022473041651665,0.035325363587276115,0.3533136110236228,1.0010625544025515,11.129363512914551
28,23,female,2,135,135,same,valid,clock,1,1,1,1.323444382509365,0,j,change,2.3317280091649764,0.2,0.5000128289092345,0.035310931064486795,0.3533071965690624,1.0010660823526223,7.393832437768538
28,23,female,3,105,105,same,catch,clock,1,1,1,0.876778006631298,0,j,change,2.560153472240472,0,0.4994531677464238,0.035328250091879454,0.35327544501876673,1.0010943059527335,8.665446423588833
28,23,female,4,45,355,change,valid,anti,4,2,2,1.9429841582215204,1,j,change,2.167610019121412,0.2,0.49944322534179264,0.03540105415140715,0.3532536358732159,1.0010965510118695,7.8056728153489985
28,23,female,5,45,45,same,valid,clock,5,0,2,1.6826682719907922,1,f,same,1.389864776882746,0.2,0.499759137230285,0.03535454935570215,0.3533075172917961,1.001081156320879,6.7928281907582
28,23,female,6,165,215,change,valid,clock,2,2,1,0.7535723701216739,0,j,change,0.9025483986634981,0.11397766455402543,0.5000205262547297,0.0353314573192165,0.3532581259913741,1.0010962302891357,5.355767460626453
28,23,female,7,165,215,change,valid,clock,5,2,2,1.4503142762025618,1,f,same,1.5896323811930415,0.24043453680453014,0.5004294477347457,0.035287839028001144,0.3533453625738048,1.0010458768206263,6.816737428791612
28,23,female,8,75,75,same,catch,clock,3,1,1,0.4717215562236561,0,j,change,0.7489472276406559,0,0.5002873675655337,0.035262501932379564,0.35334311751478253,1.0010917401709776,6.474771950103332
28,23,female,9,135,135,same,valid,anti,1,2,1,0.8628041173101337,0,f,same,1.296463582896422,0.20821230939956695,0.5009207949560732,0.03532985370543429,0.35327865224621746,1.0010567813935722,5.887130615614524
28,23,female,10,105,105,same,valid,anti,3,2,2,1.0055719159784076,1,j,change,0.5812955145643173,0.28065081272190046,0.5000712004459729,0.035364812483067,0.3532873117596864,1.0010603093435293,5.320833058046446
28,23,female,11,165,165,same,valid,anti,3,2,2,1.0835421772840164,1,f,same,0.5326877398604211,0.26093595348852533,0.5003094974338183,0.03532472214192239,0.35332804354629843,1.0010782698163894,5.273924793085598
28,23,female,12,15,15,same,catch,anti,4,2,2,1.053749280779357,1,j,change,0.49733062472296297,0,0.5000137910774356,0.035350059237543974,0.35330366861899165,1.0010712139162479,6.733637528151348
28,23,female,13,75,25,change,valid,anti,4,0,1,0.6591118289600217,0,j,change,0.7262663576609611,0.0723357464867447,0.5009939197384483,0.03531413829182384,0.3533405517327992,1.0010705724707805,5.074181563702723
28,23,female,14,165,115,change,valid,anti,3,0,2,0.9208225383406443,1,f,same,0.4088473930694363,0.15406686854268764,0.5005612647764792,0.03532632575547723,0.3533139317464702,1.0010878914984005,5.073917608896636
28,23,female,15,45,45,same,catch,clock,5,1,2,1.0747162084928732,1,j,change,0.6040466228216701,0,0.5000445804594165,0.03533883394197801,0.35333060932816807,1.001034330802213,6.93468385398387
28,23,female,16,135,135,same,catch,anti,1,1,1,0.5407924032331266,0,j,change,0.1864306703296279,0,0.5001205917462812,0.035339796110065436,0.35332355342825394,1.0010673652434434,5.957097561930141
28,23,female,17,15,15,same,valid,clock,3,2,2,1.504329436124408,1,f,same,0.8142187931973695,0.24497978613313418,0.5002171292878757,0.03533370237823874,0.3533209876463843,1.0010647994618012,6.063139080128622
28,23,female,18,165,115,change,valid,anti,1,1,2,0.9594398000231195,1,j,change,0.7689260086249305,0.33948538693435915,0.49945669569638085,0.035335947437260984,0.35329116043249087,1.0010753833116723,5.414237459260221
28,23,female,19,15,325,change,valid,anti,1,1,2,0.793569060263053,1,f,same,0.41826477457357214,0.277883819201003,0.4998123772033978,0.03529842287821339,0.35335017341481034,1.0010680066889108,4.944210281216101
28,23,female,20,165,165,same,valid,anti,2,1,1,0.7322500816237607,0,j,change,0.6620810799890933,0.2361351957338891,0.4998617685037061,0.035302912996257874,0.35330944162819833,1.0011068141391206,5.0379828721233935
28,23,female,21,165,215,change,catch,clock,3,0,1,0.7462868325999352,0,j,change,1.1346066880951184,0,0.5002565781835528,0.03531926985556311,0.3532937262143605,1.001092060893825,7.099943937666922
28,23,female,22,105,105,same,catch,anti,4,0,1,0.6015016879637187,0,j,change,0.5064093230248545,0,0.4996869746162247,0.03536320886928479,0.3533059136780139,1.0010689688572256,6.368923186264965
28,23,female,23,165,165,same,valid,anti,2,0,1,0.5680682677570985,0,j,change,0.3816651795823418,0.09412333650666384,0.49982296105326895,0.035362567424044755,0.3533338165557325,1.0012091246899217,4.637700700266123
28,23,female,24,45,45,same,valid,anti,3,2,2,0.9537225966480491,1,f,same,1.1676709564401335,0.23107958490507233,0.4994454704008149,0.03531830768747568,0.3532876324825338,1.0011010411301413,5.791243820474847
28,23,female,25,105,105,same,valid,anti,5,1,2,1.3209231811333666,1,f,same,0.2513587418432053,0.29035529960085005,0.49968120160679064,0.03533787177366321,0.3533075172917961,1.0010526119981478,5.28525721000733
28,23,female,26,75,75,same,valid,anti,1,0,1,0.5616820367688433,0,j,change,0.3411934990785994,0.13569395274885374,0.5001802461740681,0.03529617781896377,0.35330334789637163,1.0010789112618568,4.602884002927567
28,23,female,27,15,65,change,catch,clock,3,2,2,0.7627302869379946,1,f,same,0.38795551447446996,0,0.49980179335307184,0.03536032236479514,0.35331649752811245,1.0010554985026374,6.4158885398712755
28,23,female,28,165,165,same,valid,clock,4,2,2,1.1111102202146412,1,j,change,0.36209115068254505,0.21925055727669165,0.5005923748813075,0.03532600503285721,0.3533350994464399,1.0010724968071827,5.16823286266208
28,23,female,29,105,55,change,valid,anti,2,1,2,0.7084540587140964,1,j,change,0.3100285507373428,0.263665126452847,0.5001722281056118,0.03532632575547723,0.35330495151015384,1.001070251747933,4.720691875900684
28,23,female,30,75,75,same,valid,anti,5,2,1,0.523471772230323,0,j,change,0.31696482120673863,0.20880773015746545,0.49920332473993767,0.03539271536055821,0.3533014235599694,1.001066723797976,4.554257947028191
28,23,female,31,135,185,change,catch,clock,5,1,1,0.6450625697973464,0,j,change,0.4985589927766796,0,0.5003784528205415,0.035291046255451874,0.3533610779875289,1.0010593471752145,6.368827290168838
28,23,female,32,75,75,same,catch,anti,1,0,1,0.7875872606366556,0,j,change,0.5418649000403093,0,0.5010564606709522,0.03533274020992394,0.3532818594735545,1.0011055312484132,6.5702183929354305
28,23,female,33,75,75,same,valid,clock,2,1,2,0.919013982869501,1,j,change,1.2277618877483292,0.24183425103390752,0.5005513223720754,0.035322797805292794,0.3533075172917961,1.0010554985026374,5.957192495857726
28,23,female,34,75,25,change,valid,anti,1,0,2,0.8501695661070698,1,j,change,0.43034736195932055,0.17444945310760798,0.49965682667948386,0.0353519835739462,0.35330495150992647,1.0010445939299188,5.026149486298436
28,23,female,35,135,85,change,valid,anti,2,0,2,0.8853034582248256,1,f,same,0.5982027339687193,0.1394400178496577,0.49993489328585383,0.03534556911927211,0.3533219498146991,1.0011125871483273,5.191722595365263
28,23,female,36,105,155,change,catch,clock,1,2,1,0.6351124678394626,0,j,change,0.5174245451669321,0,0.5115168324909973,0.03530612022359492,0.35333253366479767,1.0011164358213591,6.416066861708714
28,23,female,37,75,75,same,valid,anti,4,1,2,0.7377658711245658,1,j,change,0.2471268054284792,0.22358007674771352,0.5000602958730269,0.035328250091879454,0.3533148939145576,1.0010785905390094,4.778845321200606
28,23,female,38,45,45,same,catch,clock,4,1,1,0.7131940199324163,0,j,change,1.2170465413580587,0,0.5000044901182719,0.0352653884369829,0.35335658786925705,1.0010538948888552,7.228467157030309
28,23,female,39,135,85,change,catch,anti,5,2,1,0.49799003065459146,0,j,change,0.35306248512642924,0,0.500270048538141,0.03528302818699558,0.3533328543874177,1.001092381616445,6.121688938721945
28,23,female,40,15,15,same,valid,anti,2,2,1,0.2550621272000626,0,j,change,0.31001828761009165,0.240637351669381,0.500122195359836,0.03530868600546455,0.35330431006445906,1.0010673652434434,4.284491644852096
28,23,female,41,75,75,same,catch,clock,2,0,1,0.6426892215993121,0,j,change,0.25358327469439246,0,0.49949101302854615,0.03533370237823874,0.3532799351371523,1.0010644787389538,6.121153011041315
28,23,female,42,165,165,same,valid,clock,1,0,1,0.3171598206261024,0,j,change,0.3295984102414877,0.11282133088345223,0.5004605578394603,0.03534107900100025,0.3532722377915434,1.001095588843782,4.356088504078571
28,23,female,43,135,85,change,valid,anti,1,2,2,0.3268684183685764,1,j,change,0.2313921483228114,0.2684289840548075,0.49913052068063735,0.035302592273637856,0.3532985370552524,1.0010885329436405,4.2602918320260414
28,23,female,44,15,15,same,valid,clock,2,2,2,0.2727432505505476,1,j,change,0.37369425758788566,0.2609330571210355,0.49931621914083735,0.035336588882955766,0.35332419487372135,1.0010680066891382,4.331295033480274
28,23,female,45,135,85,change,catch,anti,3,0,2,0.4469925508938104,1,f,same,0.6718140526588741,0,0.49984893959435794,0.035328570814726845,0.3532869910370664,1.001087570775553,6.369002084056319
28,23,female,46,45,355,change,valid,anti,4,1,1,0.9129622656880656,0,j,change,0.26183130112713116,0.20752540174017145,0.49995670243151835,0.03530900672808457,0.35332900571461323,1.001029199238701,4.825762566397771
28,23,female,47,45,45,same,valid,clock,3,1,1,0.36098337437510963,0,j,change,0.5927392222729395,0.2317571450230652,0.5003765284843666,0.03530772383714975,0.35332387415110134,1.0010625544025515,4.638656453999829
28,23,female,48,135,135,same,valid,anti,2,0,2,0.410801235937015,1,f,same,0.49379786385839,0.13377539164878358,0.49915714066719374,0.03530900672808457,0.3533344580009725,1.0010760247571397,4.613339884629568
28,23,female,49,165,215,change,valid,clock,4,0,1,0.5700294872476661,0,j,change,0.2953519579159547,0.11269087996912147,0.5001642100373829,0.03535487007843585,0.35324305202311734,1.0011241331665133,4.578834929784307
28,23,female,50,135,135,same,catch,anti,3,1,2,0.15634367108236802,1,j,change,1.0125409001661865,0,0.5002585025199551,0.035301630105323056,0.3533158560828724,1.0010939852299998,6.3577629974488445
28,23,female,51,165,215,change,valid,clock,2,0,1,0.7331137879343714,0,j,change,0.5354969502475342,0.12952110385936552,0.5068762953187615,0.03533113659659648,0.3532683891187389,1.0011273403938503,5.009667224510395
28,23,female,52,135,135,same,valid,anti,2,1,1,0.7396465892099968,0,j,change,0.39591585261882756,0.253194793468208,0.4996391869294712,0.035314779737291246,0.35326967200967374,1.0010962302892494,4.861231934490434
28,23,female,53,135,185,change,valid,clock,4,0,2,0.23659395027129904,1,f,same,0.25205086149344424,0.1462498330954452,0.4996045488744585,0.03533947538744542,0.35326486116878186,1.001084363548216,4.225324074282071
28,23,female,54,15,65,change,valid,clock,4,1,1,2.0108747455867615,0,j,change,0.637474590741931,0.2732449529944128,0.4998181502123771,0.03531445901467123,0.35332291198278654,1.0010750625890523,6.345748403281959
28,23,female,55,165,215,change,valid,clock,1,1,1,0.9278806834472562,0,f,same,0.24060266366632277,0.2924903165809418,0.4995003139874825,0.035317986964400916,0.35331072451913315,1.0010676859662908,4.919616941600907
28,23,female,56,15,15,same,valid,anti,3,2,1,0.5908187345692113,0,f,same,0.19972879685997214,0.2539623395175406,0.5004717831350263,0.03529778143274598,0.35337005822384526,1.0010298406843958,4.496819713415107
28,23,female,57,15,15,same,valid,clock,1,0,1,0.5075889412237302,0,j,change,0.34276824767994185,0.12979490758126006,0.5003059694840886,0.03533241948730392,0.35332451559656874,1.001077949093542,4.602949751087181
28,23,female,58,45,95,change,valid,clock,3,2,1,0.5346393376692049,0,j,change,0.5325344343957568,0.2754545638065623,0.499988453981814,0.03531798696462829,0.35333862739662436,1.00105517777979,4.778867771791738
28,23,female,59,75,75,same,valid,anti,4,2,2,0.6347644836780546,1,f,same,0.3532481835868566,0.29706119870849423,0.5003377210339295,0.03535903947386032,0.3532674269504241,1.0010760247571397,4.708757783138935
28,23,female,60,45,95,change,catch,clock,2,0,2,0.49064772520978295,1,j,change,1.522160657712675,0,0.5000368831138076,0.03534268261455509,0.3532869910370664,1.001028878516081,7.240871108591136
28,23,female,61,75,75,same,catch,clock,4,2,1,0.2250896259668025,0,j,change,0.6449782197194054,0,0.4998871055993277,0.035305799500747526,0.3533216290918517,1.0010904572800428,6.0978630885983875
28,23,female,62,15,325,change,valid,anti,4,0,1,0.4858243760820642,0,j,change,0.42402078539862487,0.1438285826076707,0.5001356657144242,0.03530708239190972,0.35331713897380723,1.0010609507889967,4.637634310661042
28,23,female,63,165,165,same,valid,anti,4,0,2,0.6876163822603303,1,f,same,0.911774629420961,0.15714653529170614,0.49982969623056306,0.035297781432518605,0.3533549842557022,1.0010657616298886,5.3322799729824055
28,23,female,64,105,155,change,valid,clock,1,0,2,0.2940466164072859,1,j,change,0.27688025303746144,0.14339995146165818,0.5000933303142574,0.03531413829182384,0.3533283642691458,1.0010657616298886,4.319562354592335
28,23,female,65,75,75,same,valid,clock,2,2,1,0.3494280551567499,0,j,change,2.3223045339289,0.29142171687201723,0.5005173257625302,0.03528783902788746,0.3533331751102651,1.0010962302892494,6.41696552679673
28,23,female,66,15,65,change,valid,clock,2,1,2,1.3145135373856647,1,j,change,2.143657483519519,0.31124726170599837,0.4998053213032563,0.03533562671486834,0.3532934054917405,1.001048442602496,7.1819232330904015
28,23,female,67,45,95,change,valid,clock,3,1,2,0.6970642324240544,1,f,same,4.165906339982939,0.3003962349315025,0.4996664483612676,0.03529168770069191,0.3533395895647118,1.001063195848019,8.582891751588704
28,23,female,68,45,45,same,catch,clock,3,0,1,0.6438832723210908,0,j,change,0.4067011165641361,0,0.500129892705445,0.035344927673804705,0.3532943676598279,1.001048121879876,6.238974995814488
28,23,female,69,15,15,same,valid,clock,2,1,2,1.897655773426095,1,f,same,1.734917853287243,0.2907579799538502,0.5005817910312089,0.035367057542316616,0.3533274021010584,1.0010564606707248,7.417771823738349
28,23,female,70,45,355,change,valid,anti,1,0,1,0.7243205328616114,0,j,change,0.7754819019369279,0.1310178279549873,0.49954457372427896,0.03532889153734686,0.3533379859509296,1.0010619129570841,5.191190516356983
28,23,female,71,105,105,same,catch,clock,3,2,1,0.873746856115531,0,j,change,0.33681370948534095,0,0.499133727907747,0.035344927673804705,0.3533113659643732,1.0010878914984005,6.439219194100815
28,23,female,72,135,85,change,valid,anti,5,1,3,1.2347552468634149,1,j,change,1.8096507393622687,0.2820290368484188,0.5000628616548966,0.035357115137458095,0.35330302717352424,1.0010680066889108,6.817201514581029
28,23,female,73,45,45,same,valid,clock,3,2,3,3.2446254888616295,1,f,same,2.4329683081041367,0.3100209411034204,0.4996921061797366,0.0353314573192165,0.35328410453257675,1.0010933437845324,9.431140509269198
28,23,female,74,135,135,same,valid,clock,4,0,3,2.528524438109798,1,f,same,3.5299128468054732,0.1415259654127295,0.4993059560135862,0.035353907910348426,0.3532812180278597,1.0010795527073242,9.795510394944358
28,23,female,75,45,95,change,valid,clock,4,0,1,1.0097291239972037,0,j,change,1.0984137695247682,0.13065259728269935,0.5002087904970267,0.03537411344223074,0.35328442525519677,1.001088853666488,5.838900973008549
28,23,female,76,75,125,change,catch,clock,2,1,2,2.4043906300212257,1,j,change,0.8937108838540553,0,0.5005843568128512,0.035383414401394475,0.35324144840933513,1.0010413867023544,8.560015561467026
28,23,female,77,105,105,same,catch,anti,2,0,1,0.7053244463204464,0,j,change,0.7684994473945608,0,0.5006821772453804,0.03532279780552017,0.35330206500520944,1.00105517777979,6.723253167617941
28,23,female,78,15,15,same,catch,clock,5,2,2,1.5661195564534864,1,f,same,2.3536718583125094,0,0.5002649169744018,0.03536032236479514,0.3532876324825338,1.0010757040345197,9.17238654273092
28,23,female,79,75,25,change,valid,anti,3,0,2,1.776543173448772,1,j,change,1.5150271427644384,0.14003221599289145,0.5003329101930376,0.03530066793700826,0.35333702378284215,1.0010359344159951,7.005160107993788
28,23,female,80,75,125,change,valid,clock,3,1,2,1.244332027564269,1,j,change,1.44671737079193,0.27399163302807295,0.4996885782297795,0.03532504286454241,0.3532667855051841,1.0010994375165865,6.416241976319043
28,23,female,81,75,75,same,catch,clock,5,0,1,0.8306051588892842,0,j,change,0.551472149400297,0,0.49924405652677706,0.03530708239168234,0.35330302717352424,1.0010792319844768,6.556395243297175
28,23,female,82,165,115,change,valid,anti,3,2,3,1.1962069405681177,1,j,change,1.6627337507432003,0.3048507754815047,0.5007678102142563,0.03527853806895109,0.3533533806421474,1.0010538948888552,6.5582147033410365
28,23,female,83,105,105,same,valid,clock,5,1,2,0.9276747794551738,1,j,change,0.8070265859898882,0.26649610114628547,0.499652015838592,0.035327608646412045,0.3532282987775943,1.0011225295529584,5.461319555940236
28,23,female,84,45,45,same,valid,anti,2,2,3,1.4130831781569668,1,f,same,2.19457991416175,0.29981424719742916,0.5000856329688759,0.03532311852836756,0.35330206500520944,1.0010513291069856,7.311372058250981
28,23,female,85,45,45,same,valid,clock,1,2,3,2.286644656534918,1,f,same,1.0842759908889548,0.29528752689152143,0.49990987691307964,0.035318949132715716,0.35329019826440344,1.0010968717347168,7.122779396002215
28,23,female,86,45,45,same,valid,anti,4,2,3,1.444181095447675,1,f,same,0.8242551695693692,0.2911560277513964,0.5000788977913544,0.035362567424044755,0.35330431006445906,1.0010651201844212,6.039924206804471
28,23,female,87,45,355,change,catch,anti,5,0,3,1.0992967191989464,1,f,same,0.9545494198446249,0,0.49948331568293725,0.03527019927787478,0.3533524184738326,1.001058385007127,7.274790744455231
28,23,female,88,135,135,same,valid,anti,1,0,2,1.0755914608214425,1,j,change,0.7125365383369626,0.13035449642432256,0.5010593471752145,0.03532408069622761,0.35329532982791534,1.001051649829833,5.5692042676648725
28,23,female,89,75,125,change,catch,clock,1,0,2,1.0556296781419405,1,j,change,0.6168594958623999,0,0.5000622202094291,0.03533049515112907,0.3532536358732159,1.0010830806572812,6.945785029817671
28,23,female,90,75,75,same,valid,clock,4,0,2,1.5696677120088225,1,j,change,0.708812626725603,0.12150396188170746,0.5002386177106928,0.03533755105104319,0.3533004613916546,1.001051649829833,6.051584081632882
28,23,female,91,15,15,same,valid,clock,5,2,3,1.3154378602919223,1,f,same,0.8142139823564776,0.28703390540413554,0.49919081655366426,0.03534011683291283,0.35331617680526506,1.0010728175298027,5.850258727025903
28,23,female,92,105,105,same,valid,clock,4,0,2,1.2991303923915893,1,j,change,0.6881250485093915,0.11330881166178378,0.4995157086787003,0.035335626714640966,0.35330591367824127,1.0010478011570285,5.709410774616117
28,23,female,93,15,15,same,valid,clock,3,0,3,1.544818114932923,1,f,same,0.8428295057215109,0.10564253027108154,0.4998473359808031,0.03531413829182384,0.35331040379628575,1.0010542156117026,6.1219942667605665
28,23,female,94,105,55,change,valid,anti,4,2,3,0.6538179795877568,1,j,change,0.7409500063822634,0.28327488525107813,0.49974983627089387,0.03531830768747568,0.353301102837122,1.0010801941527916,5.11982137026871
28,23,female,95,15,15,same,valid,clock,4,2,3,0.4751436677468064,1,f,same,0.8722407421780645,0.2794632401982237,0.5007780733415075,0.03533017442828168,0.3532661440597167,1.001132792680437,5.06300052790948
28,23,female,96,105,105,same,valid,clock,1,1,3,0.6221511001751878,1,j,change,0.6309677680071673,0.25977943678061716,0.4997527227756109,0.03529072553260448,0.35331745969642725,1.0010914194481302,4.990878004129627
28,23,female,97,45,45,same,valid,clock,5,2,3,0.6864454235753783,1,f,same,0.7136019792440038,0.2759467038076174,0.5001837741237978,0.03534909706945655,0.3533148939145576,1.0010057864794817,5.179927696267896
28,23,female,98,105,155,change,valid,clock,5,2,3,0.7956871131682419,1,j,change,0.49154318307046196,0.2726802297826188,0.4995981344200118,0.03529553637349636,0.3533158560828724,1.0010898158345753,4.978491050873799
28,23,female,99,15,15,same,catch,clock,5,0,1,0.4663353387056759,0,j,change,0.6338007118761197,0,0.5004015448573682,0.03532119419173796,0.35328346308710934,1.0010782698163894,6.345749365450047
28,23,female,100,45,355,change,valid,anti,2,0,2,1.0187039081347393,1,j,change,0.8750650265333206,0.09864217701324415,0.5004368243576209,0.03531991130080314,0.35330431006445906,1.0010349722479077,5.651015183655545
28,23,female,101,75,25,change,valid,anti,2,1,1,0.20501045876812896,0,j,change,2.0018425520806886,0.2534282196321594,0.5109552469916707,0.035379886451437415,0.3532956505509901,1.001058385007127,5.955782278016613
28,23,female,102,45,355,change,valid,anti,2,2,2,1.2532638348561704,1,j,change,0.660232434176578,0.26931910239647827,0.4999647204997473,0.03532023202365053,0.353286670314219,1.0010721760843353,5.638414629061799
28,23,female,103,105,155,change,valid,clock,5,1,2,1.6553420539980834,1,j,change,0.707230822224119,0.2635229814589261,0.5000394488956772,0.035285914691712605,0.35331136596460055,1.0010904572800428,6.086352991284684
28,23,female,104,75,25,change,catch,anti,3,1,1,0.4514650293556315,0,j,change,1.6159268341652933,0,0.5002540124016832,0.03533017442828168,0.3532712756232286,1.0010866086072383,7.287998747898428
28,23,female,105,165,115,change,valid,anti,4,2,2,0.8955021202980333,1,f,same,2.7745194130261552,0.26618885313764074,0.5003152704430249,0.035335626714640966,0.3533113659643732,1.0010590264525945,7.370143536250225
28,23,female,106,105,155,change,valid,clock,2,0,1,0.44678376039701106,0,j,change,0.5353519835737188,0.09205467154815282,0.4999320067813642,0.03534300333740248,0.3532943676598279,1.0010673652434434,4.720353192698667
28,23,female,107,45,95,change,valid,clock,4,1,2,0.4594019547407697,1,j,change,0.9177891427659688,0.25755062247662136,0.5000359209457201,0.0353314573192165,0.35330398934183904,1.0010840428253687,5.108972282500417
28,23,female,108,105,105,same,valid,anti,3,1,1,0.7025922093885129,0,j,change,0.5745927302421023,0.2521211914556962,0.5001395143874561,0.035340758278380235,0.3532946883826753,1.0010494047708107,5.002897088415011
28,23,female,109,15,325,change,catch,anti,2,1,1,0.49165415313473204,0,j,change,0.327522692736693,0,0.49959588936098953,0.03532055274627055,0.3533322129419503,1.0010676859662908,6.0742322378941935
28,23,female,110,75,75,same,valid,anti,3,2,3,0.23390885958065155,1,f,same,2.0648674549174757,0.2632610320707795,0.5003890366708674,0.03533466454632617,0.3532802558597723,1.0010452353751589,6.051139239207259
28,23,female,111,15,15,same,valid,anti,5,0,2,0.9841341672979524,1,f,same,1.339923437069956,0.09791522925103145,0.4998877470447951,0.03532119419173796,0.35332419487372135,1.0010603093435293,6.227380869145691
28,23,female,112,15,15,same,valid,clock,5,0,1,0.7192005152089678,0,j,change,0.4991071079211906,0.09178369793750825,0.4997992275714296,0.03534749345567434,0.35328859465062123,1.0010404245340396,4.9082524524064866
28,23,female,113,45,95,change,valid,clock,2,1,2,0.6216106823760583,1,j,change,0.6797362247984893,0.26100764719986164,0.49995028797684427,0.03532632575547723,0.35328538742351157,1.0010910987255102,5.014419693914988
28,23,female,114,135,135,same,valid,anti,2,2,3,0.9374103179068243,1,f,same,0.900374219280593,0.2602303654399604,0.50027838732899,0.035324401419302376,0.35332291198278654,1.0010542156114752,5.568854038444442
28,23,female,115,75,75,same,valid,clock,5,1,1,1.0420024900913631,0,j,change,0.6678303556366245,0.2558569047255177,0.4996600339068209,0.03530900672808457,0.3533148939145576,1.0010641580163337,5.449726712162374
28,23,female,116,75,25,change,valid,anti,4,1,3,0.4088958222016572,1,j,change,0.867967432531259,0.264541237620439,0.5000949339280396,0.0353038751643453,0.3533338165557325,1.001069610302693,4.967466527772331
28,23,female,117,135,85,change,valid,anti,4,0,2,0.5445349167628137,1,j,change,0.6977900279605365,0.09727934088540684,0.5003146289975575,0.035336268160108375,0.35331778041904727,1.001081156320879,4.9438805782504005
28,23,female,118,135,135,same,valid,clock,1,0,2,1.034716311124157,1,f,same,0.6680914239382219,0.09154331548530655,0.5006847430272501,0.03525608747759179,0.35338545291506307,1.0010378587523974,5.450954438770395
28,23,female,119,75,75,same,valid,clock,1,0,2,0.6171340345185854,1,j,change,2.306797269238359,0.08598936215578867,0.49993617617678865,0.03532889153734686,0.3532924433234257,1.0010853257165309,6.62758093598427
28,23,female,120,105,155,change,valid,clock,1,2,2,0.3607492467826887,1,j,change,1.370651561053819,0.25734909512864407,0.5005670377856859,0.03532023202365053,0.3532988577780998,1.0010503669388982,5.485793586699856
28,23,female,121,105,105,same,valid,clock,2,0,2,0.24662744013858173,1,j,change,0.7156639056715903,0.08081553167923662,0.5006459355770403,0.035353587187501034,0.35329565055076273,1.001087250052933,4.685847275684864
28,23,female,122,45,355,change,valid,anti,4,0,3,0.6866564591311999,1,f,same,1.3277173714334367,0.07578578086404782,0.49998556747732437,0.03533947538744542,0.3533197047554495,1.0010750625890523,5.745002658791236
28,23,female,123,75,75,same,valid,clock,4,2,3,0.8632040585537197,1,f,same,0.7923384471503141,0.2546561299476583,0.4998729937990447,0.0353176662417809,0.35331521463717763,1.0010487633253433,5.3087684311333305
28,23,female,124,45,45,same,valid,anti,5,2,2,0.4011003355401499,1,j,change,0.6721953919841326,0.2518797231449649,0.5002511258969662,0.03533466454655354,0.3533004613916546,1.0010680066889108,4.755751360345357
28,23,female,125,75,125,change,catch,clock,2,1,3,0.3462474478490094,1,j,change,0.6298343338814902,0,0.5000747283959299,0.03534204116931505,0.3532658233368693,1.001080514875639,6.156776646766957
28,23,female,126,135,85,change,valid,anti,1,0,1,0.12144551017036065,0,j,change,0.9519252664724718,0.07106748563388104,0.5007745453915504,0.03529906432345342,0.3533408724556466,1.00107281753003,4.780106402972706
28,23,female,127,165,165,same,catch,clock,4,1,1,0.5552464144800524,0,j,change,0.4486413864458427,0,0.4999268752176249,0.035361605255729955,0.3533068758463287,1.0010878914981731,6.227952076327028
28,23,female,128,45,95,change,valid,clock,2,2,2,0.8693372393086065,1,j,change,0.6843276913930367,0.24918453377971608,0.499614812001937,0.03534973851469658,0.3533206669237643,1.0010218226159395,5.296613039688282
28,23,female,129,105,105,same,valid,anti,4,0,1,0.5086733047719463,0,j,change,2.174843278838125,0.07539836001983433,0.4998126979260178,0.035306761669062325,0.3533652473829534,1.0010571021161923,6.380280940282091
28,23,female,130,135,135,same,valid,anti,5,0,1,0.39440460711807646,0,j,change,1.0031530251530967,0.07988145663784108,0.5005420214126843,0.03529072553260448,0.3533392688418644,1.0010526119979204,5.1098116138832665
28,23,female,131,135,135,same,valid,anti,5,1,3,1.0591970770612988,1,f,same,0.6889278175010531,0.2596472132095851,0.4994320000462267,0.035331778041836515,0.35331970475567687,1.0010465182660937,5.532614615078273
28,23,female,132,165,165,same,valid,anti,2,2,3,0.4759753017840467,1,f,same,0.7551775873823772,0.2466370185335996,0.4995756838291072,0.035395601865047865,0.3533261192101236,1.0010705724707805,4.919663125673878
28,23,female,133,45,45,same,valid,clock,4,2,3,0.42358139525936167,1,f,same,0.9304621806963951,0.24422949350897294,0.5006978926592183,0.03529264986900671,0.35333157149648287,1.0010606300661493,5.073947436110302
28,23,female,134,45,45,same,valid,clock,3,0,1,0.6764863413811781,0,j,change,0.5607047946125476,0.08421202993537565,0.499788643721331,0.03530804455976977,0.35331874258736207,1.0010968717344895,4.932254700031308
28,23,female,135,45,45,same,valid,clock,4,1,3,0.46868495342141614,1,f,same,0.5849010794886453,0.25512802156934283,0.5000057730092067,0.035301630105323056,0.35333670305999476,1.0010760247571397,4.778963667887638
28,23,female,136,75,125,change,valid,clock,1,2,2,1.1517801073650844,1,j,change,0.5937539889889649,0.24172299901030275,0.5003685104161377,0.03533209876445653,0.3532991785007198,1.0010834013799013,5.4858734466597525
28,23,female,137,135,135,same,catch,anti,4,1,1,0.1543545487143092,0,j,change,1.0790911872450124,0,0.5004798012032552,0.035339796110065436,0.3532985370552524,1.001099116793739,6.475109671137261
28,23,female,138,135,85,change,catch,anti,4,1,1,0.39987774049563996,0,j,change,0.34203603768878565,0,0.5007023827774901,0.0352910462552245,0.35330976235081835,1.0010760247571397,5.992962060425498
28,23,female,139,105,155,change,valid,clock,4,1,3,0.5236167389041384,1,j,change,1.646061941822154,0.2508946060926459,0.49975560928010054,0.03532792936903206,0.35329821633263236,1.0010705724707805,5.862606231386053
28,23,female,140,15,65,change,valid,clock,3,0,1,0.5363244148895774,0,j,change,1.3358059986696844,0.0883099119054454,0.49932423720906627,0.03531766624200827,0.35330912090535094,1.0010872500527057,5.603296131634806
28,23,female,141,105,105,same,valid,anti,4,1,4,1.309330978800972,1,f,same,0.828458882383984,0.24670153967932376,0.4997819085440369,0.035310931064486795,0.35334536257391846,1.0010567813933449,5.850974580157754
28,23,female,142,75,25,change,valid,anti,3,2,3,1.1195789038852126,1,j,change,2.0726767326564186,0.23926991646933077,0.4995686279289657,0.03539656403313529,0.35330944162819833,1.0010250298432766,6.874740134408512
28,23,female,143,105,105,same,valid,clock,4,2,4,0.4101690914374103,1,f,same,1.2944148061008036,0.23693325141800925,0.5006042416221135,0.035272444336897024,0.3533540220876148,1.0010558192252574,5.391973208106037
28,23,female,144,45,355,change,valid,anti,5,1,4,0.6783513440527713,1,j,change,0.6931963163071941,0.24280658940187394,0.5002161671195609,0.03532664647832462,0.35330527223277386,1.0010866086072383,5.061719240605726
28,23,female,145,15,15,same,valid,clock,1,2,4,0.7238291856399428,1,f,same,0.8146254696182496,0.23471770731326655,0.5004579920575907,0.03531670407369347,0.3533017442825894,1.0010782698163894,5.2149842942080795
28,23,female,146,15,65,change,catch,clock,4,0,1,0.5878902153267518,0,j,change,0.4130023560292102,0,0.4998325827352801,0.035318628409868325,0.35330591367824127,1.0010798734299442,6.19220752813203
28,23,female,147,15,15,same,valid,clock,4,1,4,0.8041307804658118,1,f,same,1.056200885323051,0.2388802992788873,0.5003720383660948,0.03527212361427701,0.3533421553465814,1.0010301614070158,5.580083824092526
28,23,female,148,105,155,change,valid,clock,3,2,3,1.0742088251349742,1,j,change,1.0868812216201604,0.2324074901423398,0.4998248853896712,0.03532055274627055,0.3533136110236228,1.0010622336797041,5.874317101128554
28,23,female,149,105,55,change,valid,anti,1,2,3,0.9092899904360365,1,j,change,0.7101798677210809,0.23014364764963355,0.49943584871903113,0.03530772383714975,0.3533399102875592,1.0010198982797647,5.332250145768512
28,23,female,150,105,155,change,valid,clock,3,1,3,0.7371285950612219,1,j,change,0.8073655899149799,0.23522190127507492,0.49997209712273616,0.03535326646465364,0.35331778041927464,1.0010266334568314,5.261886786159494
28,23,female,151,165,215,change,valid,clock,3,1,3,0.537349765455474,1,j,change,0.5199977036252221,0.23175321347736688,0.5098407355069412,0.035328570814726845,0.3533046307870791,1.0010628751251716,4.812293815375369
28,23,female,152,75,75,same,valid,clock,5,0,3,0.9086437341361489,1,j,change,0.787588222804743,0.09264880980574582,0.500359530179594,0.03530900672808457,0.353327081378211,1.0010308028524832,5.415841714352837
28,23,female,153,45,95,change,catch,clock,5,0,1,0.31117064437694353,0,j,change,0.6369088358469526,0,0.49978351215759176,0.03535583224675065,0.35329629199623014,1.0010481218796485,6.144977257551318
28,23,female,154,135,85,change,valid,anti,1,1,1,0.5716045565718559,0,j,change,0.6336352189478021,0.22822977028157393,0.5004730660259611,0.03535839802839291,0.3532815387507071,1.0010817977663464,4.874096443890494
28,23,female,155,75,125,change,valid,clock,1,1,2,0.5937552718798997,1,j,change,0.6546374261615711,0.23412687583015077,0.4993069181816736,0.035353907910348426,0.3533187425871347,1.0010647994618012,4.955306004763543
28,23,female,156,135,85,change,valid,anti,5,2,2,0.6025379431023339,1,j,change,0.7947807507348443,0.22793300004592973,0.4994214161961281,0.03533530599202095,0.3533078380144161,1.0010465182660937,5.084338852543851
28,23,female,157,15,325,change,valid,anti,2,1,2,0.3838047209103479,1,j,change,0.7501197899393901,0.23077678196255794,0.5005160428715953,0.03530355444172528,0.3533331751100377,1.0010750625890523,4.861810197571685
28,23,female,158,135,185,change,catch,clock,4,0,1,0.35321899781865795,0,j,change,0.2749713113519192,0,0.5004977616761153,0.0353176662417809,0.3532876324825338,1.0010866086072383,5.838987888868132
28,23,female,159,45,95,change,valid,clock,5,1,2,0.4676214368507772,1,j,change,0.49400889941421156,0.2275484753667678,0.5009833358885771,0.03528366963246299,0.35337583123305194,1.0010481218796485,4.662118925270988
28,23,female,160,75,75,same,valid,anti,5,1,2,0.4736952839004971,1,j,change,0.6041053150811422,0.22452710346888302,0.4998787668082514,0.03532023202365053,0.3532927640462731,1.0010850049936835,4.755365851624674
28,23,female,161,75,75,same,valid,anti,3,0,1,0.19583426075655552,0,j,change,0.5844363522537606,0.08814635285363116,0.4995859469563584,0.03533017442828168,0.3532680683961189,1.0010734589752701,4.472186924904236
28,23,female,162,165,115,change,valid,anti,2,1,1,0.23908949382894207,0,j,change,0.7438993726020726,0.22147340337122515,0.5004297684574794,0.03538116934237223,0.35329051898702346,1.0010676859662908,4.6148629968715795
28,23,female,163,75,125,change,valid,clock,4,2,2,0.39348092565705883,1,f,same,1.2344348448566507,0.22583975838707993,0.500040411063992,0.035301630105323056,0.35333734450568954,1.001077949093542,5.332938737468567
28,23,female,164,105,55,change,valid,anti,3,0,1,0.2498474963422268,0,j,change,0.3752581016165095,0.0922909865832756,0.4999608718269428,0.03529617781896377,0.35335145630574516,1.0010641580161064,4.366899746564968
28,23,female,165,15,15,same,valid,clock,2,0,3,0.696811823635926,1,f,same,1.6264487847495275,0.09620944982990443,0.4997129531570863,0.035323118528140185,0.35331136596460055,1.0010506876617455,6.0864880155538685
28,23,female,166,15,65,change,catch,clock,4,1,1,0.2262756586201249,0,j,change,0.4096338052020201,0,0.4996664483612676,0.0353115725099542,0.3532876324825338,1.0010910987255102,5.850793692538446
28,23,female,167,135,135,same,valid,clock,5,0,1,0.22569835770718782,0,j,change,0.7953513164704873,0.09209024575480082,0.5000500327457758,0.035315421182758655,0.35333574089190734,1.0010817977663464,4.779056036033808
28,23,female,168,105,55,change,catch,anti,5,1,1,0.20878696890736137,0,j,change,0.3574974390292027,0,0.5003848672752156,0.035337230328423175,0.35325908815980256,1.0010927023392924,5.8039800407832445
28,23,female,169,165,165,same,catch,anti,4,1,1,0.11419717648550431,0,j,change,0.2686155490227975,0,0.4999682484499317,0.0353048373326601,0.35329917850094716,1.0010949473983146,5.662597764306156
28,23,female,170,15,65,change,valid,clock,3,1,2,0.8417400106095556,1,j,change,0.4610084548926352,0.22643562956361313,0.5001308548735324,0.03536385031497957,0.3533052722325465,1.00107281753003,5.085072024703322
28,23,female,171,135,135,same,catch,clock,2,2,1,0.21231652254459732,0,j,change,0.38129634844358407,0,0.500011225295566,0.03530772383714975,0.35333798595115695,1.0010683274117582,5.827353992581038
28,23,female,172,15,65,change,valid,clock,2,2,2,0.5869129731702287,1,j,change,0.5313519296923914,0.22383090014364926,0.4997607408438398,0.035314779737291246,0.35332900571461323,1.001000013470275,4.861522509283304
28,23,female,173,105,155,change,valid,clock,3,0,2,0.10201644794437925,1,j,change,1.1063295272097093,0.09584345848248774,0.49939704126859397,0.035362246701197364,0.35329083970987085,1.0010872500527057,4.908364384639071
28,23,female,174,15,65,change,catch,clock,5,0,1,0.10561623985950064,0,j,change,0.4187423307175777,0,0.500010904572946,0.03529297059162673,0.3533482490784081,1.00103657586169,5.804017565342292
28,23,female,175,165,165,same,valid,anti,1,2,3,0.9022693698886997,1,f,same,0.8296404249192619,0.22171129899547554,0.5000250163727742,0.03531638335084608,0.35332996788292803,1.0010423488704419,5.498016650641375
28,23,female,176,75,75,same,valid,clock,5,2,3,0.5515516886373462,1,j,change,0.49310285770388873,0.21961121689038507,0.49908786455739573,0.03529329131447412,0.3533408724556466,1.0010721760845627,4.731238201412452
28,23,female,177,105,105,same,catch,anti,1,1,1,0.1380053868590494,0,j,change,0.38357476271335145,0,0.5000426561230142,0.03532504286454241,0.35331745969642725,1.0010689688572256,5.767943955627288
28,23,female,178,135,85,change,valid,anti,4,1,3,0.2116077253124331,1,j,change,1.0364180659264548,0.22364670331720546,0.5009907125113386,0.03531253467804163,0.35331778041904727,1.0010638372934864,4.957194420194355
28,23,female,179,135,135,same,valid,clock,3,0,3,0.2568536843666607,1,f,same,1.3059066222187994,0.09190600271524649,0.49912218188933366,0.0352910462552245,0.3533283642693732,1.0010692895798456,5.308221919602602
28,23,female,180,15,65,change,valid,clock,1,1,3,1.0650197982140526,1,j,change,0.7072622530515673,0.22079573661928614,0.5001719073829918,0.035332740210151314,0.35330398934161167,1.0010965510118695,5.485973512151304
28,23,female,181,45,45,same,valid,anti,4,1,3,0.5078807989075358,1,f,same,0.9102736470472337,0.21801686308682572,0.5001613235328932,0.03535037996016399,0.35330944162797095,1.001059667898062,5.15592448647476
28,23,female,182,135,185,change,catch,clock,1,1,1,0.1836788693112794,0,j,change,0.29287501627663914,0,0.5004724245804937,0.03531253467804163,0.3533027064509042,1.001077307648302,5.697996573398541
28,23,female,183,135,85,change,catch,anti,3,1,1,0.09097909593378972,0,j,change,0.3741884913138165,0,0.5005862811494808,0.035350379960391365,0.3533017442825894,1.0010872500527057,5.733134955634341
28,23,female,184,105,55,change,valid,anti,2,2,2,0.974410174864488,1,j,change,0.9358455117098856,0.21756999712409764,0.5002828774474892,0.03532568431000982,0.3533488905238755,1.001059988620682,5.60345200288134
28,23,female,185,135,185,change,valid,clock,5,1,2,0.10902039090979088,1,j,change,0.94917955918595,0.21540698714902579,0.5001295719825976,0.03528912191904965,0.3533328543874177,1.001059026452367,4.767409952282833
28,23,female,186,45,95,change,catch,clock,4,2,1,0.1399069519218301,0,j,change,0.4024117707806454,0,0.49996985206325917,0.03534653128735954,0.3532998199461872,1.0010247091206566,5.756744317915718
28,23,female,187,45,45,same,valid,anti,3,1,3,0.2604595700133814,1,f,same,1.630380524689599,0.21290010582319338,0.5003152704430249,0.0353057995009749,0.35329757488716496,1.0010853257163035,5.592146205946392
28,23,female,188,15,65,change,valid,clock,2,0,1,0.08905989112099633,0,j,change,0.9653103088623993,0.08797157055504629,0.4995089735014062,0.035311893232801594,0.3533213083692317,1.0010234262294944,4.790288708186608
28,23,female,189,165,215,change,catch,clock,2,0,1,0.059261221607357584,0,j,change,0.35035141589469276,0,0.500214884228626,0.03533787177366321,0.35329532982768797,1.0010734589754975,5.673859622227155
28,23,female,190,75,25,change,valid,anti,2,2,2,0.6134136508571828,1,j,change,1.4670659450830499,0.21562598103808053,0.5009948819069905,0.03532087346911794,0.35330815873703614,1.0010708931936279,5.80519622137308
28,23,female,191,105,155,change,valid,clock,2,1,3,0.24748633560784583,1,f,same,1.8088514983205641,0.2103070392079036,0.49901698483427026,0.03531285540066165,0.353298216332405,1.0010500462162781,5.779147762734283
28,23,female,192,135,135,same,valid,clock,2,1,3,0.20349921326715048,1,f,same,0.6579014213789378,0.20778600421623541,0.49984284586253125,0.03530644094644231,0.3533091209055783,1.0010433110387567,4.578544996436904
28,23,female,193,75,25,change,valid,anti,5,2,2,0.5093131466173872,1,f,same,1.7709212247245887,0.2137500876606477,0.5002822360020218,0.03530804455976977,0.3533043100642317,1.0010449146520841,5.980846438598746
28,23,female,194,165,165,same,valid,anti,4,1,3,0.23113204218907413,1,f,same,2.0037428342525345,0.2054089246775447,0.4998521468214676,0.035311251787334186,0.35330495150992647,1.0010898158348027,5.944781488396984
28,23,female,195,45,355,change,catch,anti,1,2,1,0.05818647974047053,0,j,change,0.2955392599901643,0,0.5003508706658977,0.03535487007820848,0.35333253366479767,1.0010433110387567,5.615966603783363
28,23,female,196,45,95,change,valid,clock,5,2,3,0.5771986024187754,1,j,change,0.8424523357916769,0.21176106494376354,0.5000955753730523,0.035335626714640966,0.353324194873494,1.0010683274117582,5.156087734344055
28,23,female,197,105,105,same,valid,clock,4,1,1,0.06771226552746157,0,j,change,0.28966875115065704,0.20311720543258274,0.4996735042614091,0.03531221395542161,0.3533164975278851,1.001008352261124,4.036352317766614
28,23,female,198,165,165,same,valid,clock,5,1,3,0.4307110615345664,1,f,same,0.97198711464398,0.20700176811047394,0.5000564472002225,0.03527565156446144,0.35334023101040657,1.0010766662026072,5.073287388733206
28,23,female,199,105,105,same,valid,clock,2,2,3,0.48115401169616234,1,j,change,0.6143684424232561,0.2097827722865954,0.5005295132264109,0.03530708239213709,0.3533001406690346,1.001080835598259,4.814925666093131
28,23,female,200,15,15,same,valid,anti,1,1,3,0.06735882908014901,1,f,same,0.7110220856084197,0.2047741876994455,0.49977805987145985,0.03534813490114175,0.3532475421416166,1.0010901365571954,4.555457129313254
28,23,female,201,135,135,same,valid,anti,3,0,3,0.10519865886590196,1,f,same,0.8602210164472126,0.09161915434272322,0.5060404918863242,0.03535166285109881,0.3533315714962555,1.0010205397247773,4.631895618863382
28,23,female,202,15,15,same,valid,anti,5,1,3,0.30914495961769717,1,f,same,0.8815445878358332,0.20250248290873912,0.5003191191158294,0.03533338165561872,0.3532908397096435,1.001063195848019,4.790845162121968
28,23,female,203,75,75,same,valid,anti,5,0,2,0.18310766213016905,1,j,change,0.5881888081876241,0.08784583967500573,0.4999047453493404,0.035323118528140185,0.3533341372781251,1.001040103811647,4.461239375257719
28,23,female,204,165,165,same,valid,clock,2,2,3,0.02137777353027559,1,f,same,0.7137366827901133,0.20783494329190905,0.4999794737450429,0.035314779737291246,0.35332772282345104,1.0010676859660634,4.401873277317918
28,23,female,205,135,135,same,valid,anti,3,2,3,0.08950569571470623,1,f,same,0.7355147182870496,0.20597625035149025,0.500197244478386,0.03525576675519915,0.353379679905629,1.0010404245344944,4.46152674282348
28,23,female,206,165,165,same,valid,clock,4,0,3,0.06623758241767064,1,f,same,0.7563847877363514,0.08432567213580368,0.4999534952044087,0.03536641609662183,0.3532937262143605,1.0010975131804116,4.484878564752762
28,23,female,207,15,15,same,valid,anti,1,2,3,0.3160190098774365,1,f,same,0.6311409582808665,0.2041804738239089,0.49972417845265227,0.03532760864663942,0.3533225912601665,1.001043631761604,4.6026559690667455
28,23,female,208,165,115,change,valid,anti,1,2,2,0.28776109235604963,1,j,change,1.353359474373974,0.20227537744499008,0.49931397408136036,0.03532023202342316,0.3533171389740346,1.0010959095666294,5.320560764449056
28,23,female,209,135,135,same,valid,anti,1,1,2,0.1146888444295655,1,j,change,0.6741392924468528,0.20024383001987586,0.49986433428557575,0.035367057542316616,0.35332194981447174,1.0010760247573671,4.507934680325889
28,23,female,210,75,25,change,catch,anti,5,0,2,0.5585168241523206,1,j,change,1.3815253444722657,0,0.5003547193387021,0.035302271550790465,0.3533546635330822,1.0010385001978648,7.122949058326412
28,23,female,211,45,355,change,valid,anti,1,1,2,0.0929027908646276,1,j,change,0.7987881812391606,0.1980343582733585,0.5003460598250058,0.035314138291596464,0.35331617680549243,1.0010538948890826,4.637832517307743
28,23,female,212,165,165,same,valid,clock,3,0,3,0.17003243789667977,1,f,same,0.8160831544237226,0.08081336649462885,0.4999605511043228,0.0353186284100957,0.3532908397100982,1.0011064934165006,4.661336682533602
28,23,female,213,135,135,same,valid,anti,4,2,2,0.13421316130597916,1,j,change,0.25808558037033436,0.20038399660024914,0.4998357899626171,0.03532375997383497,0.35329821633285974,1.0011167565439791,4.084547963763271
28,23,female,214,165,115,change,catch,anti,1,2,3,0.16269686762916535,1,j,change,1.2625821130363875,0,0.49970493508908476,0.03532792936903206,0.3533213083692317,1.001043631761604,6.603971573702893
28,23,female,215,135,135,same,valid,clock,4,2,2,0.3858252741056276,1,f,same,0.9745384639563781,0.19848102686991692,0.5006837808591627,0.035262501932720625,0.35334440040560366,1.0010882122210205,4.968029716885212
28,23,female,216,135,85,change,valid,anti,3,1,3,0.21765880104885582,1,j,change,1.0556033788780042,0.1959460577842309,0.4998608063356187,0.035326325755249854,0.35331040379651313,1.0010718553617153,4.991398857842341
28,23,female,217,75,25,change,valid,anti,1,2,3,0.13829564092930013,1,f,same,1.0240721651798594,0.1966542439017561,0.49914302886691075,0.03532792936903206,0.35330398934183904,1.0010888536667153,4.81328773511359
28,23,female,218,105,55,change,valid,anti,3,1,2,0.09663215476257392,1,j,change,0.6788382011559406,0.1939340554001342,0.5004082800346623,0.03532375997383497,0.353301102837122,1.0010846842706087,4.4737366571325765
28,23,female,219,105,55,change,catch,anti,2,0,3,0.44068682131046444,1,j,change,0.5140123760488677,0,0.49959717225192435,0.03531510045968389,0.35331713897357986,1.00107249680741,6.120830363975529
28,23,female,220,75,125,change,valid,clock,5,0,2,0.027336481120073586,1,j,change,0.19471878710373858,0.07741348459873762,0.5007492082959288,0.035297139987051196,0.3533193840326021,1.0010481218801033,3.94388603053676
28,23,female,221,135,85,change,valid,anti,5,0,3,0.1612860083423584,1,j,change,0.9811501630233579,0.07422769142941998,0.4999137255858841,0.03530451660981271,0.35334472112845106,1.0010728175302575,4.7788597537237365
28,23,female,222,165,215,change,valid,clock,3,0,1,0.09071674474125757,0,j,change,0.911028949075444,0.07103290274212429,0.4996452806612979,0.03533947538744542,0.35331713897357986,1.0010619129570841,4.66121705295609
28,23,female,223,105,105,same,valid,anti,5,0,3,0.2562946646489763,1,f,same,1.0497238898019532,0.0739249294249483,0.4998800496991862,0.03532568431000982,0.3532889153734686,1.001094947398542,4.908779399850573
28,23,female,224,165,165,same,valid,clock,1,1,3,0.1481206610224035,1,j,change,0.948449594253816,0.1918578222629489,0.4998008311849844,0.03533658888272839,0.35332804354629843,1.0010811563211064,4.68478279694591
28,23,female,225,15,15,same,valid,anti,1,0,1,0.008503321725584101,0,j,change,0.6865547900260935,0.0708314318837471,0.5001424008919457,0.03532953298281427,0.35332387415110134,1.0010144459934054,4.437869913578197
28,23,female,226,135,135,same,valid,anti,4,0,3,0.1480186711942224,1,f,same,0.47655901715143045,0.07364104412047237,0.5000618994868091,0.03532728792379203,0.35330334789614426,1.001059667898062,4.307916912286601
28,23,female,227,165,215,change,valid,clock,3,2,2,0.042832520514821226,1,j,change,0.6088991577180423,0.1948913958150426,0.5004076385889675,0.03533723032796843,0.35331617680549243,1.001051970552453,4.343936961306099
28,23,female,228,15,325,change,catch,anti,4,2,3,0.4341607552123605,1,f,same,0.9496776415844579,0,0.5000930095916374,0.03533306093277133,0.35331136596460055,1.001069610302693,6.816044026250438
28,23,female,229,105,155,change,valid,clock,1,1,3,1.3432393893695007,1,f,same,1.269495932915106,0.18977490331744948,0.500950942892814,0.03531766624200827,0.353301102837122,1.0011042483570236,6.53510438562671
28,23,female,230,15,15,same,valid,anti,4,0,1,0.4994082665643873,0,j,change,0.3722041797868769,0.07064157671540677,0.49997594579508586,0.03532023202387791,0.35333381655527774,1.0010769869254545,4.5438755108307305
28,23,female,231,135,135,same,catch,clock,1,2,1,0.20710574035956597,0,j,change,0.38592245309291684,0,0.4991055043074084,0.03535743586053286,0.3533257984872762,1.0010593471752145,5.791206937361039
28,23,female,232,105,55,change,valid,anti,3,2,2,0.5639854674113849,1,j,change,0.6417902357889034,0.19302463141034323,0.500040731786612,0.035301950827943074,0.353324194873494,1.0010522912753004,4.955843536057728
28,23,female,233,45,45,same,valid,clock,2,0,2,0.2858588858480289,1,j,change,0.4609478382967609,0.07337424512029528,0.500162285701208,0.03533723032796843,0.35329757488716496,1.0010821184891938,4.425925236966123
28,23,female,234,135,185,change,valid,clock,3,0,2,0.16043609310963802,1,j,change,0.5436785870751919,0.07046228280124717,0.4995853055106636,0.03533338165561872,0.35326903056420633,1.0010737796978901,4.402184378365746
28,23,female,235,105,105,same,catch,clock,1,1,2,0.17463512978702056,1,f,same,0.7832424298212572,0,0.4997261027888271,0.035304516610267456,0.35332291198255916,1.0010490840481907,6.132872540297285
28,23,female,236,165,165,same,valid,clock,2,1,2,0.2356984924108474,1,j,change,1.515606047291385,0.1877567354420494,0.5006077695725253,0.03529938504607344,0.35332900571438586,1.001051970552453,5.4389629366401095
28,23,female,237,75,25,change,valid,anti,3,1,2,0.13516121769453093,1,j,change,0.708653548251732,0.1858396869951055,0.49989127499475217,0.035335626714640966,0.353300461391882,1.0010615922346915,4.531305745619193
28,23,female,238,15,15,same,catch,anti,3,2,2,0.1341111714782528,1,j,change,0.4425935179369844,0,0.5001382314967486,0.035297139987051196,0.3533347787238199,1.0010798734301716,5.768527350272052
28,23,female,239,45,45,same,valid,clock,1,0,2,0.03001772313791662,1,j,change,0.44666092359148024,0.06763216056534,0.5003114217706752,0.0353500592373166,0.3532481835868566,1.001097833903259,4.190964086109943
28,23,female,240,45,95,change,catch,clock,3,1,2,0.03561722127142275,1,j,change,0.3895770885942511,0,0.49920781485798216,0.03532760864663942,0.35330431006468643,1.0010699310250857,5.673337806346353
28,23,female,241,15,325,change,valid,anti,2,2,2,0.18099409934302457,1,f,same,0.5955468290462704,0.19117487393413674,0.5004903850531264,0.03536609537377444,0.3532359961232032,1.0011055312484132,4.509175235843486
28,23,female,242,135,185,change,catch,clock,1,1,2,0.2405054846794883,1,f,same,1.1343930867574272,0,0.4991208989986262,0.03532183563720537,0.3533395895647118,1.0010683274113035,6.592331904406819
28,23,female,243,75,125,change,valid,clock,3,0,2,0.18475745985051617,1,j,change,0.5959502982400409,0.0649720829896176,0.4993749114005368,0.03534011683268545,0.35331617680549243,1.0010635165704116,4.507427938413457
28,23,female,244,105,105,same,valid,clock,1,2,2,0.15158093855006882,1,j,change,0.5450346027751038,0.1893023882267583,0.5003370795884621,0.03532792936948681,0.35330495150992647,1.001060309343302,4.461850031334507
28,23,female,245,165,215,change,valid,clock,1,2,2,0.11424560561727048,1,j,change,0.52575243155934,0.18745689244034064,0.4992819018088994,0.03531574190537867,0.3533065551237087,1.0010676859660634,4.389320831133773
28,23,female,246,75,125,change,valid,clock,2,0,2,0.0865258608359909,1,j,change,0.3857123797051827,0.06231248885494878,0.5005981478907415,0.03529810215513862,0.35333830667377697,1.0010676859665182,4.24984460983751
28,23,female,247,45,355,change,catch,anti,4,2,2,0.15301072047805064,1,f,same,1.1716601057487424,0,0.500066068882461,0.035330495151356445,0.35329116043249087,1.001066082352736,6.533988591251273
28,23,female,248,105,55,change,valid,anti,1,0,1,0.1461796470639456,0,j,change,0.3355574385541331,0.059654142084276135,0.5001946786965163,0.03533530599224832,0.35330655512325393,1.0010340100793655,4.201886940106306
28,23,female,249,105,55,change,valid,anti,4,0,1,0.0735144604254856,0,j,change,0.27645593686656866,0.06211203691510933,0.4999720971222814,0.03526827494169993,0.3533864150831505,1.0010426695935166,4.096308866251547
28,23,female,250,15,325,change,valid,anti,3,1,1,0.21260805950578288,0,j,change,0.4273716964758023,0.1839855706197243,0.499654581620689,0.03535871875101293,0.3533136110236228,1.0010878914981731,4.354674758287274
28,23,female,251,105,55,change,valid,anti,2,0,2,0.014006923762281076,1,j,change,0.5503913138022654,0.06444002413928168,0.5083663731197703,0.03533498526940093,0.3533257984872762,1.0010320857431907,4.32808427823602
28,23,female,252,45,355,change,valid,anti,3,0,2,0.22703448859783748,1,f,same,0.9700974163215506,0.06192157494200459,0.5001584370279488,0.03533434382370615,0.35326870984135894,1.0010994375165865,4.920760959576455
28,23,female,253,75,25,change,valid,anti,2,0,2,0.08716858918569415,1,j,change,0.37416187132748746,0.059397447264941866,0.4994133981276718,0.03530868600546455,0.35331264885553537,1.0010859671615435,4.142270036992159
28,23,female,254,45,45,same,catch,clock,3,2,1,0.4285445794971565,0,j,change,0.1629601809900123,0,0.4997783805938525,0.03533145731898912,0.35330559295562125,1.0010686481341509,5.909236750462696
28,23,female,255,15,325,change,catch,anti,4,1,1,0.40830440948866453,0,j,change,0.22645141467592111,0,0.5005368898491724,0.03535070068301138,0.3533164975283398,1.0009868638385342,5.910044971741172
28,23,female,256,75,125,change,valid,clock,5,2,2,0.15240230946028532,1,f,same,0.8251291390070037,0.18567959765507244,0.5000795392365944,0.035295215650876344,0.35335081486027775,1.0010795527073242,4.684547065739935
28,23,female,257,105,105,same,valid,clock,5,2,2,0.03729748765090335,1,f,same,0.8109005958390298,0.18394767394343273,0.49991725353584116,0.03531381756920382,0.3533402310099518,1.0010558192252574,4.531156288827333
28,23,female,258,15,325,change,catch,anti,3,2,1,0.09886342279150995,0,j,change,0.30484599215287744,0,0.5000715211685929,0.03528944264189704,0.35334343823751624,1.0010837221025213,5.615253957878849
28,23,female,259,105,55,change,catch,anti,3,0,1,0.052189606145930156,0,j,change,0.26767326564367977,0,0.5004919886669086,0.03534845562398914,0.35328923609586127,1.001059667898062,5.568115734721232
28,23,female,260,75,125,change,catch,clock,3,2,1,0.046777089364240965,0,j,change,0.19664633070760829,0,0.5009903917884913,0.03526859566409257,0.3533424760694288,1.0010439524844514,5.510104369590408
28,23,female,261,165,215,change,valid,clock,1,0,1,0.02420494439002141,0,j,change,0.1784632762851288,0.05699893283820903,0.5000028865042623,0.035328570814726845,0.35327159634607597,1.0010699310255404,3.9665146227116566
28,23,female,262,135,85,change,valid,anti,2,1,2,0.5380989737514028,1,j,change,0.708462397504718,0.18712356516758427,0.49953751782413747,0.03534332406024987,0.35333734450568954,1.000994561184143,4.979308893833604
28,23,female,263,165,115,change,valid,anti,2,2,2,0.00026235119275952457,1,j,change,0.8961300954019862,0.18209302036857344,0.4990586787889697,0.035346210564966896,0.3532850667006642,1.0010888536662605,4.601200850043369
28,23,female,264,135,185,change,catch,clock,3,1,1,0.0008091834465631109,0,j,change,0.13540336335518077,0,0.5002886504562412,0.03529072553283186,0.3533636437696259,1.0010327271888855,5.438675889797196
28,23,female,265,75,75,same,valid,clock,3,2,2,0.44784278684937817,1,j,change,0.5030443001473941,0.1802365194264839,0.500122195359836,0.035321194191510585,0.35331296957838276,1.0010526119981478,4.684556366698871
28,23,female,266,45,355,change,valid,anti,2,1,2,0.13218202426060088,1,f,same,0.6573106501114125,0.18530736736077918,0.500133420655402,0.03531413829205121,0.3533376652280822,1.0010394623659522,4.496398604471324
28,23,female,267,75,125,change,catch,clock,3,0,1,0.05663193667169253,0,j,change,0.332681517839319,0,0.4998268097260734,0.03530451660981271,0.35331713897357986,1.001083722102976,5.662360750208791
28,23,female,268,15,15,same,valid,anti,5,2,1,0.07579383686379515,0,j,change,1.0496594245337292,0.17832900830928067,0.5000262992639364,0.0353638503147522,0.35330238572805683,1.0010535741662352,4.861844835626016
28,23,female,269,15,325,change,valid,anti,5,1,2,0.010291030219377717,1,j,change,0.5935115226056951,0.1835404300204933,0.4992241717172874,0.03532087346911794,0.3533290057148406,1.0010429903159093,4.295178126196788
28,23,female,270,15,65,change,valid,clock,4,0,1,0.055116201051987446,0,j,change,0.5956937200567154,0.059278832916601354,0.5004727453028863,0.0353324194875313,0.3532815387507071,1.0010346515250603,4.390865752521222
28,23,female,271,75,125,change,catch,clock,5,1,1,0.00336085348180859,0,j,change,0.26089992232118675,0,0.5002286753060616,0.035351021405858774,0.3532533151505959,1.0011424143622207,5.520875521735434
28,23,female,272,105,105,same,catch,clock,4,1,1,0.009169462834051956,0,j,change,0.24443241377866798,0,0.5008787802785264,0.03535743586053286,0.35330174428236205,1.0010721760845627,5.592235687588072
28,23,female,273,135,185,change,valid,clock,1,2,1,0.006599190880933747,0,j,change,0.5434306684055628,0.1849797360381535,0.5003120632154605,0.03532343925053283,0.35328634959205374,1.0010792319844768,4.2845487334980135
28,23,female,274,165,165,same,valid,anti,5,2,2,0.0401410153699544,1,j,change,0.9625860899986947,0.1907030691029695,0.4997934545622229,0.03530804455976977,0.3533145731917102,1.00105485705717,4.77928182483538
28,23,female,275,45,45,same,valid,clock,2,2,3,3.335259166416108,1,j,change,1.2151116211316548,0.18913630099044373,0.4991927408900665,0.03531734551916088,0.35332643993297097,1.001049404771038,8.252438294550302
28,23,female,276,75,125,change,valid,clock,3,2,2,0.615417526470992,1,j,change,0.5815373395021197,0.18761240839539348,0.5003486256068754,0.03534781417829436,0.3532911604329456,1.001048442602496,4.908840016446447
28,23,female,277,45,45,same,valid,clock,4,0,1,0.31397985476405665,0,j,change,0.6487819912904342,0.061567557638825265,0.5002132806148438,0.035356473691990686,0.35328153875025237,1.0010859671615435,4.684772533818887
28,23,female,278,15,15,same,valid,anti,2,0,2,0.16502082452643663,1,f,same,1.0241138591350136,0.06374016424414805,0.5004377865257084,0.03530066793700826,0.3533601158192141,1.0010599886209093,4.897813569009031
28,23,female,279,45,45,same,catch,anti,4,0,1,0.24419411679036784,0,j,change,0.27972281858865244,0,0.49969884135725806,0.03533915466459803,0.35329917850094716,1.0010914194481302,5.873940572644187
28,23,female,280,165,115,change,valid,anti,5,1,2,0.3314156252263274,1,j,change,0.9930541078488204,0.18170304418514738,0.5004977616758879,0.03532055274627055,0.3533065551237087,1.0010683274117582,5.086012383746038
28,23,female,281,75,125,change,valid,clock,1,0,1,0.10392699324347632,0,j,change,0.24232173749624053,0.06140266001861078,0.499921422931493,0.03536545392853441,0.35328859465062123,1.0010612715113894,4.107850394392699
28,23,female,282,45,45,same,valid,anti,2,0,2,0.08023937461666719,1,j,change,1.3211717412486905,0.06352909861392744,0.4994095494553221,0.03533113659614173,0.3533027064509042,1.0010866086072383,5.132216983038234
28,23,female,283,45,95,change,catch,clock,2,0,2,0.008121020231556031,1,j,change,1.11602561676591,0,0.49968761606123735,0.03535743586007811,0.3532994992233398,1.001074421143585,6.356827128524401
28,23,female,284,45,355,change,catch,anti,1,0,1,0.05136983884995061,0,j,change,0.2982865708904683,0,0.5004948751711709,0.035323439250987576,0.35331745969642725,1.0010564606709522,5.60410050424025
28,23,female,285,135,185,change,valid,clock,2,1,1,0.034615604187365534,0,j,change,0.23751121727718782,0.17984964669852366,0.5001141772913797,0.035358398028620286,0.35329436765960054,1.0011084177526755,3.966876397950273
28,23,female,286,165,165,same,valid,clock,5,2,2,0.07200257347903971,1,f,same,1.0906567695906233,0.18614476350931572,0.499374269954842,0.035325042864769785,0.35331745969642725,1.001058385007127,4.861305700718276
28,23,female,287,45,95,change,valid,clock,2,0,1,0.07970120187655994,0,j,change,0.24524031433429627,0.06124504955220461,0.49917862909023825,0.03532119419196533,0.35330847945988353,1.0010391416435596,4.048244395851725
28,23,female,288,105,105,same,catch,anti,3,2,1,0.10266077990763733,0,j,change,0.5210432597232284,0,0.5000352795000254,0.03533883394220538,0.3533206669235369,1.0010705724712352,5.814968642938766
28,23,female,289,165,165,same,catch,clock,5,2,1,0.05749820876371814,0,j,change,0.25735208748801597,0,0.5004740281942759,0.035319911301030515,0.35330495150992647,1.001059026452367,5.509575177087299
28,23,female,290,45,355,change,valid,anti,5,2,1,0.014620466343785665,0,j,change,0.5266514173695214,0.18471755504085113,0.5004871778260167,0.03527533084161405,0.3533751897880393,1.0010558192252574,4.284965352323525
28,23,female,291,105,105,same,valid,clock,3,1,1,0.0761713275164766,0,j,change,0.45005801874185636,0.18296169198770385,0.49953623493320265,0.03535037996016399,0.3532674269504241,1.0011061726936532,4.2252843046630915
28,23,female,292,105,105,same,valid,anti,1,0,2,0.1684140710040083,1,j,change,0.16629249014931702,0.0633277717160518,0.49939543765503913,0.035340758278380235,0.3533200254782969,1.00107313825265,4.036214406993167
28,23,female,293,15,15,same,valid,anti,3,1,2,0.1634694886847683,1,f,same,0.33026102340045327,0.18585616946342676,0.5005073833576716,0.03529264986900671,0.3533142524693176,1.0010872500524783,4.237845089638995
28,23,female,294,45,45,same,valid,anti,5,1,2,0.18251015568557705,1,f,same,0.414174918327717,0.18420961610711772,0.5001837741237978,0.03530515805505274,0.3533168182511872,1.0010356136931478,4.319840100476085
28,23,female,295,15,15,same,catch,clock,1,0,1,0.17166716164865647,0,j,change,0.48024925287654696,0,0.500266841310804,0.03533787177366321,0.35328763248298856,1.0010715346388679,5.897918766064322
28,23,female,296,45,95,change,valid,clock,1,0,2,0.04616996123741046,1,j,change,0.7798725961029049,0.061094205655260636,0.5003123839383079,0.035286556137180014,0.3533302886053207,1.001077949093542,4.543648439138906
28,23,female,297,105,105,same,valid,anti,2,0,2,0.3681646770100997,1,j,change,0.47939131957491554,0.05885890385395137,0.5002565781837802,0.03525255952763473,0.35335498425547485,1.001092060893825,4.53174930515388
28,23,female,298,165,165,same,valid,anti,5,0,1,0.09373089695236558,0,j,change,0.2681960436925692,0.05675226401983913,0.4998511846533802,0.035330174428054306,0.3533068758461013,1.001047159711561,4.01323462342998
28,23,female,299,135,135,same,valid,clock,5,1,2,0.22141574710121859,1,j,change,0.6040289830716574,0.18250682169402507,0.5002626719156069,0.03534653128735954,0.35329821633285974,1.001049084047736,4.496743381405395
28,23,female,300,45,355,change,valid,anti,1,2,2,0.04360193434285975,1,j,change,0.8687236967271019,0.18992808462439367,0.5001754353329488,0.03530836528307191,0.3533238741506466,1.0010391416431048,4.555887218493808
28,23,female,301,165,165,same,valid,clock,5,0,2,0.13852399551251438,1,f,same,1.0132298125886336,0.05876572855952983,0.5028974091374039,0.03535326646488102,0.3533088001827309,1.0010487633253433,4.8413298062387184
28,23,female,302,15,15,same,valid,anti,2,1,2,0.12176142205908036,1,j,change,0.48250810305989944,0.18080015033597244,0.49913148284895215,0.03534268261455509,0.35330976235081835,1.0010760247573671,4.307266165868441
28,23,female,303,165,165,same,valid,anti,3,1,3,0.5722363803488406,1,f,same,1.2050415688731846,0.17908168160008273,0.49948331568293725,0.03533081587374909,0.3532549187643781,1.0011097006436103,5.485296466469208
28,23,female,304,15,65,change,valid,clock,5,0,3,0.0733707766430598,1,f,same,1.3492362629644958,0.05670933125895311,0.5000570886459172,0.035455577015454764,0.3531744173592415,1.00107249680741,5.29788534675572
28,23,female,305,105,55,change,valid,anti,5,1,2,0.19769830126006127,1,j,change,0.5270888831728371,0.1774426028284492,0.49968954039786695,0.035335626714640966,0.3532927640462731,1.001084363548216,4.389851306528271
28,23,female,306,45,95,change,valid,clock,5,0,2,0.17347379278362496,1,j,change,0.4634946974911145,0.05474138735475517,0.5005038554081693,0.03529457420518156,0.35334183462373403,1.0010433110387567,4.296885974730685
28,23,female,307,135,135,same,valid,anti,3,1,2,0.3027526348973879,1,f,same,0.23794323079391688,0.1758741576449937,0.5001055177781382,0.03531349684635643,0.35332643993297097,1.0010622336799315,4.27294626803814
28,23,female,308,45,45,same,catch,clock,4,2,1,0.237683445383027,0,j,change,0.25725073910552965,0,0.49992366799051524,0.035317345518706134,0.35333894811947175,1.0010391416435596,5.661850480346402
28,23,female,309,105,55,change,valid,anti,1,1,2,0.1713711345696538,1,f,same,0.28223696406394083,0.1743509239425345,0.5008348412648047,0.035349738514923956,0.3532988577780998,1.0010824392120412,4.155953672242958
28,23,female,310,45,355,change,catch,anti,2,2,2,0.09076934326913033,1,j,change,0.39442737843137365,0,0.49994740147212724,0.035349738514923956,0.35330334789614426,1.001059667898062,5.708956951953496
28,23,female,311,135,185,change,catch,clock,2,1,2,0.2225822156678987,1,f,same,0.5028149833960924,0,0.5004502947122091,0.03530130938224829,0.35331521463695026,1.0010920608933702,5.99265128010029
28,23,female,312,75,75,same,valid,anti,2,1,2,0.03980169072201534,1,j,change,1.0835466674020608,0.17277424516800444,0.499788643721331,0.03532696720094464,0.35331713897357986,1.0009535086746837,4.814510650881402
28,23,female,313,15,65,change,valid,clock,4,2,2,0.19689841877288927,1,f,same,0.8941204467796524,0.18848821504053612,0.4993191056450996,0.03534139972407502,0.3533190633097547,1.0010529327205404,4.7553193468288555
28,23,female,314,165,115,change,valid,anti,5,2,2,0.2034078072892953,1,j,change,0.4910261780305518,0.1871081911946995,0.4995859469563584,0.03534621056451215,0.3533245155967961,1.0010564606704975,4.330719656903966
28,23,female,315,45,95,change,valid,clock,3,0,1,0.08100269471242427,0,j,change,0.7904365613649134,0.052753931224133965,0.5006873088091197,0.035267312773157755,0.3533549842559296,1.001074421143585,4.579901653582056
28,23,female,316,105,105,same,valid,anti,2,1,2,0.14311995222487894,1,j,change,0.8435979573810073,0.1711944437174913,0.49971455677041376,0.035349417792076565,0.3532937262143605,1.0010564606709522,4.613773501760079
28,23,female,317,165,165,same,valid,clock,3,2,2,0.03129804827403859,1,j,change,0.3127809932011587,0.18577370701297058,0.5004239954482728,0.035313176123963785,0.3533290057148406,1.0010606300661493,4.025897398233155
28,23,female,318,135,85,change,valid,anti,3,2,2,0.09954271353217337,1,j,change,0.3325240429794576,0.1844717632396914,0.5000968582644418,0.03535358718772841,0.3532940469372079,1.0010920608933702,4.083898820958893
28,23,female,319,165,165,same,valid,clock,2,0,1,0.2170077339078489,0,j,change,1.5825469746546332,0.05454084801307771,0.5006154669176794,0.03530804455976977,0.3533290057148406,1.0010728175302575,5.438893660530084
28,23,female,320,165,215,change,catch,clock,4,0,1,0.8193737696274184,0,f,same,0.6876304940606133,0,0.5005776216357845,0.03531189323257422,0.35334023101040657,1.0010429903159093,6.746023519239316
28,23,female,321,135,85,change,valid,anti,4,2,2,0.3453843829838661,1,j,change,0.5920451782862983,0.18308213506498364,0.5004679344624492,0.035345889842119504,0.35331713897357986,1.0010753833116723,4.614659017215672
28,23,female,322,75,75,same,valid,anti,3,1,2,0.28400254268990466,1,f,same,0.9526263663592545,0.16958966030603748,0.4995410457740945,0.03534139972407502,0.353286349591599,1.0010782698163894,4.849196493345971
28,23,female,323,135,185,change,valid,clock,2,2,3,0.6704368692585376,1,j,change,0.4812643403151924,0.18169933553237883,0.500211356278669,0.03530002649176822,0.353355946424017,1.0010741004211923,4.790773320230983
28,23,female,324,15,325,change,valid,anti,5,2,3,0.3082741974071723,1,j,change,0.5706500857290848,0.18030980704840138,0.5001962823102986,0.0353263257557046,0.35331425246886283,1.0010792319844768,4.531581246443693
28,23,female,325,75,75,same,valid,anti,1,1,2,0.4184488694204447,1,j,change,1.1949596498734536,0.16803344734341139,0.5006462562996603,0.03530836528261716,0.3533331751100377,1.0010827599344339,5.203968751342927
28,23,female,326,15,325,change,catch,anti,1,2,1,0.6651619425274475,0,f,same,2.933246053988114,0,0.49964784644271276,0.03534717273305432,0.3532860288687516,1.0010968717347168,8.853770320190051
28,23,female,327,45,355,change,valid,anti,5,0,2,0.7804832521796925,1,f,same,2.6030684184970596,0.05628438380410489,0.5000930095911826,0.03533979611029281,0.3533088001827309,1.0010301614070158,7.087921004708733
28,23,female,328,75,125,change,valid,clock,2,1,2,0.21810877503821757,1,j,change,0.5358673850000741,0.16654919985691202,0.4991276341761477,0.035356473691990686,0.35333991028710443,1.0010330479117329,4.425192706251892
28,23,female,329,75,125,change,valid,clock,2,2,2,0.7125897783103028,1,f,same,0.44345786569328993,0.1788925494263981,0.4992940892725528,0.03530900672831194,0.3533395895647118,1.0010651201846485,4.8132508520002375
28,23,female,330,135,135,same,valid,clock,2,0,2,0.0954967963002673,1,j,change,0.7444580715969096,0.05440560427262467,0.5006452941315729,0.03526859566409257,0.35333894811947175,1.0010737796983449,4.520801114062579
28,23,female,331,135,85,change,valid,anti,3,0,1,0.034052415074256714,0,j,change,0.8041618905704127,0.05249880348877445,0.4998864641538603,0.035307723837377125,0.3533206669235369,1.0010593471756692,4.519737597491712
28,23,female,332,165,115,change,valid,anti,3,1,1,0.24179479005169924,0,j,change,0.46852330916544815,0.16511397830175878,0.5004179017164461,0.035317666241553525,0.35333830667377697,1.0010401038111922,4.343968392133775
28,23,female,333,105,105,same,catch,clock,4,1,1,0.8220505215272169,0,j,change,0.20851852398300252,0,0.49993521400847385,0.03534877634683653,0.3533126488550806,1.0010724968069553,6.180904617701799
28,23,female,334,45,95,change,valid,clock,4,2,2,0.504291590842513,1,j,change,0.37606728506307263,0.17752260139739925,0.49994451496786496,0.035385980183036736,0.35329276404581833,1.001093343784305,4.591023355670586
28,23,female,335,45,95,change,catch,clock,4,0,2,0.896663778024049,1,j,change,0.49476163566032483,0,0.49923443484476593,0.03532953298281427,0.3532969334419249,1.001100399684674,6.580385303458115
28,23,female,336,15,15,same,valid,clock,5,1,3,0.6613514357791246,1,f,same,0.6349296558837523,0.16772716755832184,0.49969852063441067,0.035326646478097246,0.35330944162797095,1.0010776283706946,5.049498742446303
28,23,female,337,135,185,change,valid,clock,3,1,2,0.649351274134915,1,j,change,0.554008424744552,0.16630387247430464,0.5003171947796545,0.035314779737291246,0.3533145731917102,1.001084363548216,4.837818533796963
28,23,female,338,135,185,change,valid,clock,1,1,3,0.23444574942959662,1,j,change,1.5456770104024145,0.164923806321828,0.50018601918282,0.03530451660981271,0.3533469661874733,1.0010631958484737,5.450451224808148
28,23,female,339,75,75,same,valid,clock,3,0,1,0.1105681988019569,0,j,change,0.7071570559960492,0.05421981798353731,0.5002174500109504,0.03529938504607344,0.35328827392777384,1.0011167565439791,4.508693510304056
28,23,female,340,45,45,same,valid,anti,3,0,1,0.21433675501702965,0,j,change,0.32511759298859033,0.05589462148917437,0.49955227107011524,0.03531349684635643,0.3533376652280822,1.0010683274117582,4.248498215819382
28,23,female,341,105,105,same,valid,anti,1,2,3,0.2870538987376676,1,f,same,1.0545081107570695,0.17619865609361918,0.5002463150563017,0.035332098764683906,0.3532994992233398,1.0010587057299745,5.108786263317143
28,23,female,342,165,165,same,catch,clock,5,0,1,0.25142994228917814,0,j,change,0.3122893252570975,0,0.5006193155904839,0.03527116144596221,0.3533350994466673,1.0010943059528472,5.734025923376976
28,23,female,343,135,135,same,valid,clock,3,2,3,0.5833458949737178,1,f,same,0.5515795915148374,0.17490802111431103,0.49952821686474635,0.035336909605575784,0.35328474597827153,1.0011042483574784,4.872578463211994
28,23,female,344,165,165,same,valid,anti,3,0,3,0.187315544339981,1,f,same,1.956027630904373,0.05769244822419975,0.5005028932396272,0.035349417792076565,0.35331553535979765,1.0010410659797344,5.897969440255565
28,23,female,345,165,115,change,catch,anti,4,0,3,0.8450825828954294,1,j,change,1.1731081688722043,0,0.4999464393040398,0.03532664647855199,0.3532991785004924,1.0010721760845627,7.2402351154182725
28,23,female,346,45,95,change,valid,clock,1,2,2,0.36083680408773944,1,j,change,0.5375508586066644,0.17353202105285262,0.5002745386564129,0.03535134212825142,0.35328474597827153,1.0010689688569983,4.567714189864091
28,23,female,347,45,45,same,valid,anti,4,0,2,0.5405537855222065,1,j,change,1.44381226430869,0.055873386529160685,0.4998710694626425,0.035307403114529734,0.35335530497832224,1.0010712139164752,5.66193899981954
28,23,female,348,15,325,change,valid,anti,4,2,2,0.2929526311772861,1,j,change,0.5068076606548857,0.17216437557196076,0.4999390626812783,0.035281103850593354,0.35334311751466885,1.0010715346388679,4.437229751009909
28,23,female,349,75,125,change,catch,clock,5,1,2,0.19401415926677146,1,j,change,0.5640669309850637,0,0.5004984031211279,0.03533338165561872,0.3533075172917961,1.0010551777795627,6.00399620520875
28,23,female,350,105,155,change,valid,clock,5,0,1,0.05132429622199197,0,j,change,1.6513317369895049,0.05411210063230559,0.5009541501199237,0.035317986964400916,0.3532876324825338,1.001085004993456,5.369203497930357
28,23,female,351,165,215,change,valid,clock,5,1,1,0.057035085142160824,0,j,change,0.5247315711117153,0.16350012323317614,0.5107679449174611,0.03534428622879204,0.3532927640462731,1.001080835598259,4.28362793854194
28,23,female,352,165,215,change,valid,clock,5,0,2,0.24452959276550246,1,j,change,0.559366739385041,0.05572092246315044,0.49940987017771477,0.03532921225996688,0.35331778041927464,1.0010718553617153,4.472262615468026
28,23,female,353,45,45,same,catch,anti,5,1,1,0.17253952747296353,0,j,change,0.3549377509252736,0,0.5002892919019359,0.03532985370566166,0.3532549187643781,1.0010657616298886,5.709977812401576
28,23,female,354,15,15,same,valid,clock,4,0,1,0.05675381130822643,0,j,change,0.9339529268831939,0.053995366661080846,0.500228996028909,0.035326325755249854,0.3533588329282793,1.0010221433390143,4.60211875849518
28,23,female,355,15,325,change,valid,anti,3,0,2,0.2890712447056103,1,f,same,0.7382908942327049,0.05557437637916235,0.500077935623267,0.03531510045968389,0.3533001406690346,1.0011042483574784,4.7792459038896595
28,23,female,356,75,75,same,valid,clock,2,0,2,0.30563913946252796,1,f,same,0.7113020765514193,0.053882974033717085,0.49997979446834506,0.03535037996016399,0.3533216290920791,1.0010494047705834,4.778700033803943
28,23,female,357,165,165,same,valid,anti,4,2,3,0.5100322069765753,1,f,same,0.6163646206910016,0.170791761873411,0.5004874985484093,0.03531381756920382,0.3533283642691458,1.0010461975434737,5.203776959150673
28,23,female,358,135,185,change,valid,clock,5,2,3,0.31723551119057447,1,f,same,0.7480520905028243,0.16938563660246936,0.49998973687252146,0.03534139972362027,0.3533120074098406,1.0010689688569983,4.825929983662718
28,23,female,359,135,135,same,catch,clock,2,2,3,0.17959061667897913,1,f,same,0.7420112778941075,0,0.5003675482480503,0.035328250091879454,0.35330431006468643,1.0010468389887137,6.156821227226374
28,23,female,360,135,135,same,valid,clock,4,1,2,0.21281973650729924,1,j,change,0.4509730406889503,0.16582343809876832,0.5009762799882083,0.03535358718772841,0.35328602886920635,1.0010882122205658,4.356107426719518
28,23,female,361,135,185,change,catch,clock,5,2,1,0.25448931640494266,0,j,change,0.32192608110835863,0,0.49961032188366516,0.035301950827943074,0.35330366861899165,1.001066082352736,5.744332669009964
28,23,female,362,105,105,same,valid,clock,5,0,2,0.11648200520994578,1,j,change,0.8409452596861229,0.05215207288857682,0.49998973687252146,0.03532792936903206,0.3532667855051841,1.0011071348621954,4.673558784306806
28,23,female,363,165,115,change,catch,anti,2,2,1,0.11778638455052715,0,j,change,0.38396893094795814,0,0.4997732490301132,0.03533145731898912,0.3533136110236228,1.0010776283706946,5.720961282993358
28,23,female,364,45,45,same,valid,clock,2,1,2,0.13094852464337237,1,j,change,0.4801783731531941,0.16449536013916324,0.49984412875346607,0.03535775658338025,0.3532780108002953,1.0010599886209093,4.2844181993473285
28,23,female,365,15,325,change,valid,anti,5,0,2,0.19131271171681874,1,j,change,0.5220394245211537,0.05039755487052658,0.49933546250440486,0.03533338165561872,0.353324836318734,1.0010773076478472,4.366176516809901
28,23,female,366,165,115,change,valid,anti,4,0,2,0.18023719370194158,1,j,change,0.07975829052202243,0.04865318121798515,0.49984990176244537,0.03533755105081582,0.35327833152359744,1.0010862878848457,3.91935362824006
28,23,female,367,135,135,same,valid,clock,1,2,1,0.22021977204303766,0,j,change,0.4739104888521979,0.16799431260504122,0.4998662586217506,0.03534107900077288,0.3533091209055783,1.0010708931936279,4.2847523924310735
28,23,female,368,165,165,same,valid,anti,5,1,2,0.6638075304417725,1,j,change,0.21388742247336268,0.16311870101169595,0.49980115190737706,0.03528880119620226,0.35331906331020946,1.0010878914981731,4.53188176364165
28,23,female,369,75,125,change,valid,clock,4,0,2,0.06450343461983721,1,j,change,0.8703202544743363,0.04701034831121323,0.49994483569071235,0.03533113659614173,0.35331617680549243,1.0010795527073242,4.578969633330416
28,23,female,370,135,85,change,catch,anti,1,0,1,0.11922514671459794,0,j,change,0.23841501392917053,0,0.5001311755963798,0.0352852732462452,0.3533200254782969,1.0010821184891938,5.567957297692828
28,23,female,371,15,325,change,valid,anti,4,1,2,0.20335071864337806,1,j,change,0.45485282354684387,0.16173994676693512,0.5008309925920003,0.03529778143274598,0.35331713897357986,1.0010458768206263,4.403134679812865
28,23,female,372,105,105,same,valid,anti,2,2,1,0.19037812568376467,0,j,change,0.3149734537801123,0.17300564682281097,0.5001500982375546,0.03533209876422916,0.35331745969642725,1.0010397830887996,4.119924642987371
28,23,female,373,75,25,change,catch,anti,2,2,1,0.14252116288935213,0,j,change,0.03195328481024262,0,0.499509935669721,0.03532985370566166,0.35333125077386285,1.0010093144292114,5.426418508523511
28,23,female,374,135,185,change,valid,clock,1,0,1,0.2572359858600066,0,j,change,0.9477526637629126,0.045436684265247995,0.5000651067139188,0.03533947538744542,0.3532866703144464,1.0010994375165865,4.896823818666235
28,23,female,375,135,185,change,valid,clock,4,2,2,0.14879738598165204,1,f,same,0.6336528586975874,0.17735288490372045,0.4997200090574552,0.03534332405979512,0.35328057658216494,1.0010647994613464,4.4492918121409275
28,23,female,376,135,185,change,valid,clock,4,1,2,0.2829306873281894,1,f,same,0.40379376502141895,0.16034039717221882,0.4999813980816725,0.035354870078663225,0.3533213083692317,1.0010712139160205,4.425904389988318
28,23,female,377,165,115,change,catch,anti,2,1,1,0.36895814504214286,0,j,change,0.43164949624087967,0,0.500037203836655,0.03531510046013864,0.35329757488716496,1.001093343784305,5.968905289936174
28,23,female,378,75,25,change,valid,anti,5,1,1,0.17761143671577884,0,j,change,0.4126822747452934,0.15892996714290986,0.4997729283077206,0.035316704073920846,0.3533299678824733,1.0010571021161923,4.2847103777539814
28,23,female,379,135,85,change,valid,anti,2,2,1,0.17264696958727654,0,j,change,0.4939662432911973,0.1762083864193949,0.4991042214164736,0.03534492767403208,0.35327801080075005,1.0010776283711493,4.330226706068515
28,23,female,380,75,125,change,valid,clock,5,1,1,0.16043865889150766,0,j,change,0.5311161984859609,0.161351951445442,0.4999608718271702,0.03531510045968389,0.35334311751466885,1.0010413867025818,4.402241467011208
28,23,female,381,105,55,change,valid,anti,5,0,1,0.12567135285371478,0,j,change,0.5596637286325858,0.04697177827355728,0.4995317448147034,0.03536256742427213,0.35330334789614426,1.0010481218796485,4.331277393730488
28,23,female,382,45,355,change,valid,anti,3,1,2,0.36136888309602,1,j,change,0.6937322439880518,0.1635916976274394,0.5000352795000254,0.035352945742033626,0.3533206669235369,1.0010474804344085,4.719896483532011
28,23,female,383,165,115,change,valid,anti,4,1,1,0.18928189539428786,0,j,change,0.7310643696932857,0.16229400041574077,0.5006148254724394,0.03531894913248834,0.3533088001827309,1.0010503669386708,4.626913832707487
28,23,female,384,75,75,same,catch,clock,4,2,2,0.1359639866859652,1,j,change,0.973274174956714,0,0.49955611974246494,0.035347172732599574,0.35327031345514115,1.0011148322078043,6.2976566714496585
28,23,female,385,165,215,change,catch,clock,5,0,2,0.2973474947384602,1,f,same,0.922772853258266,0,0.5004919886669086,0.03529264986900671,0.3533055929551665,1.0010968717347168,6.580900063438548
28,23,female,386,15,325,change,valid,anti,3,2,2,0.16509427003211385,1,j,change,0.7600339709515538,0.18064812097449934,0.5010606300661493,0.03535551152390326,0.3533027064509042,1.0010904572800428,4.603180992175112
28,23,female,387,75,75,same,valid,anti,4,0,1,0.5556505251192903,0,j,change,0.548872050233058,0.048516278769365845,0.49998781253589186,0.03530836528261716,0.35331681825073247,1.0010664030755834,4.779325122403861
28,23,female,388,15,15,same,valid,anti,4,1,2,0.21174563608610697,1,f,same,0.5823834060624904,0.16443946509680774,0.4992501502583764,0.03530515805550749,0.35333830667377697,1.0010811563211064,4.5311800223094
28,23,female,389,135,185,change,valid,clock,3,2,1,0.09737847655424048,0,j,change,0.232122113254718,0.17948592226630336,0.500040731786612,0.035364491759992234,0.3533136110236228,1.0010375380297774,3.9778938651516
28,23,female,390,135,135,same,catch,anti,2,2,2,0.19950012155368313,1,f,same,0.5380826168920976,0,0.5005362484039324,0.03537796211458044,0.3532882739282286,1.00107313825265,5.957900651644195
28,23,female,391,105,55,change,valid,anti,4,1,1,0.09309458305733642,0,j,change,0.5053509380177275,0.1631775727049656,0.49988999210381735,0.03532760864618467,0.3533315714962555,1.0010757040345197,4.3200809632458
28,23,female,392,105,105,same,valid,clock,2,1,2,0.18934219126731477,1,j,change,0.285837076702137,0.16524642377233298,0.49987010729455505,0.035357756582925504,0.35329661271907753,1.0010699310250857,4.095884870803275
28,23,female,393,45,45,same,valid,clock,1,1,2,0.05881958640884477,1,f,same,0.7748555304465299,0.16407023570250104,0.4994778633963506,0.03531189323257422,0.35334375896036363,1.0010272749022988,4.566170551367577
28,23,female,394,45,45,same,valid,anti,5,0,1,0.055310879748503794,0,j,change,0.25961638995750036,0.050097840210353795,0.5001087250052478,0.035314779737291246,0.3533065551237087,1.001014766715798,4.002335823638532
28,23,female,395,15,65,change,valid,clock,1,0,2,0.18822992484183487,1,f,same,0.8956826871944941,0.05165758841773535,0.49975593000272056,0.03533113659659648,0.35331585608264504,1.0010728175298027,4.813912502990661
28,23,female,396,45,45,same,valid,anti,2,1,2,0.15168356982348996,1,f,same,0.5024490387618243,0.16284400250203823,0.5004772354213856,0.03530130938270304,0.35330847945988353,1.0011234917210459,4.355848924199563
28,23,female,397,165,115,change,valid,anti,2,0,1,0.14956134752264916,0,j,change,0.3768225870903734,0.05000372285249455,0.49995670243151835,0.03534653128735954,0.3533350994466673,1.0010340100798203,4.225918052776706
28,23,female,398,75,75,same,catch,clock,1,0,1,0.12521143645972188,0,j,change,0.24500073445506132,0,0.49958530551111835,0.035307403114529734,0.3532950091052953,1.0010750625892797,5.590663825490992
28,23,female,399,45,45,same,valid,clock,5,1,2,0.13765483691577174,1,f,same,0.405851522053581,0.16161086012930848,0.5008855154555931,0.0353834144011671,0.353298216332405,1.0010397830887996,4.272935684188269
28,23,female,400,45,355,change,catch,anti,3,2,2,0.23587072051668656,1,f,same,1.6460776572362192,0,0.500507062635279,0.03537635850125298,0.3532879532053812,1.0010853257163035,7.099708206460946
28,23,female,401,15,65,change,valid,clock,5,1,2,0.1245699910004987,1,j,change,0.9228594483952293,0.1603558779899318,0.5041767721049837,0.035321835637660115,0.353298216332405,1.0010968717347168,4.700549205601874
28,23,female,402,75,125,change,valid,clock,4,1,2,0.25434210467210505,1,j,change,0.5523550990742478,0.15908750582568207,0.49987491813544693,0.03532953298281427,0.35327480357318564,1.001087250052933,4.472276085823069
28,23,female,403,75,75,same,valid,clock,1,1,2,0.08225928636602475,1,j,change,0.4870379908902578,0.157877346957851,0.5002222608518423,0.035297139987051196,0.3532969334419249,1.0011116249797851,4.284382599124001
28,23,female,404,45,45,same,valid,anti,1,1,2,0.09131777913626138,1,j,change,0.5264394196460671,0.1567172808200341,0.5004060349756401,0.03533306093277133,0.3532731999598582,1.0010981546256517,4.319840100476085
28,23,female,405,75,25,change,catch,anti,2,2,1,0.12182781166393397,0,j,change,0.34884594340292097,0,0.5005606233312392,0.03530740311407499,0.3533094416284257,1.0010478011568011,5.674905819770629
28,23,female,406,15,15,same,valid,clock,3,1,2,0.11454099125148787,1,f,same,1.162613158996919,0.15559321696883244,0.4997161603846507,0.03534492767357733,0.3533027064509042,1.0010564606704975,4.979585036103799
28,23,female,407,15,65,change,valid,clock,3,2,2,0.11842045338653406,1,j,change,0.43526660718316634,0.1835398705680844,0.49949357880996104,0.035292008423766674,0.35333670305999476,1.0010657616298886,4.260698829169542
28,23,female,408,75,25,change,catch,anti,1,2,1,0.11951540078507605,0,j,change,0.5369905559987274,0,0.4991677245175197,0.03540554426945164,0.35330559295562125,1.001043631761604,5.873290467671723
28,23,female,409,105,105,same,valid,clock,3,2,1,0.11975626355433633,0,j,change,0.47334729973908907,0.1824750398123024,0.500136307160119,0.035227222432240524,0.35343163698826174,1.0010667237984308,4.272477371408058
28,23,female,410,135,135,same,valid,clock,3,1,2,0.2931655910697373,1,f,same,1.0842586718617895,0.15449219654654475,0.5005779423586318,0.03527404795067923,0.3533460040189311,1.0010577435614323,5.097930440371783
28,23,female,411,45,45,same,catch,anti,5,1,1,0.112481951328391,0,j,change,0.2622941040258411,0,0.49952821686474635,0.03535615296959804,0.35331136596460055,1.0010548570567153,5.6025655252574325
28,23,female,412,105,105,same,catch,anti,2,2,1,0.14609882493641635,0,j,change,0.4987385975050529,0,0.5006199570357239,0.03531574190537867,0.35329757488716496,1.001089174389108,5.8158454988806625
28,23,female,413,105,105,same,catch,anti,1,1,1,0.42312693115172806,0,j,change,0.20789888766967124,0,0.5000997447687041,0.03532408069668236,0.35330334789614426,1.001028878516081,5.886552993978967
28,23,female,414,45,45,same,valid,anti,1,2,2,0.7376311675780016,1,j,change,0.4941731094518218,0.18613301133263982,0.4995663828699435,0.03529746070989859,0.35334760763271333,1.0010641580165611,4.896529074477257
28,23,female,415,165,165,same,catch,clock,4,0,1,0.055319859985047515,0,j,change,0.2150205358761923,0,0.49946792099171944,0.03531926985533573,0.3533565878697118,1.0010567813933449,5.520315219127042
28,23,female,416,15,325,change,valid,anti,1,2,2,0.3380763948712229,1,j,change,0.4433318216601947,0.18517853869494588,0.5005259852764539,0.03534781417829436,0.35328442525542414,1.0010676859660634,4.49696339719776
28,23,female,417,105,55,change,valid,anti,5,2,2,0.15121884258860518,1,j,change,0.9701169804084202,0.18424065117590802,0.4997267442345219,0.03534653128735954,0.35325780526864037,1.0010670445208234,4.826395993788083
28,23,female,418,75,25,change,valid,anti,5,0,1,0.13830365899775643,0,j,change,0.1371650933078854,0.05154346650904881,0.49911416382110474,0.03533594743748836,0.3532847459778168,1.0010968717347168,3.977238628615396
28,23,female,419,45,95,change,catch,clock,1,0,2,0.1712572780006667,1,j,change,0.382092382258179,0,0.5001905093013193,0.03534492767403208,0.3532725585141634,1.0010753833116723,5.685815524134796
28,23,female,420,75,75,same,valid,anti,2,2,2,0.08981230664448958,1,j,change,0.49020320350700786,0.18323496017160754,0.5006058452358957,0.035275651564006694,0.3533575500373445,1.0010744211431302,4.261904746632354
28,23,female,421,135,135,same,valid,clock,2,2,2,0.2007448464664776,1,j,change,0.7370343025791044,0.1822323213743161,0.4998319412898127,0.035312534678269,0.35330495150992647,1.0010747418664323,4.566922325444921
28,23,female,422,135,185,change,catch,clock,1,2,1,0.1641202351024731,0,j,change,0.3889372467492649,0,0.4995942857472073,0.035312855401116394,0.35331713897357986,1.0010417074254292,5.732338921819974
28,23,female,423,165,115,change,valid,anti,1,0,1,0.06798135189774257,0,j,change,0.11612119213941696,0.053004605167027236,0.5007867328549764,0.03528655613672527,0.35333574089190734,1.0010561399481048,3.8961108520384187
28,23,female,424,75,75,same,valid,clock,3,1,1,0.11045241789679494,0,j,change,0.45010035414179583,0.15334741164192767,0.5000747283961573,0.03543376787001762,0.3531997544546357,1.0010792319844768,4.2612944112784135
28,23,female,425,135,185,change,valid,clock,2,0,2,0.14886730353646271,1,j,change,1.5815613937070339,0.05441257274255337,0.4992074941355895,0.03534172044646766,0.3533014235599694,1.0010773076478472,5.414242270101113
28,23,female,426,135,135,same,valid,anti,5,2,1,0.044345690352656675,0,j,change,0.20792999777404475,0.18122552091243774,0.5003114217702205,0.035319590578183124,0.3533059136780139,1.0010718553617153,3.9669136017869278
28,23,female,427,75,25,change,valid,anti,1,1,1,0.016707409144146368,0,j,change,0.3611552817583288,0.15522492679143798,0.5000025657818696,0.035328250091879454,0.35330366861899165,1.0010356136931478,4.0957905783207025
28,23,female,428,165,165,same,catch,anti,5,1,2,0.14382041066619422,1,f,same,1.9757902447690867,0,0.5005166843170628,0.03532375997383497,0.3533068758461013,1.0010615922342367,7.382103286830898
28,23,female,429,75,25,change,catch,anti,1,0,2,0.8409513534179496,1,j,change,0.3950515048632042,0,0.5005256645536065,0.0352653884369829,0.35337230328332225,1.0010763454802145,6.427948035220652
28,23,female,430,165,165,same,valid,clock,3,1,1,0.07973487776280308,0,j,change,0.23712442566557002,0.15720960176303117,0.5009573573474881,0.03532055274627055,0.35333574089190734,1.0010817977663464,4.038130404578624
28,23,female,431,15,65,change,catch,clock,1,2,1,0.05280924245926144,0,j,change,0.36493916851986796,0,0.4995230853010071,0.03533658888272839,0.3533302886057754,1.0010404245340396,5.6383078283929535
28,23,female,432,105,155,change,valid,clock,2,2,1,0.018238539454159763,0,j,change,0.35190884546864254,0.1847164473648549,0.4998736352445121,0.03536737826470926,0.35327223779177075,1.0010689688569983,4.09549198545983
28,23,female,433,105,105,same,valid,anti,5,2,2,0.07640577583151753,1,j,change,0.45956424044197774,0.18799265283572889,0.5006161083633742,0.0353381924965106,0.35329629199623014,1.0010548570567153,4.284876512127539
28,23,female,434,15,325,change,catch,anti,3,2,2,1.5102884644370533,1,j,change,0.6839418619497337,0,0.49978415360328654,0.035335305991793575,0.3533046307870791,1.0010699310255404,7.35838712388022
28,23,female,435,15,15,same,valid,anti,4,2,1,0.1478797982526885,0,j,change,0.11562984491774841,0.18708882320208162,0.4995525917925079,0.03533434382370615,0.353300461391882,1.0010686481341509,3.9544012459437
28,23,female,436,105,105,same,valid,anti,3,0,1,0.020818753812818613,0,j,change,0.25087188474026334,0.052874400773774616,0.49931782275461956,0.03533883394220538,0.35331585608264504,1.001051329107213,3.966219878523134
28,23,female,437,105,105,same,valid,anti,4,2,2,0.18371318664321734,1,f,same,0.695453562876537,0.19057961599466644,0.4991375765803241,0.03530291299648525,0.3533318922191029,1.0010500462162781,4.601229394366328
28,23,female,438,105,105,same,catch,clock,1,1,1,0.16500575055852096,0,j,change,0.2224366075488433,0,0.5005805081400467,0.03529681926465855,0.35329308476912047,1.0011007204075213,5.591960828208812
28,23,female,439,135,185,change,valid,clock,5,0,2,0.16412215943864794,1,j,change,0.8363576417641525,0.05426201814594522,0.5004679344619944,0.035265709159830294,0.3533787177375416,1.0010487633253433,4.685788904148467
28,23,female,440,15,65,change,valid,clock,1,2,2,0.36073096558720863,1,j,change,0.4909081520663676,0.18964320100110055,0.49954040432839975,0.035328570814726845,0.35329949922379456,1.0010936645071524,4.519697186427948
28,23,female,441,45,45,same,valid,anti,1,0,1,0.17079896522000126,0,j,change,0.20660605434750323,0.05274818472605783,0.4994676002693268,0.03532536358716243,0.35329661271907753,1.0010850049939108,4.095281591349249
28,23,female,442,105,105,same,valid,clock,3,0,1,0.20806694637985856,0,j,change,0.32424683077852023,0.05411627575946923,0.5003948096800741,0.03532985370566166,0.35330976235081835,1.0010571021161923,4.202791378203074
28,23,female,443,45,95,change,catch,clock,2,0,1,0.1774395293332418,0,j,change,0.33505358314641853,0,0.49977902203954727,0.035321514914357977,0.3533402310099518,1.0010641580165611,5.732998007028982
28,23,female,444,105,155,change,valid,clock,4,2,1,0.14449809779353018,0,j,change,0.2213346042503872,0.18872594202243417,0.5002357312064305,0.03533338165561872,0.35331713897357986,1.001077949093542,4.049006433056547
28,23,female,445,165,215,change,valid,clock,4,2,2,0.5040497659047105,1,j,change,0.4923793072262015,0.19205319587130565,0.49975496783463313,0.03533498526940093,0.3532943676600553,1.0010676859660634,4.661278310997204
28,23,female,446,15,15,same,valid,clock,1,1,2,0.18586395326656202,1,f,same,0.701657623355004,0.1592178502938998,0.49942975498697706,0.03532215635959801,0.3532866703144464,1.00111226642548,4.625331707482928
28,23,female,447,15,15,same,catch,anti,3,0,1,0.09771395252892034,0,j,change,0.1694907372070702,0,0.5003178362248946,0.03535037996016399,0.35328570814635896,1.0010952681209346,5.485964852637608
28,23,female,448,165,165,same,valid,clock,4,1,2,0.1285969855912299,1,f,same,0.4103416402658695,0.15808608670655316,0.5003774906526814,0.035355190801510616,0.35329789561001235,1.0010638372937137,4.284951561246089
28,23,female,449,15,325,change,valid,anti,2,0,1,0.1262290896797822,0,j,change,0.3265444884118551,0.055451390042021126,0.49979281311698287,0.03533274020992394,0.35332483631918876,1.0010359344159951,4.154546020183716
28,23,female,450,165,165,same,catch,clock,1,1,2,0.14169530186109114,1,j,change,0.3332190491341862,0,0.49970942520712924,0.03531766624200827,0.3532956505509901,1.001059026452367,5.626299969403135
28,23,female,451,135,135,same,valid,anti,4,1,3,0.20540141977562598,1,j,change,1.3302276682366028,0.157002473828218,0.5084725323431485,0.03531542118298603,0.35329565055053536,1.0010971924571095,5.128966778898302
28,23,female,452,45,45,same,catch,clock,1,1,2,0.1032297420301802,1,j,change,0.7320579687088866,0,0.4997934545622229,0.0353381924965106,0.3532687098418137,1.0010943059528472,6.0504006147616565
28,23,female,453,135,85,change,catch,anti,2,1,1,0.008449440306776523,0,j,change,2.2668528569015507,0,0.5002639548065417,0.035277896623483684,0.35334760763271333,1.0010817977663464,7.593619606165248
28,23,female,454,165,115,change,valid,anti,5,0,1,0.05895910079607347,0,j,change,0.9248463257040385,0.05688325139190761,0.5008162393460225,0.03538469729210192,0.3532943676600553,1.001049404771038,4.815019958575704
28,23,female,455,135,135,same,catch,clock,1,0,1,0.11925657754181884,0,j,change,0.4354009900066558,0,0.4998466945353357,0.03534685201020693,0.35329629199623014,1.001069610302693,5.768322408448512
28,23,female,456,15,15,same,catch,clock,4,2,1,0.0308535265712635,0,j,change,0.13732160599965937,0,0.4995484223973108,0.0353285708142721,0.3532632575547723,1.001087250052933,5.473326773484587
28,23,female,457,75,75,same,valid,clock,4,1,1,0.1866782682768644,0,j,change,0.13255791129950012,0.15595461024475346,0.5006177119767017,0.03532119419196533,0.3533360616147547,1.001070893193173,4.014096405403961
28,23,female,458,135,135,same,valid,clock,5,2,2,0.2093132749059805,1,f,same,0.5590408850921449,0.19118261651196577,0.5000875573055055,0.035324401419075,0.3532905189867961,1.0010830806572812,4.4966567862684315
28,23,female,459,45,95,change,valid,clock,1,1,2,0.09234922343421204,1,f,same,0.8140597147234985,0.15785547014595963,0.4995734387698576,0.03533306093277133,0.3533039893413843,1.0010792319844768,4.613396973275485
28,23,female,460,15,325,change,valid,anti,1,0,2,0.1941068481360162,1,j,change,0.5558012648020849,0.058324640932089306,0.5000227713135246,0.03525416314141694,0.35330559295562125,1.0010417074254292,4.461246751880935
28,23,female,461,75,75,same,valid,anti,1,2,2,0.1887931139549437,1,j,change,0.8753825420358226,0.1903014828606662,0.4999134048630367,0.03531189323257422,0.35333830667377697,1.0010676859660634,4.778774762200101
28,23,female,462,105,105,same,valid,anti,1,1,2,0.2557289097544526,1,j,change,0.027927573110446247,0.1568064750943512,0.5001148187370745,0.03536801971040404,0.3532545980415307,1.0010522912753004,4.072527275864559
28,23,female,463,165,165,same,valid,clock,1,2,2,0.1346907174502121,1,f,same,0.6787034976100585,0.18940704737275788,0.5002164878424082,0.03533658888272839,0.35324465563689955,1.001099116793739,4.51988480922455
28,23,female,464,45,355,change,valid,anti,3,2,2,0.23803559893985948,1,j,change,0.48541449243384704,0.18854162436472813,0.5002389384335402,0.03529778143274598,0.3533104037960584,1.0010712139160205,4.390546312683
28,23,female,465,165,165,same,valid,anti,1,1,2,0.11116185657374444,1,f,same,0.8003440071997829,0.1557899921055696,0.5003434940435909,0.035329853705206915,0.3532953298281427,1.0010728175302575,4.614892182640233
28,23,female,466,15,15,same,valid,anti,3,0,1,0.18363300596092813,0,j,change,0.25047194349644997,0.056849326668512445,0.49932936877257816,0.03536481248329437,0.3533126488550806,1.0010705724707805,4.142362405138101
28,23,female,467,15,15,same,catch,anti,1,2,1,1.133397242682804,0,j,change,0.3791096608742919,0,0.5003633788528532,0.035323118528140185,0.35330944162797095,1.0010747418664323,6.758025284497307
28,23,female,468,75,25,change,valid,anti,4,2,2,0.10655916468431315,1,f,same,0.7237855673488411,0.18770808605912553,0.5005747351310674,0.03528206601913553,0.3534268261469151,1.00096216818838,4.556191263641267
28,23,female,469,105,105,same,valid,clock,1,0,1,0.20262396093858115,0,j,change,0.2262631504336241,0.058266466814775514,0.4998329034579001,0.035356473691990686,0.35331617680549243,1.0010718553617153,4.13079938857436
28,23,female,470,165,215,change,valid,clock,4,1,2,0.20692934285807496,1,j,change,0.5546287025031233,0.15479532538595953,0.5006831394134679,0.03528206601913553,0.3533344580009725,1.0010728175298027,4.496973339602391
28,23,female,471,135,135,same,catch,anti,1,0,1,0.1751502104903011,0,j,change,0.2882649477637642,0,0.5001549090779918,0.03535166285109881,0.3533203462011443,1.0010237469523418,5.69778361350609
28,23,female,472,165,165,same,catch,clock,1,0,2,0.2603819551131892,1,j,change,0.7448538434446164,0,0.5006196363133313,0.035330174428054306,0.35329019826440344,1.001040745256887,6.252197111058194
28,23,female,473,165,165,same,catch,anti,1,2,1,0.25778698750946205,0,j,change,0.22665443216374115,0,0.4994919751966336,0.035361605255729955,0.35330815873703614,1.0010580642847344,5.6146096259158185
28,23,female,474,75,75,same,valid,anti,2,0,1,0.09912513253857469,0,j,change,0.3946852395060887,0.05971600109500319,0.4999720971222814,0.03530002649176822,0.35330815873703614,1.0010930230619124,4.225422856882233
28,23,female,475,15,65,change,valid,clock,5,2,2,0.15797935700265953,1,f,same,0.7391016812925955,0.1869010374510246,0.49974278037097974,0.03528399035531038,0.3533402310099518,1.001078590538782,4.614293072581859
28,23,female,476,15,15,same,catch,anti,5,1,2,0.43815375319354644,1,j,change,0.2444179812555376,0,0.49919306161245913,0.03534204116931505,0.35330431006468643,1.0011013618527613,5.8973299191329716
28,23,female,477,105,155,change,valid,clock,4,0,2,0.1732852078189353,1,f,same,0.5491190067345997,0.06117752737929516,0.5002315618107787,0.03529778143274598,0.35333991028710443,1.0010686481346056,4.438053046256755
28,23,female,478,165,165,same,valid,anti,1,0,1,0.9330507338454481,0,j,change,0.2552253750691307,0.059635186363487774,0.49993489328562646,0.035312855401116394,0.35333830667377697,1.0010548570567153,4.872881866913758
28,23,female,479,75,75,same,valid,clock,1,2,1,0.23384824298500462,0,j,change,0.3986153758328328,0.18611550256837664,0.5000067351775215,0.03531061034209415,0.35333093005101546,1.001047159711561,4.343299685242528
28,23,female,480,165,215,change,valid,clock,2,1,2,0.3633663442551551,1,j,change,0.7255559568152421,0.1537634382390587,0.5002427871063446,0.03531061034209415,0.35331713897357986,1.001066082352736,4.837927258801756
