subject,age,gender,ntrial,memory_ori,test_ori,type,trial_type,which_change,trial,quest,pas,pas_rt,vis,test_key,test,test_rt,contrast,fix_dur,target_dur,mask_dur,retention_dur,trial_dur
29,20,male,1,105,105,same,valid,anti,3,1,1,1.9777521346167077,0,j,change,3.8475542229379016,0.2,0.5101588931647711,0.03532448772557473,0.35333307462110497,1.00105484047981,9.476864869129486
29,20,male,2,75,75,same,valid,clock,4,2,2,1.7439191124331046,1,f,same,2.0690360861922272,0.2,0.4994603924878902,0.03535046585841428,0.35327630759002204,1.0010808186126496,7.428505452361151
29,20,male,3,45,95,change,catch,clock,3,0,1,0.6191336324774284,0,j,change,2.9400832005829898,0,0.4993468584259517,0.03532609131400477,0.35331447299506635,1.001059009809751,8.700186689766952
29,20,male,4,45,95,change,catch,clock,4,1,2,1.6245819845818232,1,f,same,2.860180878362371,0,0.5003311410141578,0.03534116504545182,0.3532795147669958,1.0010667070342834,9.679108802513952
29,20,male,5,45,95,change,valid,clock,4,0,2,1.6475456918474265,1,j,change,1.504664357713068,0.2,0.4996095262133622,0.03531518691272595,0.3533180008896579,1.0010558026328908,6.7806727181817905
29,20,male,6,75,25,change,valid,anti,1,2,1,1.3402865997413755,0,j,change,1.8503826322391888,0.11397766455402543,0.5001618020742171,0.03536008738922192,0.35327598687240425,1.0010455396668476,6.8288034632378185
29,20,male,7,165,215,change,valid,clock,4,0,2,0.8785820557810666,1,f,same,9.430633734946696,0.0723357464867447,0.4991047165706277,0.035423589491642815,0.35323429357276837,1.0010577269390524,13.881355301639815
29,20,male,8,165,165,same,valid,anti,1,1,4,2.7153434870416504,1,f,same,1.364796166269116,0.33948538693435915,0.5000364014576917,0.035290491650584954,0.3533125486890185,1.001057406221321,7.664140907958199
29,20,male,9,105,55,change,valid,anti,1,1,3,1.7392767238816305,1,j,change,1.8084709238946743,0.277883819201003,0.4999892559573027,0.03530620681738128,0.35333147103256124,1.0010436153607998,7.158347623979012
29,20,male,10,15,15,same,valid,clock,3,2,3,0.6104450695588639,1,f,same,1.3980879452805084,0.24043453680453014,0.49946969330096636,0.03535944595387264,0.35328721199152824,1.0010699142111434,5.614490923208336
29,20,male,11,15,15,same,valid,anti,3,0,1,0.8206379908704093,0,j,change,1.2565889043867173,0,0.5003321031672385,0.03536457743689425,0.3532464808449731,1.0010718385174187,7.228798075180748
29,20,male,12,15,65,change,catch,clock,3,2,2,1.1649146393834826,1,f,same,6.213395928873865,0,0.5003083700581783,0.03533827858632321,0.35330613433507096,1.0010378424423152,12.540976014486205
29,20,male,13,15,15,same,catch,clock,1,0,1,0.8270302151343003,0,j,change,1.6876562496491943,0,0.49943120717819056,0.03534084432772033,0.3533324331857557,1.0010747249765473,7.699609397926338
29,20,male,14,105,55,change,valid,anti,2,1,2,1.37477914578119,1,j,change,1.2705471796567736,0.2361351957338891,0.4994238306713896,0.03534116504545182,0.35332024591355093,1.0010439360784176,6.262448095851028
29,20,male,15,45,45,same,valid,anti,3,1,3,1.221381478617559,1,f,same,1.7159666415118409,0.20435316182746724,0.4995736058322109,0.03531807337196824,0.3532939470629799,1.0010432946429546,6.521290362722084
29,20,male,16,75,75,same,valid,clock,1,1,3,1.5072913563055863,1,f,same,1.6461524942055803,0.17691399892921375,0.5005357589000141,0.03529658528668733,0.3533109451004748,1.0010368802893481,6.746871639480105
29,20,male,17,75,75,same,valid,anti,3,1,3,1.3573994542027776,1,f,same,1.2519763425805195,0.15369661090354697,0.4997108730030959,0.035286643038489274,0.35333980969244294,1.0010234101464448,6.215845891301797
29,20,male,18,135,135,same,valid,anti,4,2,2,3.3758416834855325,1,f,same,1.1741820977310908,0.20821230939956695,0.49960984693098,0.03532128054894201,0.35332794313808336,1.001037201006966,8.17067120118736
29,20,male,19,45,45,same,valid,clock,1,2,3,0.5255847725807143,1,f,same,1.0371201860675683,0.18435721902886748,0.4999228673957532,0.035336354280161686,0.35332345309029733,1.0010327109594073,5.14373348103436
29,20,male,20,165,165,same,valid,clock,5,1,3,0.7462869711325766,1,f,same,1.0228719820065635,0.1315715714680637,0.5005020835426421,0.035332184950220835,0.3533289052911641,1.0010368802893481,5.368834643411674
29,20,male,21,165,215,change,valid,clock,2,1,2,1.573840918253154,1,j,change,2.389298677007446,0.1103528035241932,0.4996387115231755,0.03532448772557473,0.3532804769199629,1.0010801771773004,7.557790922214053
29,20,male,22,75,25,change,valid,anti,4,1,2,0.4121764319322665,1,f,same,1.250945235209656,0.08867192557182357,0.5003093322111454,0.035326732749581424,0.3533372439510458,1.001010260720932,5.26265495876055
29,20,male,23,75,25,change,catch,anti,1,0,1,1.261191203226872,0,j,change,2.149571505131462,0,0.4997394168774463,0.0353058860996498,0.35329843711065223,1.0010756871297417,8.547893574324917
29,20,male,24,165,165,same,valid,clock,1,0,2,0.4894087793900326,1,f,same,1.6130149804025677,0.05517235490842054,0.49999855677037885,0.03533795786847804,0.35330324787605605,1.0010593305273687,5.733063139370643
29,20,male,25,135,135,same,valid,anti,2,2,3,0.40946668817605314,1,f,same,0.9971449711304103,0.16411084760184697,0.4994292828721427,0.03533250566783863,0.35331222797117334,1.0010230894285996,4.979112619054376
29,20,male,26,135,135,same,catch,clock,3,1,3,1.0188354291701671,1,f,same,1.056649006881571,0,0.4990008040392695,0.03530845184104692,0.35330549289983537,1.0010785735887566,7.192176284402194
29,20,male,27,165,215,change,valid,clock,1,0,2,0.5195600907886728,1,f,same,2.638729483288671,0.00898370978647961,0.5001213916452798,0.03531326260667811,0.353309982947394,1.0010538783267293,6.76958903556033
29,20,male,28,45,45,same,catch,clock,1,2,1,0.28132618047379765,0,j,change,2.2594179551231264,0,0.5000982999717962,0.03532961920859634,0.3532936263452484,1.0010647827282355,7.687883959208648
29,20,male,29,165,115,change,valid,anti,2,2,2,0.16713849584039053,1,j,change,6.386988226774292,0.14678544476673633,0.4999142080182537,0.035322563419640574,0.3533022857229753,1.00104842612609,10.231485047980868
29,20,male,30,15,15,same,valid,clock,3,1,2,3.883311679544022,1,j,change,1.2178462075294192,0.0648563557018863,0.5003731550314114,0.03530845184127429,0.35334269615168523,1.0010092985678511,8.712789932799978
29,20,male,31,75,125,change,valid,clock,2,0,1,0.26096862515055363,0,j,change,1.1449028177294167,0,0.49967399046886385,0.035392159157936476,0.3532599509881038,1.0010657448813163,6.5571751442507775
29,20,male,32,15,15,same,catch,clock,5,1,1,0.7522471886688891,0,j,change,1.2635401395828012,0,0.5001037521724356,0.03533058136190448,0.353292664192395,1.001072800670272,7.193902707723282
29,20,male,33,45,45,same,catch,anti,5,2,1,0.9358683287111944,0,j,change,2.6195848822660537,0,0.4993644978987959,0.03531518691261226,0.35330870007669546,1.0010513125853322,8.688521545974709
29,20,male,34,165,215,change,valid,clock,4,2,2,0.29816161413373266,1,j,change,1.818177765476321,0.13222582751820972,0.49962171348556694,0.03532673274935405,0.3532557816579356,1.0011125696639738,5.756368090257638
29,20,male,35,135,85,change,valid,anti,1,0,1,0.764426122199211,0,j,change,2.4005504156982624,0.007734214071502016,0.4993321054121225,0.03533410925638236,0.35331703873657716,1.0010551611974279,6.745207756108357
29,20,male,36,165,165,same,valid,anti,5,0,1,1.0090362208936767,0,j,change,2.767671464496516,0.03385475088142445,0.49945365741655223,0.03531839408947235,0.3533372439510458,1.0010153922039535,7.416252112326674
29,20,male,37,165,165,same,valid,clock,4,1,2,3.6383340383777067,1,j,change,4.985286113854272,0.03411535513832456,0.5003324238848563,0.03532128054871464,0.35330966222954885,1.0010468225377736,12.25779704792194
29,20,male,38,75,25,change,valid,anti,5,1,1,2.595419766536679,0,j,change,7.054565624772522,0,0.4998763633307135,0.03534437222242559,0.35327053467176484,1.0010788943063744,14.789690337449429
29,20,male,39,45,45,same,valid,anti,5,2,2,0.15199516870870866,1,j,change,1.400380756040704,0.11841647710693455,0.4999372996917373,0.0353418064808011,0.3532939470630936,1.0010708763641105,5.179778300690032
29,20,male,40,165,115,change,valid,anti,5,2,2,0.22725317807180545,1,j,change,13.152778682023381,0.10593524937556947,0.4994988786104386,0.03540595001868496,0.3533070964883791,1.0010570855035894,16.991881031697403
29,20,male,41,15,65,change,valid,clock,2,2,2,1.0885892815506395,1,f,same,3.9057224695131936,0.0943644431542246,0.4992233821155878,0.03536169097765196,0.35330421002890944,1.0010574062214346,8.653294556426772
29,20,male,42,75,75,same,valid,clock,5,0,2,1.1313447981356148,1,f,same,1.9737537471851283,0.056969224111473815,0.4997817516125451,0.0353581630829467,0.3533048514643724,1.0010612548335303,6.686810837820303
29,20,male,43,75,25,change,valid,anti,2,0,1,0.7405939114312332,0,j,change,1.197185253272437,0.034338224569368025,0.5000113854780466,0.035320318395633876,0.35329009845054316,1.0010160336394165,5.603669908374059
29,20,male,44,45,45,same,catch,anti,3,0,2,0.14132040114077427,1,j,change,4.065531283284599,0,0.4996281278392871,0.0353142247595315,0.3533196044779743,1.0010792150242196,9.348643540569356
29,20,male,45,165,115,change,catch,anti,1,0,2,0.7317257466067986,1,f,same,2.1285628928992537,0,0.49990586935814463,0.03533667499777948,0.35329202275693206,1.00103271095918,7.994051969735665
29,20,male,46,165,115,change,valid,anti,3,0,2,0.39941603723150365,1,f,same,1.1855653306745353,0.052494873391276176,0.5004093961301805,0.035346617246204914,0.3532936263452484,1.001072800670272,5.1799816357051895
29,20,male,47,75,25,change,valid,anti,3,2,2,1.0979600109940293,1,j,change,2.0622522656299225,0.0824644088861818,0.49934429268432723,0.035310696865053615,0.35334494117569193,1.0010577269390524,6.816136397384753
29,20,male,48,135,135,same,valid,anti,3,2,3,1.2224658251248002,1,f,same,1.2480032918463166,0.07094048870497005,0.49916437006072556,0.035339240739403976,0.35330068213443155,1.001062858422074,6.085120078306545
29,20,male,49,165,115,change,valid,anti,2,1,2,0.9748262271380099,1,j,change,4.824797057864316,0.056240370117288024,0.5001531426964902,0.035326412031736254,0.3532859291208297,1.0010958923442104,9.501537360243447
29,20,male,50,75,75,same,valid,anti,2,2,1,0.23285611610231172,0,j,change,1.3463061500503954,0.059534716564470874,0.5004927827296797,0.03532320485487617,0.35330870007669546,1.0010939680378215,5.214893039046956
29,20,male,51,45,95,change,valid,clock,3,0,2,1.0400165875189487,1,f,same,2.1852228041821036,0.03391020151357732,0.5050925158282098,0.035338920021558806,0.3533180008896579,1.001055481915273,6.857168697825273
29,20,male,52,75,75,same,valid,clock,2,2,2,0.6341028099038795,1,f,same,1.2116980494270138,0.09414360313043009,0.4998574409871708,0.03534725868144051,0.3533295467266271,1.001066065598934,5.42676267243769
29,20,male,53,135,85,change,valid,anti,3,0,1,0.2827184159623357,0,j,change,1.8897795931825385,0.017789118673442572,0.4993612907219358,0.03532865705574295,0.3533292260087819,1.0010250137347612,5.8260853808217234
29,20,male,54,165,215,change,valid,clock,5,0,2,0.2340812576751432,1,j,change,1.8283028229250249,0.03157725776908621,0.500483802634335,0.035336354280161686,0.35329202275693206,1.0010295037823198,5.756660584790097
29,20,male,55,135,185,change,valid,clock,2,1,2,1.625502123632259,1,j,change,3.273335499246741,0.03869327588741625,0.5003218402009679,0.035339240739403976,0.3532766283078672,1.0010474639730091,8.58266097542446
29,20,male,56,45,45,same,valid,anti,5,1,1,0.4846900600286972,0,j,change,0.7904241395226563,0.019067200724198208,0.5008314606093336,0.035354955906086616,0.35330356859367384,1.0010359181362674,4.956786819272793
29,20,male,57,45,45,same,valid,anti,1,1,3,1.1203419363716876,1,f,same,0.4472433833534524,0.05074387607206873,0.4998731561538534,0.03532737418481702,0.3533112658180926,1.0010500297144063,5.167748180167791
29,20,male,58,75,75,same,valid,anti,1,2,2,1.006611274445504,1,f,same,0.9439218706052088,0.08677924554363588,0.4999754650966679,0.03535335231777026,0.35333435749180353,1.0010426532076053,5.591814899710016
29,20,male,59,75,75,same,valid,clock,4,0,2,0.9884115077354636,1,f,same,0.9199937652481367,0.01789537864865992,0.4995534006177422,0.03530492394656903,0.3533163973011142,1.0010474639730091,5.544360227542711
29,20,male,60,165,215,change,valid,clock,3,1,2,0.9024800136753584,1,j,change,1.0013915940535298,0.0376919533590471,0.49995012839917763,0.035313262606450735,0.35332281165506174,1.0010529161736486,5.591864290234071
29,20,male,61,105,55,change,valid,anti,1,0,2,1.1485208339815927,1,f,same,1.3281211363541843,0.0058220115101557945,0.4998478194565905,0.035382537627356214,0.3532564230931712,1.0010609341159125,6.109746706790702
29,20,male,62,15,325,change,valid,anti,5,2,1,2.289713268764217,0,f,same,6.385181624030793,0.08016390992777808,0.5000501923182128,0.035337637150860246,0.35332313237267954,1.0010160336394165,12.269934608870471
29,20,male,63,45,45,same,valid,clock,5,0,1,1.0424848308550736,0,j,change,0.5511527074827427,0,0.4991602007307847,0.035309093276509884,0.3533135108420993,1.0010692727760215,6.780390807333106
29,20,male,64,45,355,change,valid,anti,5,0,1,0.96946831742207,0,j,change,5.867872009267558,0.004998822631455929,0.500067831791057,0.03534886227021161,0.3532936263452484,1.0010618962689932,10.525961615865299
29,20,male,65,165,165,same,valid,clock,2,2,2,0.7899453080124204,1,f,same,0.5370343940855946,0.1021212891667624,0.5000020846648567,0.03538638623967927,0.3532605924233394,1.0010497089967885,4.944201536430228
29,20,male,66,45,45,same,valid,clock,5,2,2,0.812764371600224,1,f,same,0.512326303308555,0.09652818939075747,0.49924487020075503,0.0353033203580253,0.35334141328098667,1.0010545197621923,4.955170081401548
29,20,male,67,135,135,same,valid,clock,2,2,2,0.4485284991342269,1,f,same,1.2923979965407852,0.09145652622471243,0.49990747294668836,0.0353584838005645,0.35330709648815173,1.0010612548335303,5.344765742989011
29,20,male,68,15,15,same,valid,anti,5,0,2,0.7743350159253168,1,f,same,0.8117865033657381,0.014101179173739459,0.4995950939173781,0.03530203748732674,0.35329202275693206,1.0010830636365426,5.202753874510336
29,20,male,69,75,75,same,valid,clock,5,1,2,1.2769551190872335,1,j,change,2.348660538606964,0.024462078116291808,0.4999616742359194,0.03531326260667811,0.3533510348117943,1.0010474639730091,7.322833143094385
29,20,male,70,135,85,change,valid,anti,5,0,1,2.0327170529124032,0,f,same,1.4631846560960184,0.004323132559315046,0.49951010372979,0.035330581361677105,0.3532734211310071,1.0010538783267293,7.1101267572521465
29,20,male,71,45,45,same,valid,anti,3,2,2,0.8315670875658725,1,f,same,0.5770689417952326,0.08637540900426013,0.500340762544738,0.035300433899010386,0.35335584557697075,1.0010634998573096,5.050678526379215
29,20,male,72,15,15,same,valid,clock,3,0,1,1.01045700025702,0,f,same,1.2403368562033847,0.012579441812654413,0.49950753798839287,0.03530139605209115,0.35331703873657716,1.0010468225375462,5.909570761066334
29,20,male,73,105,55,change,valid,anti,2,2,1,0.7962727473029645,0,j,change,0.6292939688719343,0.08172490683035222,0.49960760190720066,0.035316469783538196,0.35331479371279784,1.0010442567959217,5.084666583493799
29,20,male,74,105,55,change,valid,anti,2,0,1,1.0772987360194293,0,j,change,0.7037142636306726,0.020802840844799914,0.5002179276698371,0.03532993992621414,0.35330068213443155,1.001069593493412,5.403702429147643
29,20,male,75,45,45,same,valid,clock,3,1,2,1.2390482125281324,1,j,change,0.73497910684614,0.010363034922563963,0.499790410990272,0.0353607288245712,0.3533215287841358,1.0010609341159125,5.661708585003225
29,20,male,76,135,135,same,catch,anti,1,2,1,0.7804722696262161,0,j,change,1.1042630757403913,0,0.5005989402845898,0.03531839408947235,0.35333948897482514,1.0010455396668476,7.064858096854778
29,20,male,77,135,135,same,valid,anti,2,1,2,0.7401679983399845,1,f,same,0.46024720278046516,0,0.49976186711569426,0.03530845184127429,0.35330709648815173,1.0010471432553913,6.344855543942003
29,20,male,78,15,15,same,valid,anti,2,2,2,1.6153937435033185,1,f,same,0.5499298109339179,0.09757502617874808,0.5004289599094136,0.035302037487554117,0.3533138315597171,1.0010766492828225,5.815791625868769
29,20,male,79,135,135,same,valid,clock,3,2,2,1.0296878743374691,1,f,same,0.3989853133748511,0.09350866756470796,0.4995152352128116,0.03532320485487617,0.3533215287841358,1.0010612548335303,5.038107034397399
29,20,male,80,45,95,change,valid,clock,1,2,2,1.475065963610632,1,j,change,0.681468643271046,0.08937753369042381,0.49910150939354025,0.03532224270202278,0.3533048514645998,1.0010567647859716,5.838162967562312
29,20,male,81,15,325,change,valid,anti,4,1,2,1.810613638776431,1,f,same,0.6665947189983399,0,0.49994884552870644,0.035319997677788706,0.3533212080667454,1.001066065598934,7.617749414930813
29,20,male,82,45,355,change,valid,anti,1,2,2,1.1211895932242442,1,j,change,1.0141013153595395,0.08553223799097566,0.49943088646068645,0.03532993992621414,0.35329555065140994,1.0010631791396918,5.779548923398806
29,20,male,83,135,185,change,valid,clock,3,2,2,1.1919447262307585,1,j,change,0.5874377446875769,0.081948298562709,0.5001274852813822,0.03533186423260304,0.353276949025485,1.0010564440683538,5.426791216312267
29,20,male,84,105,105,same,valid,clock,1,1,1,1.2508743566002067,0,j,change,1.4638523903249734,0,0.5002762982892364,0.03535303159992509,0.35330068213443155,1.0010320695239443,7.958888161572531
29,20,male,85,45,45,same,catch,clock,2,0,1,0.8374981197923717,0,j,change,0.43432262980809355,0,0.4997900902724268,0.035312300453597345,0.35333115031471607,1.001059330527596,6.475183667002739
29,20,male,86,15,15,same,valid,clock,4,1,2,3.8458037457901355,1,j,change,0.5769752922299176,0,0.49976186711569426,0.03534469294004339,0.3532965128044907,1.0010359181362674,9.630999866260709
29,20,male,87,105,105,same,valid,anti,3,2,2,0.9092545334247006,1,f,same,0.4863016664171482,0.07824836776171856,0.49951427305973084,0.0353328263856838,0.3532849669677489,1.0010413703369068,5.002099738711422
29,20,male,88,135,135,same,valid,clock,4,2,2,1.0575088510065598,1,f,same,0.44414941980562617,0.07480056454677089,0.5003805315382124,0.035329619208823715,0.35328721199152824,1.0010711970819557,5.108823039845674
29,20,male,89,45,95,change,valid,clock,3,1,1,0.6803393962875361,0,j,change,0.5391992384879813,0,0.5004696910559687,0.03533442997400016,0.35328753270914603,1.00103271095918,6.4047720226415095
29,20,male,90,75,75,same,valid,clock,1,0,1,0.7533834914418094,0,j,change,0.5448958260838026,0.029020155154191873,0.5000803397813343,0.03532352557272134,0.35326540318851585,1.0010657448813163,4.955702793483169
29,20,male,91,75,125,change,valid,clock,5,2,2,0.783029031044407,1,j,change,0.8099353208638149,0.07127865264349562,0.4996832912818263,0.03533539212708092,0.35327662830763984,1.0010452189490024,5.202268307928762
29,20,male,92,135,185,change,valid,clock,4,1,1,0.7545396787113532,0,j,change,1.2063257074150897,0.004281793397847983,0.49982472778287956,0.035333788538764566,0.35329009845077053,1.0010490675615529,5.58002724176049
29,20,male,93,165,165,same,valid,clock,1,1,1,0.6203677541454908,0,j,change,1.3457355932812334,0.018725258009617163,0.4990970193459816,0.03535720092986594,0.3532852876853667,1.0010442567959217,5.579101971227146
29,20,male,94,45,355,change,valid,anti,4,1,1,0.5323159954421044,0,j,change,3.131247299957977,0.031935127498253446,0.4994161334468572,0.03535559734154958,0.35330902079454063,1.0010339938298785,7.346252910914018
29,20,male,95,15,15,same,valid,anti,3,2,2,1.0157337683974674,1,f,same,1.4724780925764662,0.06789210354935427,0.49976796075179664,0.03534757939928568,0.35330421002890944,1.0010663863167792,6.109766591287325
29,20,male,96,105,105,same,valid,clock,3,0,2,0.7580592346328103,1,f,same,0.9974307305917591,0.03726303941866396,0.4999097179704677,0.03531711121877379,0.3533176801720401,1.00105484047981,5.414690858615813
29,20,male,97,135,185,change,valid,clock,3,0,2,0.9057349775032435,1,j,change,1.5710295069895892,0.0289094226733026,0.5003327446024741,0.035357521647483736,0.35327374184839755,1.0010529161736486,6.121788052432294
29,20,male,98,105,155,change,catch,clock,2,0,2,0.7677064227245864,1,f,same,1.382988556472128,0,0.5003587227354274,0.035334750691617955,0.3532920227567047,1.0010298244999376,7.264857647850022
29,20,male,99,135,135,same,catch,anti,3,2,2,1.0058630400765196,1,f,same,0.6251567106810398,0,0.4998048432862561,0.035301716769708946,0.3533051721822176,1.0010538783267293,6.768952090229504
29,20,male,100,135,85,change,valid,anti,3,2,1,0.8275257239640723,0,j,change,1.4247466410436118,0.0647213003278419,0.49998508662747554,0.03534757939928568,0.3532753454369413,1.001059009809751,5.933407782599488
29,20,male,101,135,135,same,valid,clock,2,0,2,0.6477291423657334,1,f,same,1.0146802107885833,0.021159047479822085,0.5032817437549966,0.0353222427017954,0.35330581361745317,1.001065744881089,5.2534529268216374
29,20,male,102,105,155,change,valid,clock,3,2,1,1.0999410841604913,0,j,change,1.6871203303905986,0.07552372649956716,0.49951395234188567,0.035325129161037694,0.3533016442877397,1.0010195615341217,6.450202966189636
29,20,male,103,105,105,same,catch,clock,1,2,1,1.1820088922186187,0,f,same,1.8014738260690137,0,0.5008513451061845,0.03529947174592962,0.3533237738081425,1.0010339938301058,8.183887977159657
29,20,male,104,15,15,same,valid,clock,2,2,2,0.8877106433692461,1,f,same,0.46959259552659205,0.0862012827884897,0.4999061900759898,0.03535880451840967,0.3532968335221085,1.0010583683745153,5.002948678434677
29,20,male,105,165,165,same,catch,anti,4,2,1,0.850057103784593,0,j,change,0.4084715011863409,0,0.4991579557070054,0.035325129161037694,0.3533215287841358,1.0010448982313846,6.380041160908149
29,20,male,106,135,85,change,valid,anti,5,2,2,0.9341755807477057,1,j,change,0.7250237090552218,0.0835696810587194,0.5001585948971297,0.0353414857631833,0.3532856084032119,1.0010679899048682,5.2619622085519495
29,20,male,107,45,355,change,valid,anti,2,0,2,0.9371534444919689,1,f,same,0.8127236404536688,0.013878939279482722,0.49966244463212206,0.035362653130732724,0.3532682896479855,1.001058368374288,5.356211836599414
29,20,male,108,165,165,same,catch,clock,3,2,2,2.0608908190392867,1,f,same,2.222046005669654,0,0.4991047165706277,0.035327694902434814,0.3532833633792052,1.0010333523946429,9.465271245382155
29,20,male,109,105,105,same,valid,clock,1,2,2,1.0556785151541135,1,f,same,1.1549804089600002,0.08083066718198069,0.49997354079073375,0.03533539212708092,0.35328143907304366,1.0010699142112571,5.850450624389396
29,20,male,110,75,25,change,valid,anti,5,0,1,0.7879103542743451,0,j,change,0.5241511645099308,0.006978021957125047,0.5003359517795616,0.03529401954506284,0.3533349989272665,1.0010558026328908,4.955670400996496
29,20,male,111,135,135,same,valid,clock,2,1,2,0.9915045091304364,1,f,same,0.6562737030417338,0.04334160065896153,0.499956863470743,0.035327694902434814,0.35333115031494344,1.0010426532076053,5.250260182225475
29,20,male,112,15,15,same,catch,clock,4,0,1,0.7164746583314354,0,j,change,0.43502436011203827,0,0.4996358250639332,0.03536842604898993,0.35330388931129164,1.001062858422074,6.321510503343916
29,20,male,113,45,45,same,valid,anti,1,0,1,0.7975116797365445,0,j,change,0.9507502709261644,0.013258384703369736,0.50027469470092,0.03540178068874411,0.3532028632394031,1.0010567647859716,5.320881575955582
29,20,male,114,15,15,same,valid,anti,2,0,1,1.1738892824807863,0,f,same,1.834622885708768,0.019129959724421747,0.4996422394178808,0.035297226721922925,0.3532718175424634,1.0010788943063744,6.686108145363505
29,20,male,115,75,75,same,catch,clock,4,1,2,1.254553309213179,1,f,same,4.2637957515810285,0,0.5005851494238414,0.03529273667459165,0.35332537739668624,1.0010622169868384,10.667940450422293
29,20,male,116,165,115,change,catch,anti,3,2,1,0.9514747721862022,0,j,change,0.753938012326671,0,0.5006156176043532,0.035337637150860246,0.35331639730134157,1.0010570855035894,6.911059211862039
29,20,male,117,165,215,change,catch,clock,4,0,2,0.8527466423263377,1,f,same,1.5722700430114855,0,0.5000258177738033,0.035282794425938846,0.3533382061041266,1.0010375217245837,7.570434575676018
29,20,male,118,165,115,change,valid,anti,4,1,2,1.0017770967160686,1,f,same,1.1014109333302713,0.03704689555532925,0.49954249621623603,0.035343730786962624,0.3533125486890185,1.0010461811020832,5.673417987836274
29,20,male,119,75,25,change,valid,anti,1,1,1,0.683900324790784,0,j,change,0.5688617761281876,0.031114671360496143,0.49968232912874555,0.035319035524935316,0.3533074172059969,1.0010535576091115,4.896011779319224
29,20,male,120,135,135,same,valid,anti,2,0,2,1.0632147394151161,1,f,same,1.0741172165423905,0.02519071542559509,0.500623956264235,0.03529850959284886,0.35327310041316196,1.0010776114356759,5.709804692548914
29,20,male,121,135,85,change,catch,anti,4,0,1,0.3059967472813696,0,j,change,1.7376878884492726,0,0.5002413400609385,0.03541172293716954,0.35320639113388097,1.0010384838776645,7.134715541049218
29,20,male,122,135,135,same,catch,anti,2,0,1,0.8538463832826437,0,j,change,1.102652431505021,0,0.4997532077379674,0.03533859930394101,0.35326828964775814,1.001050350432024,7.051431571513376
29,20,male,123,75,75,same,catch,clock,2,0,1,0.8890756178545871,0,j,change,0.7834889402108729,0,0.5001072800671409,0.03536233241311493,0.35327117610700043,1.0010311073708635,6.816454870049938
29,20,male,124,135,135,same,valid,anti,3,1,2,0.8262152714858075,1,f,same,1.0440213893041346,0.04106933590149758,0.5001800829825243,0.035382858345201385,0.3532365385965477,1.0010519540205678,5.568676080586101
29,20,male,125,15,325,change,valid,anti,2,1,2,1.406386515488748,1,j,change,0.8231758299450576,0.03558666477300526,0.49897707093032295,0.035408195042464286,0.3532333314196876,1.001076649282595,5.873056731431234
29,20,male,126,45,95,change,valid,clock,4,2,1,0.7895745583637108,0,j,change,0.8241639611455867,0.07817986901294804,0.49983306644276126,0.03529434026290801,0.35330837935907766,1.0011019859800854,5.214197081661496
29,20,male,127,15,15,same,valid,anti,4,0,2,1.1296703310799785,1,f,same,0.4797346510126772,0.019036028585588144,0.5003808522560576,0.03531230045336997,0.3533051721822176,1.0010234101462174,5.250542734509736
29,20,male,128,105,105,same,valid,anti,3,0,2,0.9051079744208437,1,j,change,1.467299464048665,0.013210732026999988,0.5000453815530363,0.03531358332406853,0.3533186423248935,1.0010455396668476,5.991793796486036
29,20,male,129,105,105,same,valid,clock,2,1,2,0.704643382776112,1,f,same,0.5693527949104009,0.030410727900030216,0.5000713596859896,0.03529690600430513,0.3533128694066363,1.0010683106227134,4.861340272809002
29,20,male,130,45,45,same,valid,clock,2,0,2,2.6904686230659536,1,f,same,0.9439311714179439,0.007559960282660427,0.5002390950373865,0.03533378853853719,0.35328945701530756,1.0010638205751548,7.228732648772166
29,20,male,131,135,185,change,valid,clock,1,1,1,0.9425023741127916,0,j,change,0.7041119535651887,0.02517844479584752,0.5001752722173478,0.035366822460673575,0.3532737418486249,1.0010718385174187,5.226669471877585
29,20,male,132,105,155,change,valid,clock,5,1,1,0.20261756949230403,0,j,change,0.9014851474034913,0.034169292449013844,0.4998959271097192,0.035350786576145765,0.35328721199152824,1.0010352767008044,4.755416520873723
29,20,male,133,75,75,same,valid,clock,3,0,2,1.3401749899855986,1,j,change,5.915989284180569,0.0023450583396157076,0.4997686021872596,0.03531935624255311,0.35329202275693206,1.0010397667485904,10.820574488767988
29,20,male,134,105,155,change,catch,clock,5,0,2,2.567240227491311,1,j,change,2.197330538385586,0,0.4995947731997603,0.035356559494630346,0.35331992519581945,1.0010362388536578,9.87845408942303
29,20,male,135,165,165,same,valid,clock,4,0,1,0.8864168682109721,0,j,change,1.0347250663644445,0,0.5000473058591979,0.035406591453920555,0.3532166540999242,1.001087874401719,7.087048874489483
29,20,male,136,165,215,change,valid,clock,5,2,1,0.7426076978017591,0,j,change,0.6743265810500816,0.0873560290766302,0.4999536562938829,0.035346617246204914,0.35328432553228595,1.0010622169868384,5.003239248660975
29,20,male,137,45,355,change,valid,anti,5,1,2,2.5743652916751216,1,j,change,1.5358374756694957,0.04202689312351815,0.4990165192061795,0.03534276863388186,0.3532798354847273,1.0010493882791707,7.734175709034616
29,20,male,138,45,45,same,valid,clock,1,0,2,2.116091144118627,1,f,same,0.44005032701988966,0.001955009645628364,0.49947610765457284,0.03533603356254389,0.3532817597908888,1.0010262966054597,6.133166474610334
29,20,male,139,45,45,same,catch,anti,1,0,2,0.8896618897906592,1,f,same,1.2045293676378606,0,0.4996672553975259,0.03529401954506284,0.35334365830499337,1.0010532368912664,7.1816298039100275
29,20,male,140,165,215,change,valid,clock,3,2,1,0.9169899233709202,0,j,change,0.6356544420841601,0.09616709529812248,0.49993280964417863,0.03534886226998424,0.35331126581831995,1.0010567647859716,5.237994975636639
29,20,male,141,15,15,same,valid,clock,4,0,2,1.2862107108803684,1,j,change,1.1204881836379172,0,0.49982055845271134,0.03530716897057573,0.35332505667884107,1.0010461811023106,7.582193689751193
29,20,male,142,165,165,same,valid,anti,3,2,2,0.4641047951463406,1,f,same,0.8913337911042163,0.10471995564878882,0.4996396736762563,0.03538446193351774,0.35328432553228595,1.0010612548335303,4.93170348879903
29,20,male,143,75,25,change,catch,anti,3,0,1,1.008703957367743,0,j,change,1.5154353405878283,0,0.4996284485571323,0.03534052361032991,0.3532904191683883,1.0010503504322514,7.62920769581342
29,20,male,144,135,185,change,valid,clock,1,0,1,1.1908145170937132,0,f,same,1.8665689332960937,0,0.49975898065667934,0.03530364107587047,0.3532945884983292,1.0010763285649773,8.193928044420545
29,20,male,145,105,105,same,valid,clock,1,0,1,1.080936316050611,0,j,change,0.4374149897676034,0,0.4998378772079377,0.03533859930394101,0.35328689127391044,1.0010359181362674,6.675234212110354
29,20,male,146,135,185,change,valid,clock,3,1,2,1.510494363867565,1,j,change,0.8391078018748885,0.03748830184940788,0.49993505466795796,0.03540081853566335,0.3532384629027092,1.0010352767008044,6.003881966910285
29,20,male,147,15,325,change,valid,anti,4,0,2,0.8836641482846517,1,f,same,0.9339783393688776,0.001280422684639626,0.49932216316369704,0.03532993992644151,0.35331992519581945,1.0010185993808136,5.414044612472026
29,20,male,148,105,105,same,catch,anti,1,1,2,2.72544865999339,1,f,same,2.206819933373936,0,0.49978399663632445,0.03528471873232775,0.35333339533872277,1.001075366412124,10.031263239626924
29,20,male,149,45,45,same,valid,clock,2,2,3,0.4179871950254892,1,f,same,1.0367706037864082,0.10242399611563976,0.5005171572738618,0.03533667499777948,0.3533157558658786,1.0010506711498692,5.0269835827821225
29,20,male,150,45,45,same,valid,clock,3,2,3,0.7285865618648586,1,f,same,0.4425512835603058,0.10018450499446079,0.49947257976009496,0.03535559734154958,0.3532323692668342,1.0010699142112571,4.755145835144049
29,20,male,151,75,75,same,catch,clock,4,1,1,0.910852669670021,0,j,change,1.1667978936543477,0,0.4996021497063339,0.03536521887190247,0.35325129161037694,1.0010400874662082,7.2283490704157884
29,20,male,152,15,15,same,valid,clock,1,0,1,0.671434990364105,0,j,change,0.567545871449056,0,0.4997647535751639,0.03536072882479857,0.35325097089253177,1.0010115435920852,6.392464802035192
29,20,male,153,165,165,same,valid,anti,3,0,1,0.7220698991372956,0,j,change,0.2830647910668631,0.0009864671028957939,0.4993365954596811,0.03534629652858712,0.3533074172059969,1.0010250137343064,4.61318015001234
29,20,male,154,135,85,change,valid,anti,2,2,2,0.8041842112606901,1,j,change,0.7267745069207194,0.09802747911170914,0.4998622517523472,0.03529337810959987,0.3533228116552891,1.0010580476568975,5.144150734748564
29,20,male,155,105,105,same,catch,clock,5,0,2,1.0963233886259331,1,f,same,0.5951458736303721,0,0.4993949660793078,0.035337957868705416,0.3533106243826296,1.0010262966052323,6.780229165618039
29,20,male,156,15,65,change,valid,clock,2,1,1,0.6975359580656004,0,j,change,0.3422442605165088,0.03321003345694146,0.5006528208564305,0.035331864232375665,0.35334173399860447,1.0010314280884813,4.673990789629443
29,20,male,157,105,55,change,valid,anti,3,2,2,0.9080922525190545,1,j,change,0.5619759673404587,0.09599579635841408,0.49975673563267264,0.035326732749581424,0.35330870007692283,1.0010567647859716,5.120651428941528
29,20,male,158,135,135,same,valid,clock,1,2,3,1.3076827601735204,1,f,same,0.48047101882730203,0.0940554103915174,0.4991460891528732,0.03540178068851674,0.3533045307467546,1.001066065598934,5.35518393640541
29,20,male,159,105,105,same,valid,anti,2,2,3,0.4573562535297242,1,f,same,1.166553506775017,0.09202053406032636,0.5001229952335962,0.03535752164771111,0.35328272194419696,1.0010275794761583,5.23864282536897
29,20,male,160,165,215,change,catch,clock,3,0,1,1.389218818302652,0,j,change,1.0346227574214026,0,0.5000242141854869,0.035326412031736254,0.35332505667884107,1.0010699142112571,7.546865674130913
29,20,male,161,135,135,same,valid,clock,3,1,3,0.5743996084675018,1,f,same,1.0696865016661832,0.040339674518064084,0.4996444844414327,0.03534405150458042,0.3533003614165864,1.0010381631600467,5.226470306192368
29,20,male,162,165,165,same,valid,clock,2,1,2,1.2653554017038005,1,j,change,2.3064143217125093,0.036258424498822855,0.4999700128960285,0.035356559494630346,0.35328496696729417,1.001033673112488,7.181950842316837
29,20,male,163,75,75,same,valid,anti,3,2,2,1.092563935873386,1,j,change,0.571574085625798,0.09001946869095397,0.4992323622109325,0.035379971885959094,0.3533019650053575,1.0010311073706362,5.285268121591798
29,20,male,164,75,75,same,valid,anti,5,0,2,0.8141594935482317,1,j,change,1.1803068434419401,0.004885754482805538,0.4994963128692689,0.035316790501383366,0.35328175979066145,1.0010641412927725,5.661671702468993
29,20,male,165,15,15,same,valid,clock,5,0,2,0.6208225318287077,1,j,change,1.5098756994448195,0.0007164599339519184,0.500297786374631,0.03534629652858712,0.35328785342653646,1.001057406221662,5.721827436564126
29,20,male,166,165,165,same,valid,clock,5,0,2,1.1318592293087022,1,f,same,0.9438413704651794,0,0.4997884866838831,0.03534886226998424,0.35331222797094597,1.0010381631600467,7.19280168389605
29,20,male,167,135,85,change,valid,anti,1,1,1,0.6025967869863962,0,j,change,0.3115971195702514,0.032401153344702005,0.4999017000282038,0.03534854155213907,0.35326796893014034,1.001039766748363,4.579157455387303
29,20,male,168,75,75,same,valid,anti,5,2,3,0.9976112946505964,1,f,same,0.6520559447108099,0.0880846582492132,0.49907456910750625,0.03531711121877379,0.35331511443018826,1.00104842612609,5.296124415371651
29,20,male,169,75,75,same,catch,clock,5,2,2,1.2868762000853167,1,j,change,0.7468620179492973,0,0.49981382338137337,0.03532801562050736,0.3533208873491276,1.0010304659354006,7.193366147029337
29,20,male,170,75,75,same,valid,anti,1,1,2,1.0571381013578502,1,f,same,2.4319342451763077,0.038903417297173226,0.5000017639472389,0.035358804518182296,0.3533083793586229,1.0010474639730091,7.145908588402563
29,20,male,171,75,75,same,valid,anti,3,0,1,0.5282579545205408,0,j,change,0.4702099770784116,0,0.4998628931875828,0.03532833633789778,0.35329073988577875,1.00106734846986,6.1681195712517365
29,20,male,172,75,75,same,catch,clock,3,2,1,1.0719536550113844,0,j,change,1.970769148369527,0,0.5006428786077777,0.035292095239128685,0.353327301702393,1.0010301452175554,8.230894927432473
29,20,male,173,165,115,change,valid,anti,1,1,1,0.7165493855527529,0,j,change,0.37387375974458337,0.03522536035836965,0.4992006111592673,0.03531775265400938,0.35330709648815173,1.001034635265114,4.766316432259373
29,20,male,174,75,25,change,catch,anti,5,2,1,0.6600758112476797,0,j,change,1.2482114376266509,0,0.49956975721988783,0.035369708919915865,0.35328496696729417,1.001050991867487,7.158147816858673
29,20,male,175,75,125,change,valid,clock,5,1,2,0.7608437056105686,1,f,same,0.4942798396541548,0.04171022646047737,0.49927181048678904,0.03537676470932638,0.3532464808449731,1.0010558026333456,4.931429275174651
29,20,male,176,75,75,same,valid,anti,5,1,2,0.7440429094613137,1,j,change,2.7523321788567046,0.038160831828482344,0.5000643038970338,0.03531165901813438,0.3533192837603565,1.0010400874657535,7.1347944376007035
29,20,male,177,15,15,same,valid,clock,5,2,2,1.225965817267479,1,f,same,0.6698602665101134,0.0862544757377721,0.49948669133846124,0.035332505668066005,0.35330356859367384,1.0010904401433436,5.50839687018015
29,20,male,178,105,155,change,valid,clock,4,0,1,1.4042973604614417,0,j,change,0.3967341959141777,0,0.500456220912838,0.035291774521283514,0.35334462045784676,1.0010343145477236,6.993796678455055
29,20,male,179,15,15,same,valid,clock,2,0,2,0.77676028309088,1,f,same,2.522646998547316,0.0002369501932092677,0.49989913428680666,0.03535046585875534,0.35332505667884107,1.001019882251967,6.945816349995312
29,20,male,180,135,135,same,valid,anti,1,2,2,0.8140597503470417,1,f,same,0.7126696636669294,0.08450160213496666,0.49958867956365793,0.03533346782114677,0.3532955506516373,1.0010304659354006,5.144047463652441
29,20,male,181,15,65,change,catch,clock,2,1,2,0.9600408209475972,1,j,change,2.0649812524475237,0,0.49979393888497725,0.035349824423065,0.3532904191683883,1.001037201006966,8.22989300537165
29,20,male,182,75,75,same,valid,anti,4,0,1,1.128803431166034,0,j,change,2.1987407340648133,0,0.5001002242779578,0.035348541552593815,0.3533061343355257,1.001063499857537,8.524160786040738
29,20,male,183,105,105,same,valid,anti,4,0,2,0.7394056523930885,1,f,same,4.564509957803239,2.284813909250727e-05,0.49965410597224036,0.03532769490266219,0.3532904191683883,1.0010586890921331,8.924270214916305
29,20,male,184,165,115,change,valid,anti,2,0,1,0.7253453888974946,0,j,change,0.49002840596585884,0,0.4995309503797216,0.035329619208823715,0.3532522537634577,1.0010930058847407,6.415172255867219
29,20,male,185,165,215,change,valid,clock,4,1,1,0.7555887462726787,0,j,change,0.4865062843027772,0.034807721126280056,0.5005694342571587,0.03530171676993632,0.35332601883192183,1.00105484047981,4.873798872164116
29,20,male,186,15,15,same,catch,anti,4,0,1,0.8650336577179587,0,j,change,0.31157787650909086,0,0.4995764922914532,0.035356238776785176,0.35327566615478645,1.001058368374288,6.321269002924055
29,20,male,187,135,185,change,valid,clock,5,1,1,0.964424390323984,0,j,change,1.2378468040642474,0.04035060218784703,0.4999895766750342,0.03534629652813237,0.35328368409727773,1.0010615755513754,5.933413876235591
29,20,male,188,15,65,change,valid,clock,4,1,2,0.7242033132060897,1,f,same,0.46748451815528824,0.045864142529029456,0.49963742865247696,0.03535271088230729,0.35328240122589705,1.0010901194259532,4.766554725502374
29,20,male,189,165,165,same,valid,clock,5,2,2,0.6153286378121265,1,f,same,0.3719253997828673,0.08266125462493579,0.4998786083547202,0.03533699571562465,0.35327759046049323,1.0010394460305179,4.590111888780029
29,20,male,190,105,105,same,valid,clock,4,1,1,0.9047753901768374,0,j,change,1.3865074709583496,0.042840785713380986,0.5003228023538213,0.03531935624232574,0.3532833633789778,1.0010715177995735,5.94560820421475
29,20,male,191,75,75,same,valid,anti,4,2,2,0.988753392792205,1,f,same,0.7567830989473805,0.08085196363641503,0.4996528231013144,0.03531807337185455,0.3533353196448843,1.001029824500165,5.332632992805884
29,20,male,192,165,165,same,valid,anti,1,0,2,0.2757133001946386,1,j,change,2.959841013827372,0,0.49955275918227926,0.03532352557249396,0.3533122279714007,1.001049708996561,8.394668453277973
29,20,male,193,15,65,change,catch,clock,1,1,1,0.9264668103696749,0,j,change,0.7670553658153949,0,0.49960247042417905,0.035302999640407506,0.35333980969244294,1.0010740835409706,6.862830327192569
29,20,male,194,105,155,change,valid,clock,3,0,2,2.413178674711162,1,f,same,1.2586790215673318,0,0.5002092682921102,0.03531807337185455,0.35329522993379214,1.0010416910545246,8.795493724036078
29,20,male,195,15,65,change,catch,clock,4,0,1,1.3574356953013194,0,j,change,1.6449071474180528,0,0.49972722960501414,0.0353414857631833,0.3532949092164017,1.0010288623466295,8.217714071841328
29,20,male,196,75,25,change,valid,anti,2,2,2,0.7417651724326788,1,f,same,0.734089435975875,0.07906272511720211,0.499807088309808,0.03534437222242559,0.35326187529426534,1.0010782528711388,5.143456060233348
29,20,male,197,165,215,change,catch,clock,1,0,1,0.5038715435853192,0,f,same,1.7754155138200076,0,0.5005495497607626,0.03531518691261226,0.35330645505291614,1.0010327109594073,7.39474606695876
29,20,male,198,135,135,same,valid,anti,3,0,1,0.9087795505265603,0,f,same,0.744710964407659,0,0.4989648836581182,0.035305244664414204,0.3533183216072757,1.0010538783267293,6.874280269415522
29,20,male,199,75,25,change,valid,anti,5,2,2,0.9130797333041301,1,f,same,0.5510398148558124,0.07735853296373277,0.4995671914784907,0.03534116504533813,0.35326155457642017,1.001053878327184,5.073146404097315
29,20,male,200,75,75,same,valid,anti,4,1,2,0.3939102766603355,1,j,change,2.2454885444453794,0.04794634004584608,0.4994296035897605,0.03534180648057372,0.35331607658372377,1.0010205236872025,6.368240674250956
29,20,male,201,45,45,same,catch,clock,5,0,2,0.7043351730767426,1,f,same,1.9732226386918228,0,0.503566861780655,0.0353058860996498,0.35332345309006996,1.0010529161736486,7.785908755176024
29,20,male,202,15,15,same,catch,clock,4,1,1,0.6699984958340792,0,f,same,0.7609774448874305,0,0.4999504491170228,0.03534629652858712,0.35331190725355555,1.0010490675613255,6.568782879576247
29,20,male,203,165,165,same,valid,anti,2,2,2,0.7315368438880796,1,f,same,0.5255212704778387,0.07573210061990285,0.5001470490601605,0.03531133830028921,0.3533163973011142,1.001029824500165,4.873399899358446
29,20,male,204,165,165,same,valid,anti,5,2,2,0.5704650438565295,1,f,same,0.4568989101048828,0.074162591496202,0.499382778807103,0.035307810405811324,0.35329555065118257,1.0010586890921331,4.614003753038105
29,20,male,205,135,135,same,valid,anti,5,2,2,1.50975158169922,1,f,same,0.39768480314523913,0.07250357149527484,0.499085794227085,0.035294981698370975,0.3533282638559285,1.0010336731120333,5.496207994401175
29,20,male,206,75,75,same,valid,anti,2,0,2,1.6963361531902592,1,j,change,0.517925392727193,0,0.5004257527325535,0.03530139605209115,0.3533359610801199,1.0010513125853322,7.3467513062032594
29,20,male,207,105,105,same,catch,anti,3,2,2,1.1931365131636085,1,f,same,0.6362727857890604,0,0.5000389671995435,0.035321280548487266,0.3533042100293642,1.001052274738413,6.957631268948262
29,20,male,208,105,55,change,catch,anti,1,1,1,0.7668052060180344,0,j,change,0.5823046580717346,0,0.4999693714607929,0.03531743193616421,0.3533240945257603,1.0010320695241717,6.522426665495004
29,20,male,209,45,355,change,catch,anti,1,2,1,0.7791938889167795,0,j,change,0.7384492722435425,0,0.4993125416331168,0.03540081853589072,0.353278552613574,1.0010638205749274,6.662442707793616
29,20,male,210,15,325,change,valid,anti,1,2,1,0.771106992383011,0,j,change,0.3249043379314571,0.0708643768119438,0.5000460229884993,0.03530139605209115,0.3533067757707613,1.0010750456945061,4.7553453215468835
29,20,male,211,135,135,same,valid,anti,5,0,2,0.8719585940634715,1,f,same,0.3845514137715327,0,0.49982536921834253,0.03534661724597754,0.35327342113077975,1.0010445775137669,6.357319274780366
29,20,male,212,135,135,same,catch,clock,1,2,1,2.2662912559208053,0,f,same,0.7658311863956442,0,0.4998478194565905,0.03530396179348827,0.3533305088794805,1.0010343145477236,8.217873147815226
29,20,male,213,75,75,same,valid,anti,1,0,2,0.6116041432874226,1,j,change,0.8518399734189188,0,0.4998635346228184,0.03535271088230729,0.35331447299495267,1.001021165122438,6.639640321525803
29,20,male,214,105,55,change,catch,anti,4,2,2,0.6985738005078019,1,j,change,0.8543181590034692,0,0.4996265242507434,0.03533090207974965,0.3533138315597171,1.0010349559829592,6.745226357734282
29,20,male,215,15,325,change,catch,anti,1,0,2,1.4076235236161665,1,f,same,0.5403611986757824,0,0.5000264592094936,0.03533539212685355,0.3532878534269912,1.0010295037823198,7.264495557578812
29,20,male,216,15,325,change,catch,anti,4,0,1,0.8454439005431595,0,f,same,1.4299358532548467,0,0.49924198374128537,0.03534180648102847,0.3533180008898853,1.0010346352655688,7.428389352557588
29,20,male,217,165,165,same,catch,anti,2,0,1,0.8281443883865904,0,f,same,1.2843037235006705,0,0.499516197365665,0.035310696865053615,0.353337564668891,1.0010503504317967,7.251467363607389
29,20,male,218,105,155,change,valid,clock,5,2,2,1.0522317621480397,1,f,same,0.6412314019821679,0.07648339428752772,0.4999947081582832,0.03531999767801608,0.3533176801720401,1.0010282209118486,5.368304817789067
29,20,male,219,105,105,same,valid,clock,4,2,2,0.8489887931618796,1,f,same,0.6844157181171795,0.07502356333344208,0.4991525035061386,0.03535239016446212,0.3532551402227,1.001080818612536,5.143194033881173
29,20,male,220,45,355,change,catch,anti,3,1,2,0.6737098409339524,1,j,change,0.7499216647047433,0,0.4995957353526137,0.03533699571562465,0.3532920227567047,1.0010615755513754,6.569161005731985
29,20,male,221,105,155,change,catch,clock,5,1,1,0.8972244129022329,0,f,same,1.6748105440428844,0,0.49991645304180565,0.03534116504579288,0.35330709648815173,1.0010519540210225,7.653088976388062
29,20,male,222,135,135,same,valid,clock,1,1,1,0.7081892375481402,0,f,same,2.9404901913303547,0.045032350553199846,0.4993952867966982,0.03530909327628251,0.35331479371279784,1.0010561233502813,7.298553851867382
29,20,male,223,75,125,change,valid,clock,4,2,2,0.779741354012458,1,f,same,0.5368169474922979,0.07360472665658316,0.49962620353335296,0.03533122279714007,0.3533154351484882,1.0010330316767977,4.920079717588578
29,20,male,224,165,165,same,valid,anti,3,1,2,1.039065659570042,1,j,change,1.548371764399235,0.0502435443733735,0.49937059153489827,0.03530171676948157,0.35331671801895936,1.0010525954562581,6.156108373073039
29,20,male,225,165,215,change,valid,clock,1,1,1,0.6692569965366602,0,j,change,2.061813203113161,0.047380856291743656,0.5003067664697483,0.035318714807090146,0.3533093415121584,1.001062216986611,6.3577455085892325
29,20,male,226,45,45,same,catch,anti,3,1,2,1.070652182628237,1,f,same,1.1772523281701979,0,0.499869307541303,0.035315507630002685,0.35330837935907766,1.0010301452180101,7.393844529534363
29,20,male,227,45,95,change,valid,clock,1,0,1,1.715622190713475,0,f,same,0.736606428401501,0,0.4999668057193958,0.03532063911370642,0.35333916825720735,1.0010554819155004,7.594077242289586
29,20,male,228,75,75,same,valid,clock,3,2,1,1.0988018949287834,0,f,same,0.8858575365607066,0.07209486818301558,0.49975737706790824,0.035350786576145765,0.35329106060407867,1.001034635265114,5.650730739218943
29,20,male,229,105,55,change,valid,anti,5,1,2,1.1810800937910244,1,j,change,0.6596547089216074,0.05231017434185492,0.4995014443520631,0.035335071409463126,0.35329009845054316,1.001065744881089,5.496598949264808
29,20,male,230,135,135,same,catch,clock,3,1,2,0.7215868982975735,1,j,change,0.7290467917487149,0,0.49990458648744607,0.03530011318161996,0.3533305088794805,1.0010468225377736,6.616169559593345
29,20,male,231,45,355,change,valid,anti,4,2,2,1.4208864829361119,1,j,change,0.5604451818098823,0.07723703393572579,0.50015923633282,0.035300113181165216,0.35330966222954885,1.0010737628231254,5.673845183798676
29,20,male,232,15,15,same,valid,clock,1,2,1,0.12656578384849126,0,j,change,2.7634665348732597,0.07586642751674029,0.49982921783021084,0.03529947174592962,0.3533022857227479,1.0010679899050956,6.545041752632642
29,20,male,233,105,105,same,valid,clock,5,0,2,1.7401641497276614,1,f,same,2.6238831407372345,0,0.4998625724701924,0.03533539212685355,0.3533019650053575,1.001026296605687,9.560263976315582
29,20,male,234,45,45,same,valid,anti,4,1,1,0.6520649248063819,0,j,change,0.5869986821708153,0.04953808488088887,0.5003712307252499,0.03533442997422753,0.3532961920868729,1.0010339938303332,4.826805392033748
29,20,male,235,105,155,change,valid,clock,1,2,2,0.9481104436267742,1,f,same,0.7434296972392076,0.08114327688472978,0.4991505792004318,0.03538959341676673,0.3532670067770596,1.0010468225373188,5.308107069676225
29,20,male,236,15,15,same,valid,anti,5,2,2,0.8405333920031808,1,f,same,1.5934040558599918,0.07972977001492705,0.49955628707675714,0.03534116504579288,0.353277590460948,1.001057406221662,6.027127264306728
29,20,male,237,105,55,change,valid,anti,3,1,2,0.7844895794009972,1,j,change,1.3487458495119427,0.054153327880013286,0.49990554864052683,0.035328657055288204,0.3532920227567047,1.001070876364338,5.732682447473508
29,20,male,238,75,25,change,catch,anti,1,0,1,0.5066419029844837,0,j,change,0.9194216048908856,0,0.5002855991024262,0.03533603356254389,0.3533289052911641,1.0010602926804495,6.592800144451303
29,20,male,239,15,65,change,catch,clock,5,1,1,1.220948830454745,0,j,change,2.3134223239394487,0,0.5002002881969929,0.03529626456884216,0.35335103481156693,1.001018599381041,8.736701040119442
29,20,male,240,45,45,same,valid,anti,1,2,2,1.1024077239080725,1,f,same,2.7370913535473846,0.07835971555105574,0.4994466016273691,0.03533058136190448,0.3533019650053575,1.0010413703366794,7.4994947092809525
29,20,male,241,45,45,same,catch,anti,2,2,1,0.7629335020733379,0,j,change,1.9410716525012504,0,0.49898925820207296,0.03531839408969972,0.35330356859367384,1.0010240515816804,7.8641734928755795
29,20,male,242,105,105,same,valid,clock,4,0,2,0.8722571822318059,1,f,same,0.7412703050376876,0,0.4991778402036289,0.03530941399458243,0.35330870007692283,1.0010670277520148,6.792376668814086
29,20,male,243,135,85,change,catch,anti,1,2,2,0.8537588273534311,1,j,change,0.6649648317020365,0,0.49982023773509354,0.03532128054894201,0.3533199251955921,1.001047143255164,6.721760727285073
29,20,male,244,15,15,same,valid,anti,1,0,1,0.9286313340539891,0,j,change,1.0387673921195528,0,0.5001194673391183,0.035335392127308296,0.3533026064405931,1.0010262966052323,7.146492615314855
29,20,male,245,135,185,change,valid,clock,2,0,1,0.9746296271946449,0,f,same,1.4678090844568032,0,0.4993805337830963,0.03531935624232574,0.353309020794768,1.001029824500165,7.6172112506483245
29,20,male,246,45,95,change,valid,clock,1,1,2,0.38389907399186995,1,j,change,0.9912498592852899,0.05152440787474544,0.49904891169262555,0.03531679050092862,0.35330421002890944,1.0010577269390524,5.131146594603251
29,20,male,247,15,65,change,valid,clock,4,0,1,1.3245149866565953,0,j,change,2.0424954145387346,0,0.4995748887026821,0.03534597581074195,0.35329779567518926,1.0010301452175554,8.500088037005753
29,20,male,248,135,135,same,valid,anti,1,0,1,0.10908763193901905,0,j,change,1.9491287222895153,0,0.4996781597988047,0.035337316433015076,0.3532936263454758,1.0010317488063265,7.169218029337571
29,20,male,249,15,65,change,valid,clock,3,2,1,0.6873188546401252,0,j,change,0.6414430756572074,0.07705275384990995,0.5003218402011953,0.035369708919915865,0.3532753454369413,1.0010420117723697,4.979737697830842
29,20,male,250,15,65,change,valid,clock,3,1,2,1.0930379566179909,1,j,change,0.7686868567002421,0.04891784074256442,0.49937572301814726,0.03532577059650066,0.35329811639303443,1.001068631340786,5.438168997055072
29,20,male,251,45,45,same,valid,anti,4,0,2,0.6847572824563031,1,f,same,0.6202513336243101,0,0.5051749402741734,0.03530684825273056,0.3533029271579835,1.001076970000213,6.515286527579974
29,20,male,252,135,135,same,valid,clock,4,1,2,0.9605167659983636,1,f,same,0.3983166169928154,0.046446218222729346,0.500262828146333,0.03536329456619569,0.353261233858575,1.0010452189490024,4.967711746638088
29,20,male,253,15,15,same,valid,anti,5,1,2,0.8188878344403747,1,f,same,0.47804895883791687,0.044085285529613105,0.4994850877501449,0.03534405150458042,0.35333018816209005,1.001014750768718,4.896083299363909
29,20,male,254,165,115,change,valid,anti,3,2,2,0.8662446877119692,1,j,change,2.037931281103738,0.08197824394490606,0.49960984693098,0.03533090207974965,0.35329587136902774,1.0010503504322514,6.522082856132329
29,20,male,255,135,135,same,catch,clock,1,1,2,0.9125345132324583,1,f,same,0.366033174396307,0,0.4996858570234508,0.035317111219228536,0.35332281165483437,1.0010570855038168,6.356752245905682
29,20,male,256,105,155,change,valid,clock,4,2,2,2.124220054669422,1,f,same,0.4035805564262773,0.08066679500820155,0.500447240817266,0.035366181024983234,0.35326476175350763,1.001050029714861,6.122017044862332
29,20,male,257,105,55,change,valid,anti,5,0,1,0.8434746939310571,0,j,change,1.0815290023401758,0,0.4995245360255467,0.03533667499777948,0.3532856084029845,1.00104842612609,7.051158320042305
29,20,male,258,135,185,change,valid,clock,5,2,1,0.34466086830434506,0,f,same,3.389121961560704,0.07935602627563883,0.5000040089707909,0.03528952949727682,0.3533346782096487,1.0010314280884813,7.358275334212067
29,20,male,259,105,105,same,valid,clock,5,1,2,0.9279142093014343,1,f,same,0.7092623589360301,0.04166217501083572,0.4994247928243567,0.035348220834748645,0.35329394706332096,1.0010208444050477,5.261135077631479
29,20,male,260,15,325,change,valid,anti,2,0,1,0.8762565318165798,0,j,change,0.8450850174485822,0,0.5003744379018826,0.03535271088230729,0.35325097089253177,1.001074724976661,6.875808809922546
29,20,male,261,15,325,change,valid,anti,1,1,1,0.4555955134164833,0,j,change,1.6288908267365514,0.039245071056495884,0.4999145287356441,0.03533410925638236,0.3533125486892459,1.0010558026328908,5.779658288130577
29,20,male,262,165,115,change,valid,anti,5,0,2,0.9885327390220482,1,f,same,0.5445930685855274,0,0.49977662012906876,0.03532801562050736,0.3532711761072278,1.0010837050717782,6.722096197987867
29,20,male,263,135,85,change,valid,anti,2,0,1,0.39329514013252265,0,j,change,1.7136876216118253,0,0.499978030838065,0.035358804518182296,0.35328657055606527,1.0010218065576737,7.310756839224723
29,20,male,264,165,115,change,catch,anti,2,1,2,0.9377589594892015,1,f,same,1.5862065094788704,0,0.4998465365861193,0.03531165901813438,0.35331703873680453,1.0010317488063265,7.676158841208689
29,20,male,265,45,45,same,catch,clock,4,1,1,0.09512807379815058,0,j,change,1.2425549397416944,0,0.499521328848914,0.03533026064405931,0.3532952299333374,1.0010218065581284,6.54527619726332
29,20,male,266,75,125,change,valid,clock,2,2,1,0.050947287802500796,0,j,change,1.1647064936028073,0.08393541736937168,0.49961337482545787,0.03533026064405931,0.35332152878390843,1.0010609341161398,4.884391856721322
29,20,male,267,135,185,change,valid,clock,4,2,2,0.28440699459633834,1,j,change,0.8939598275437675,0.0881646096730882,0.5003170294357915,0.0353309020792949,0.35325963027025864,1.0010683106229408,4.8387081876339835
29,20,male,268,105,155,change,valid,clock,2,2,1,2.11793944016199,0,f,same,1.0818683216557474,0.08699341198874898,0.4990165192061795,0.03533827858655059,0.3532682896479855,1.0010734421061898,6.874152623775444
29,20,male,269,135,135,same,valid,clock,1,0,1,0.19410026981995543,0,j,change,0.8625448884495199,0,0.5001999674791477,0.0353347506920727,0.35329522993379214,1.0010368802891207,6.239633522310669
29,20,male,270,15,325,change,valid,anti,3,1,1,0.2652745808459258,0,j,change,0.737473649032836,0.043303257417258656,0.4994738626310209,0.03531839408969972,0.3532820805085066,1.00105484047981,4.72008465664112
29,20,male,271,105,105,same,valid,anti,1,1,1,0.9078023237279922,0,f,same,1.3253741893458937,0.04706590458339932,0.4994219063651144,0.035326091313891084,0.3533019650053575,1.0010756871297417,5.87358623633645
29,20,male,272,15,15,same,valid,anti,3,1,2,0.5749243026075419,1,f,same,0.6839012869440921,0.0510568142915733,0.49962171348533957,0.035340202892257366,0.35328336337943256,1.0010365595712756,4.896104787449076
29,20,male,273,15,15,same,catch,clock,3,0,1,1.0328139096541236,0,f,same,1.5834890684977836,0,0.4998170305580061,0.03530203748732674,0.35333082959732565,1.0010506711500966,7.6881928103430255
29,20,male,274,135,85,change,valid,anti,1,2,1,0.2279565119642939,0,j,change,1.2649003033029658,0.09145181194900781,0.5000194034200831,0.03535303160015246,0.3532644410352077,1.0010804978946908,5.1910258700509075
29,20,male,275,105,155,change,valid,clock,2,0,1,0.162214837875581,0,j,change,1.3492618842742559,0.0010361020577970281,0.4997464726666294,0.03534341006889008,0.353266365341824,1.0010840257896234,5.15615295283169
29,20,male,276,45,45,same,valid,clock,1,1,1,0.6498901381555697,0,f,same,1.9966305399570956,0.048804540558265,0.49895590356254615,0.03531550763045743,0.3533003614165864,1.001053557609339,6.274105863136356
29,20,male,277,135,185,change,valid,clock,4,0,2,0.9023854019569626,1,j,change,0.6037199403335762,0.003422528603939212,0.49915988001293954,0.035311017582898785,0.3533103036652392,1.001066065598934,5.072224661458677
29,20,male,278,165,165,same,valid,clock,4,2,2,0.9952620375775041,1,f,same,0.5261014487778084,0.09555982082973001,0.5004995178010176,0.03529915102808445,0.3533240945257603,1.0010609341161398,5.15671517094097
29,20,male,279,105,105,same,catch,clock,3,0,2,0.9332785333708671,1,j,change,0.9395421498411451,0,0.4994757869371824,0.03533378853899194,0.3533186423251209,1.0010355974186496,7.039496704144767
29,20,male,280,105,105,same,catch,anti,2,1,2,1.9714644643195243,1,f,same,0.9689718464392172,0,0.5005982988495816,0.03536489815451205,0.35326925180061153,1.0010506711496419,8.219043767380754
29,20,male,281,45,95,change,valid,clock,2,0,1,0.9300793744209841,0,j,change,1.182238846801738,0.0008669426882529641,0.49965410597224036,0.03530716897057573,0.35329587136902774,1.001075687129287,5.826813089258394
29,20,male,282,135,135,same,valid,clock,4,0,1,4.937426054527805,0,f,same,2.4543501666289558,0.0031985090800330795,0.4995306296614217,0.03533603356254389,0.35330549289983537,1.0010541990445745,11.008293759443404
29,20,male,283,45,45,same,valid,clock,4,0,2,1.560444861092492,1,f,same,2.7846893865212223,0.005431206791295995,0.49998925595764376,0.035334429973772785,0.3533074172059969,1.0010250137347612,7.923283366586475
29,20,male,284,135,185,change,catch,clock,3,1,2,0.7815319208712026,1,f,same,0.906159607724021,0,0.49996391925969874,0.03532063911325167,0.3533077379233873,1.00103591813604,6.851374612052041
29,20,male,285,45,355,change,catch,anti,2,1,2,0.6710276788990086,1,f,same,0.722168038750624,0,0.5002070232681035,0.03532352557249396,0.353321208066518,1.00103591813604,6.557493296198118
29,20,male,286,105,105,same,valid,anti,1,0,1,0.6962072246792559,0,j,change,0.5180572076974386,0.0030589075982859204,0.5005158744033906,0.03535239016491687,0.3532990785461152,1.0010304659354006,4.9210636794591665
29,20,male,287,105,55,change,valid,anti,3,0,2,1.2057766387310949,1,f,same,1.061893703253645,0.0052365146081353176,0.49922594785675756,0.03540755360700132,0.35329651280426333,1.001049388278716,5.81510625216697
29,20,male,288,45,45,same,valid,anti,2,1,2,0.9500379569381039,1,f,same,0.6268921140972452,0.052618982800396424,0.4990222921246641,0.03538157547427545,0.35328977773315273,1.001037201006966,5.226082879223668
29,20,male,289,105,105,same,valid,anti,2,0,1,0.2285777421284365,0,j,change,1.3132414391629936,0.0029262932164963174,0.49976154639807646,0.03533539212685355,0.3532974749573441,1.0010657448815437,5.178850143697673
29,20,male,290,75,75,same,valid,anti,2,1,2,1.1279663579971384,1,f,same,0.4434380679708738,0.050457463089648796,0.5005149122498551,0.035299471745474875,0.35332569811407666,1.0010602926804495,5.167748821603254
29,20,male,291,165,115,change,valid,anti,1,2,1,0.735567623805764,0,j,change,1.5735266149176823,0.09449017078552308,0.500247754414886,0.03531807337185455,0.3533208873491276,1.0010317488063265,5.921476763843202
29,20,male,292,105,105,same,valid,clock,5,2,2,1.4532212403628364,1,f,same,1.3347725005110078,0.09838692310017802,0.5001294095877711,0.03535976667126306,0.3532974749573441,1.0010529161736486,6.35762395658503
29,20,male,293,135,85,change,valid,anti,2,1,2,0.17943449132735623,1,j,change,1.0870504780777992,0.04832771167095484,0.4997374925715121,0.03535976667126306,0.35326508247089805,1.0010869122488657,4.884707122209875
29,20,male,294,105,55,change,valid,anti,4,2,2,0.15345828280715068,1,j,change,1.0327042242047355,0.09729527219975757,0.5002060611154775,0.03529626456884216,0.3533240945257603,1.0010625377044562,4.779721148798217
29,20,male,295,15,65,change,valid,clock,2,0,2,0.15898809720420104,1,j,change,2.305296620565514,0.005051741884346872,0.49958002018593106,0.035311338300743955,0.35332024591343725,1.0010634998570822,6.062750019483701
29,20,male,296,15,65,change,valid,clock,5,1,2,0.7457847272312392,1,f,same,0.7394890389919055,0.04631540915934196,0.49951940454275245,0.035342447916264064,0.3532747040017057,1.0010744042588158,5.060580685033983
29,20,male,297,135,85,change,valid,anti,4,0,2,0.9564077309637469,1,j,change,1.0617253264663304,0.0028001429141189804,0.500441147181391,0.03535752164771111,0.3532756661543317,1.0010766492828225,5.662446877123784
29,20,male,298,45,95,change,valid,clock,5,0,2,0.6191442161612031,1,j,change,1.101895217040692,0.0004825001529795703,0.5005360796171772,0.035300433899010386,0.35333147103256124,1.001057406221662,5.344846884564504
29,20,male,299,15,65,change,valid,clock,5,0,2,1.7747878693021448,1,f,same,0.7406012879382615,0,0.5001762343704286,0.035307810405811324,0.35329619208641816,1.0010801771773004,7.67687019304276
29,20,male,300,135,85,change,valid,anti,5,1,1,1.3248844534341515,0,j,change,1.3906678208227277,0.04438171953240616,0.4994520538280085,0.035342447916264064,0.35329651280426333,1.001037201006966,6.344593196872211
29,20,male,301,105,105,same,valid,clock,3,2,1,1.261175808777807,0,f,same,0.6814317607368139,0.0962436553965569,0.5023821306363061,0.03529209523867394,0.3533186423251209,1.0010291830649294,5.5585683418930785
29,20,male,302,45,95,change,valid,clock,2,1,2,0.6905670833966724,1,j,change,0.5093792284619667,0.04763446679019262,0.49960118755370786,0.035329619208823715,0.3532798354849547,1.0010705556464927,4.802079982501255
29,20,male,303,165,165,same,catch,clock,4,1,1,0.7435185360391188,0,j,change,0.7703744731811639,0,0.4996335800401539,0.0353414857631833,0.35326283744689135,1.0010644620106177,6.6391865059958945
29,20,male,304,45,45,same,valid,clock,5,1,2,0.9519811854174804,1,f,same,0.4126870144932582,0.04573496657081369,0.5004639181370294,0.0353203183954065,0.35330966222954885,1.0010612548335303,4.955847437161083
29,20,male,305,15,65,change,catch,clock,4,2,2,0.49134206562075633,1,j,change,0.7531403874331772,0,0.5003218402011953,0.03529369882744504,0.353332433185642,1.001062216986611,6.357621390843633
29,20,male,306,75,25,change,valid,anti,4,0,2,0.9172593262301234,1,f,same,0.5869528195416933,0,0.49957168152604936,0.035348541552593815,0.35330613433507096,1.0010506711496419,6.604425198532226
29,20,male,307,105,105,same,catch,clock,3,0,1,0.18426674475085747,0,j,change,0.7525765657355805,0,0.4997374925710574,0.035320959830642096,0.3533266602671574,1.0010615755513754,6.097769504686767
29,20,male,308,75,75,same,catch,anti,1,0,1,0.23064637122342901,0,j,change,1.076178148413419,0,0.4997387754419833,0.03533410925638236,0.35331222797094597,1.0010670277520148,6.439340578773681
29,20,male,309,75,125,change,valid,clock,5,0,1,1.3647605666055824,0,f,same,0.613909141320164,0,0.49983082141898194,0.03534661724643229,0.35327213826030857,1.0010756871297417,7.099507153126979
29,20,male,310,165,165,same,valid,anti,5,1,1,0.6652906808740227,0,f,same,0.6906485456897826,0.04389782663406663,0.4989594314574788,0.035313904042141075,0.3533093415121584,1.0010538783267293,4.978106848380776
29,20,male,311,105,55,change,valid,anti,4,1,2,1.0045371931496447,1,f,same,0.9274613559236968,0.04700647907543415,0.4995232531550755,0.03534405150458042,0.35332152878390843,1.0010182786631958,5.497097023835977
29,20,male,312,15,325,change,valid,anti,3,0,2,0.5820532154029934,1,f,same,0.7749200049906904,0,0.49938758957250684,0.0353414857631833,0.35347964260517983,1.000889670869583,6.462192676282939
29,20,male,313,45,45,same,valid,anti,3,0,1,0.6195961073849503,0,j,change,0.39239713060305803,0,0.500532551723154,0.035291453803438344,0.35332794313808336,1.0010586890921331,6.157779632951588
29,20,male,314,45,45,same,valid,clock,2,1,2,0.6087927320240851,1,f,same,0.7345150283499606,0.04520607502092586,0.499703496496295,0.0353520694470717,0.3533109451004748,1.0010551611976553,4.943645411957277
29,20,male,315,135,185,change,valid,clock,2,2,2,1.0997467292409056,1,j,change,0.818295468868655,0.1003246551480566,0.49941260555215194,0.03532865705574295,0.3532695725184567,1.0010676691872504,5.544063884397929
29,20,male,316,135,135,same,valid,clock,5,2,1,2.6943656637076856,0,j,change,1.9739272554547824,0.09921403570087428,0.49944820521568545,0.035353673035388056,0.35327342113077975,1.0010644620106177,8.229316675684004
29,20,male,317,165,165,same,valid,anti,4,0,2,0.7851034330583389,1,j,change,0.9488464907230991,0,0.5000187619848475,0.03533378853853719,0.3533305088794805,1.0010301452180101,6.839779384715712
29,20,male,318,165,215,change,valid,clock,2,0,2,0.657760550248895,1,j,change,0.6562496492151695,0,0.5002560930747677,0.03532577059650066,0.35330549289983537,1.0010378424422015,6.463648093156735
29,20,male,319,105,55,change,valid,anti,4,0,2,0.6398539195070043,1,f,same,0.4264185423571689,0,0.49924198374128537,0.035319035524935316,0.3533378853862814,1.0010602926804495,6.168133362112712
29,20,male,320,45,355,change,valid,anti,3,0,1,0.08275157817161016,0,j,change,0.6492038023002351,0,0.49935551780390597,0.03527670078983647,0.35334237543384006,1.0010686313403312,5.885148429750188
29,20,male,321,15,325,change,valid,anti,1,0,1,0.73447686294503,0,j,change,0.7407475352047186,0,0.4998850227084404,0.03533250566761126,0.3532942677807114,1.0010830636365426,6.6512628098653295
29,20,male,322,75,25,change,valid,anti,2,1,1,0.7198155744999895,0,f,same,0.8800323411714999,0.04345438856642264,0.5001839315946199,0.03533571284469872,0.35330068213443155,1.0010288623470842,5.203593192703011
29,20,male,323,15,15,same,valid,anti,1,2,2,0.666449433885191,1,f,same,0.4294441930373978,0.10313607613229762,0.4990607782474399,0.035372916097003326,0.35329522993379214,1.0010288623470842,4.648097646990209
29,20,male,324,45,355,change,valid,anti,4,0,2,0.676379174261001,1,j,change,1.1021094564575833,0,0.5004190176609882,0.03534886226998424,0.35329779567518926,1.0010586890921331,6.8996416621257595
29,20,male,325,75,125,change,valid,clock,4,1,1,1.0396727781562731,0,f,same,0.7409803762466254,0.04643455771940608,0.49964384300619713,0.03534886226998424,0.35331896304296606,1.001046181102538,5.391553963797833
29,20,male,326,105,155,change,catch,clock,2,0,2,0.7252661716279363,1,f,same,0.8632867084647842,0,0.49963742865247696,0.035332184950220835,0.35330837935907766,1.0010256551699968,6.721788950441805
29,20,male,327,135,135,same,catch,clock,2,0,2,0.8852584359174216,1,f,same,0.6787271484636221,0,0.49962492066242703,0.03536361528404086,0.353294909215947,1.0010760078471321,6.710219059803421
29,20,male,328,15,15,same,catch,anti,3,1,1,0.5990252747992599,0,j,change,0.5510827910266016,0,0.5004263941677891,0.035334750691617955,0.35331543514803343,1.000972416033619,6.2991349923204325
29,20,male,329,75,25,change,valid,anti,3,1,1,0.7778497610811428,0,j,change,0.7354961037613066,0.049615629008363554,0.49935166919112817,0.03532288413725837,0.3533131901244815,1.0010689520581764,5.167450554151856
29,20,male,330,15,15,same,valid,clock,4,2,2,0.8591933885973049,1,f,same,0.612434802102598,0.10208490944680121,0.49908226633215236,0.03533090207974965,0.353327301702393,1.0010506711496419,5.084126174187531
29,20,male,331,45,45,same,valid,anti,5,0,2,0.9833557140827907,1,j,change,0.8468425503856452,0,0.499769564340113,0.03531133830028921,0.3533240945257603,1.001037521724811,6.946227189355341
29,20,male,332,15,15,same,valid,anti,1,1,1,0.7629809682916857,0,f,same,0.6815266931730548,0.05272860802455595,0.49947771124334395,0.0353036410756431,0.3533125486892459,1.0010554819155004,5.049511434708165
29,20,male,333,105,105,same,catch,anti,1,1,1,0.39573548102998757,0,j,change,1.389043065008991,0,0.4999498076817872,0.03535463518846882,0.35331190725355555,1.0010586890916784,6.9578265860209285
29,20,male,334,45,45,same,valid,clock,4,1,1,0.6693233850983233,0,f,same,0.908226312512852,0.05562727775273535,0.500450127276963,0.03532448772557473,0.3532913813214691,1.0010442567963764,5.203091590236909
29,20,male,335,165,115,change,valid,anti,4,0,1,0.6635328272195693,0,j,change,1.6208174003454587,0,0.5000960549482443,0.03531775265400938,0.35329330562717587,1.0010628584218466,7.393420540749503
29,20,male,336,45,45,same,valid,clock,3,0,1,0.7865145908913291,0,f,same,1.309210338527464,0,0.49975737706790824,0.03531743193616421,0.3533189630425113,1.001052274738413,7.252212711517586
29,20,male,337,105,105,same,valid,anti,1,2,2,0.6346794603091439,1,f,same,0.474840178357681,0.10103420755444045,0.4992836770411486,0.035307489687966154,0.3533366025158102,1.001057406221662,4.708084042146311
29,20,male,338,105,105,same,valid,anti,4,1,2,0.7607276058070056,1,f,same,0.4540884609946261,0.058686986554268294,0.49900272834520365,0.03531646978308345,0.3533061343355257,1.0010577269390524,4.825061008522425
29,20,male,339,75,75,same,valid,clock,5,2,2,0.7163271281942798,1,f,same,0.5458550926919088,0.09997620493975293,0.500186497336017,0.035310696865053615,0.3533093415121584,1.0010679899050956,4.896751354310709
29,20,male,340,105,55,change,valid,anti,5,2,2,0.5853665498507326,1,j,change,0.5672001377802189,0.09893870839344703,0.4997179287925064,0.03530877255889209,0.35331030366478444,1.0010503504322514,4.826126753403969
29,20,male,341,75,125,change,valid,clock,1,2,2,1.2421752099976402,1,j,change,0.5240254431755602,0.09794745981259914,0.49971440089802854,0.035334429973772785,0.3533131901244815,1.0010663863167792,5.379598891214755
29,20,male,342,165,165,same,valid,clock,2,0,2,0.22988883604148214,1,j,change,1.0114470557632558,0,0.5000104233249658,0.035331543514530495,0.3533176801720401,1.0010304659354006,6.427916614683454
29,20,male,343,135,135,same,catch,clock,5,0,2,0.6441999649132413,1,f,same,0.42888614425828564,0,0.5000816226520328,0.03534084432794771,0.35330773792384207,1.001015071486563,6.239833008713504
29,20,male,344,165,165,same,catch,clock,1,1,1,0.4557244419274866,0,f,same,1.7962060380236835,0,0.4994360179434807,0.035350786576145765,0.3533080586412325,1.001062216986611,7.357461031999264
29,20,male,345,45,355,change,valid,anti,3,1,1,0.5420577952518215,0,j,change,0.6478728238903386,0.05699430595584587,0.5000325528453686,0.03533282638545643,0.3533196044777469,1.0010503504322514,4.896466877720286
29,20,male,346,105,105,same,valid,anti,5,1,1,1.1669175213528433,0,f,same,1.0296602926164269,0.06000563014472579,0.4998539130924655,0.03532577059650066,0.3533042100293642,1.0010551611976553,5.827123223264152
29,20,male,347,75,75,same,valid,clock,2,0,2,0.5103417022478425,1,f,same,0.8980646932482159,0,0.4996355043458607,0.035297547439768096,0.35329106060407867,1.001019882251967,6.486314495124589
29,20,male,348,165,215,change,catch,clock,2,2,1,0.0676605280232252,0,j,change,0.8707308867492429,0,0.5001242781045221,0.03536008738910823,0.3532711761072278,1.0010593305278235,6.121795108221249
29,20,male,349,45,95,change,valid,clock,4,1,1,0.678624839521035,0,j,change,0.4936717589152977,0.06293276453959806,0.500196760302515,0.035345334375506354,0.35326379960042686,1.0010612548335303,4.8148621860054845
29,20,male,350,165,165,same,catch,clock,5,0,1,0.2168337017842532,0,j,change,1.2196938621368645,0,0.49917880235670964,0.03530620681704022,0.35331511443018826,1.0010291830644746,6.545144382292619
29,20,male,351,165,215,change,catch,clock,2,1,2,0.24789071993745893,1,j,change,1.418870451541352,0,0.5062198385057854,0.035340202892712114,0.35331254868879114,1.0010570855038168,6.764251972494094
29,20,male,352,165,165,same,catch,anti,3,2,1,0.7711364984106694,0,f,same,2.4162902777320596,0,0.499334029718284,0.03534373078719,0.35333371605656794,1.0010609341161398,8.370529315681324
29,20,male,353,75,125,change,valid,clock,4,0,1,0.549300562827284,0,j,change,0.6220117530206153,0,0.49980548472149167,0.03535591805939475,0.3532631581647365,1.0009672845508248,6.309539715593928
29,20,male,354,15,325,change,valid,anti,2,2,1,0.523935642223023,0,j,change,0.5707078271470891,0.09699441306341876,0.499829538548056,0.035335712845153466,0.35331447299495267,1.0010618962687658,4.732149735391886
29,20,male,355,15,65,change,valid,clock,3,0,1,0.636710244717051,0,f,same,1.3853458314874842,0,0.49902710288961316,0.0353520694470717,0.35330998294784877,1.001044898231612,7.145104869873649
29,20,male,356,135,185,change,valid,clock,5,0,2,0.687207565601966,1,j,change,1.1846955443011211,0,0.4998737975893164,0.03531550763045743,0.35330292715843825,1.0010541990445745,6.946349062077388
29,20,male,357,165,165,same,valid,anti,1,2,2,0.9056432522443174,1,f,same,0.38669733582992194,0.10066984626948226,0.4991329397271329,0.03534308935149966,0.35330292715843825,1.0010295037823198,4.896202285626259
29,20,male,358,165,165,same,valid,anti,4,2,2,0.7478976153679469,1,f,same,0.4137126696637097,0.09966619596892608,0.49921632632640467,0.03532897777358812,0.3533141522771075,1.0010506711496419,4.743116997492507
29,20,male,359,165,215,change,catch,clock,3,1,1,0.29391178403375307,0,j,change,0.9177586836717637,0,0.49993762040958245,0.03532448772557473,0.35332569811407666,1.0010227687107545,6.403796078713185
29,20,male,360,45,95,change,catch,clock,5,2,1,0.5745378377919224,0,j,change,0.5529875333827476,0,0.5007560919525531,0.035286643038489274,0.35329811639303443,1.0010801771773004,6.286966963191389
29,20,male,361,105,155,change,valid,clock,1,0,2,0.8619105088600918,1,j,change,0.5451693982727193,0,0.4999889352397986,0.03533378853853719,0.3532933056276306,1.0010753664118965,6.5573848936196555
29,20,male,362,135,85,change,catch,anti,1,2,2,0.43753590033611545,1,f,same,1.2413766229515204,0,0.4999167737596508,0.03534084432794771,0.3532695725184567,1.0010776114354485,6.7806108196678
29,20,male,363,45,355,change,valid,anti,1,0,1,0.16144543613927453,0,j,change,0.7864000946756278,0,0.5000979792544058,0.03531967696017091,0.35330292715843825,1.0010593305278235,6.0742817447167
29,20,male,364,165,115,change,valid,anti,1,0,1,0.061550535326205136,0,j,change,0.9381053345937289,0,0.4997413411833804,0.03533378853853719,0.35331896304296606,1.0010327109594073,6.1330718628919385
29,20,male,365,75,125,change,valid,clock,2,1,2,1.240835892927862,1,f,same,0.5159407916657983,0.06567239178864123,0.4997102315678603,0.03535174872922653,0.3532410286443337,1.0010618962692206,5.356220495977141
29,20,male,366,165,165,same,valid,anti,2,0,2,0.12262480488379879,1,j,change,0.9256999743747656,0,0.49913069470358096,0.03528985021512199,0.3533305088794805,1.00105484047981,6.156213247757478
29,20,male,367,45,45,same,catch,anti,4,2,1,0.09785513631004505,0,j,change,1.0112350613708259,0,0.49943986655580375,0.035316469783538196,0.35331800088943055,1.0010381631600467,6.2392098542431995
29,20,male,368,165,165,same,valid,clock,3,0,1,0.2737543565485794,0,f,same,1.2736584619601672,0,0.5000290249508907,0.035367143178064,0.35326636534136924,1.0010740835409706,6.628130084377517
29,20,male,369,165,165,same,valid,anti,4,1,1,0.5261534050432601,0,f,same,0.45353073293290436,0.06410927771134017,0.4994796355490507,0.035388310545840795,0.3532028632394031,1.0010654241632437,4.590094249307185
29,20,male,370,165,115,change,valid,anti,4,2,2,0.1866034938343546,1,j,change,1.130248905791177,0.09869552389725435,0.49944307373243646,0.035334109255927615,0.35323493500800396,1.0011051931569455,4.93108514509413
29,20,male,371,75,75,same,valid,clock,2,1,1,0.8858039767069386,0,f,same,0.4748016922349052,0.06675395026295106,0.5001124115501625,0.03533571284469872,0.3532965128047181,1.001041049619289,4.9552614859426285
29,20,male,372,75,75,same,valid,clock,3,1,2,0.3386765969416956,1,f,same,0.7510557224532022,0.0696109989131036,0.5007791836255819,0.035331543514530495,0.3533013235701219,1.001061254833985,4.661840399973244
29,20,male,373,15,15,same,valid,anti,2,1,2,0.6458253621626682,1,f,same,0.4303325810365095,0.06800054730056157,0.5002718082414503,0.03532192198417761,0.35333211246779683,1.0010554819150457,4.661730714523856
29,20,male,374,75,75,same,catch,anti,3,2,1,0.07098572902486922,0,j,change,1.5027269021525171,0,0.49947001401869784,0.035326732749581424,0.35343474212868387,1.000949645077526,6.721344435724859
29,20,male,375,135,85,change,valid,anti,3,1,1,0.036239495293102664,0,j,change,0.9942665298694919,0.06647051453521205,0.500705739274963,0.03535110729353619,0.3533308295968709,1.0010330316772524,4.638958475718937
29,20,male,376,75,75,same,valid,clock,1,2,2,0.35771022964354415,1,f,same,0.9403416990408004,0.097765775741152,0.4990803420264456,0.03530973471197285,0.35331703873680453,1.0010301452175554,4.8721895107996716
29,20,male,377,75,75,same,valid,clock,4,1,2,0.558718758489249,1,f,same,0.4595053827652009,0.06920911535425564,0.4997705264936485,0.03534757939951305,0.35325449878700965,1.0010811393299264,4.590274813366705
29,20,male,378,165,165,same,catch,anti,5,2,2,0.6528256671649615,1,f,same,1.363063649311698,0,0.5000748875804675,0.0353347506920727,0.3532682896479855,1.0010869122488657,7.06363455887049
29,20,male,379,105,105,same,valid,clock,2,2,2,0.7823584103566645,1,f,same,0.549626411999725,0.09686991796438989,0.5005806593762827,0.035345655093351525,0.35327951476665476,1.0010577269390524,4.932993736062599
29,20,male,380,105,105,same,valid,anti,5,2,1,0.5207666307360341,0,f,same,0.9687239316654086,0.09600156240058198,0.4992224199627344,0.03536072882479857,0.3533109451004748,1.0010670277520148,5.120170993843203
29,20,male,381,15,15,same,catch,anti,2,1,3,0.8799043748135773,1,f,same,0.591169936436927,0,0.4993975318207049,0.03534950370567458,0.3533048514645998,1.0010253344526063,6.556388423759472
29,20,male,382,105,55,change,catch,anti,5,1,1,0.06828688967016205,0,j,change,1.07251587312021,0,0.5005485876076818,0.03532801562005261,0.35332762242069293,1.0010465018199284,6.239851931057274
29,20,male,383,135,135,same,valid,clock,3,0,1,0.7811111392629755,0,f,same,0.475997007062233,0,0.5005254959337435,0.035335392127308296,0.3532878534269912,1.0010173165105698,6.393037924545752
29,20,male,384,75,125,change,valid,clock,3,1,1,0.3543170364919206,0,f,same,0.8571334188795845,0.0676731308621073,0.4995861138222608,0.03531550763045743,0.35328143907327103,1.0010580476568975,4.814216581296932
29,20,male,385,45,45,same,catch,clock,4,1,2,0.5424246962879806,1,f,same,1.4329971035981544,0,0.49924422876529206,0.03534276863365449,0.35331126581831995,1.0010317488063265,7.110230349066114
29,20,male,386,15,15,same,valid,clock,1,1,2,0.9447480393723708,1,f,same,0.4255365687122321,0.07039062053393536,0.49952132884845923,0.035366822460673575,0.3533186423251209,1.0010064121088362,4.9672335565637695
29,20,male,387,45,45,same,catch,clock,1,1,2,0.6347913907825387,1,f,same,0.5374959068408316,0,0.499735888982741,0.035318394089244975,0.353331471033016,1.0010541990441197,6.29765263516083
29,20,male,388,135,85,change,catch,anti,5,2,1,0.10481535160124622,0,j,change,1.2558621581029001,0,0.5002050989623967,0.03532512916126507,0.35329362634502104,1.0010651034458533,6.4874328377068196
29,20,male,389,45,355,change,valid,anti,1,1,1,0.10977043989942104,0,j,change,0.9598047727281482,0.06883846702596066,0.499250643119467,0.03529401954529021,0.3532993992635056,1.0010792150242196,4.695385225241353
29,20,male,390,45,95,change,valid,clock,5,1,2,0.4340644520684691,1,j,change,0.8959688031486621,0.07150189979946839,0.5000277420799648,0.03533892002178618,0.3532859291208297,1.001043615360686,4.944396853502894
29,20,male,391,15,15,same,valid,anti,4,1,2,0.9495398823673895,1,f,same,0.4132441011197443,0.0699794034949277,0.4996383908055577,0.03533827858609584,0.3533093415121584,1.001050991867487,4.9555687334891445
29,20,male,392,15,15,same,catch,clock,2,1,3,0.7755104462562485,1,f,same,1.0229220139658537,0,0.4994854084675353,0.03532705346697185,0.35325834739978745,1.001102306698158,6.8983860523726435
29,20,male,393,15,325,change,valid,anti,4,2,2,0.14589511825988666,1,j,change,0.8779874451852265,0.09939089249833885,0.5001499355194028,0.035363615283586114,0.35328528768513934,1.0010679899050956,4.637766368067787
29,20,male,394,165,165,same,valid,clock,1,2,3,0.5918100889443849,1,f,same,0.7077562686677084,0.09847918928364137,0.499681046258047,0.035334429973772785,0.35329458849855655,1.0010320695241717,4.873169303340092
29,20,male,395,105,155,change,valid,clock,2,1,2,0.12719759769606753,1,j,change,0.8813950706330616,0.06849556217535022,0.49920798766652297,0.035350465858300595,0.35329939926396037,1.0010288623470842,4.590117340981124
29,20,male,396,135,85,change,catch,anti,5,0,1,0.07277116440081954,0,j,change,0.8130870135955774,0,0.4998484608918261,0.03535014514091017,0.35331222797094597,1.0010346352655688,6.003822313420187
29,20,male,397,15,65,change,valid,clock,4,2,1,0.3249720093635915,0,f,same,1.2364654729767608,0.09760395390459804,0.500191628819266,0.03533058136144973,0.3533176801720401,1.0010262966052323,5.132858585628583
29,20,male,398,15,15,same,catch,clock,2,2,2,1.9622537730028853,1,f,same,0.7748488056631686,0,0.4992872049356265,0.03533603356254389,0.35330485146414503,1.0010413703366794,7.828386530241914
29,20,male,399,105,105,same,valid,anti,2,1,2,0.8412607797222336,1,f,same,0.506193218937824,0.067089357004182,0.5000200448557734,0.035364256719276455,0.3532570645284068,1.0010580476564428,4.944402626421379
29,20,male,400,15,325,change,valid,anti,3,2,2,0.21855788008178934,1,j,change,0.9525642501766924,0.1009508821190316,0.4990126705934017,0.03532993992621414,0.3533103036652392,1.0010134678982467,4.778085809300592
29,20,male,401,165,215,change,valid,clock,1,2,2,1.069456547083064,1,j,change,1.3415322672467482,0.100042676383512,0.5033686582487462,0.035315828347847855,0.353321208066518,1.0010339938298785,6.066215694833318
29,20,male,402,15,15,same,catch,clock,1,0,1,0.30918917115968725,0,f,same,1.771282104241891,0,0.4994626375118969,0.03536072882479857,0.35329522993379214,1.0010651034458533,7.14525689005859
29,20,male,403,105,105,same,valid,clock,2,0,1,0.04340336631730679,0,j,change,0.7208845265581658,0,0.5008622495074633,0.03532961920836897,0.3533183216072757,1.001043294642841,5.8990685396152
29,20,male,404,135,135,same,catch,anti,4,1,1,0.10128328768996653,0,j,change,0.7608020123111601,0,0.49920061115972203,0.03533346782069202,0.3533186423251209,1.0010577269390524,5.991196299431067
29,20,male,405,45,355,change,catch,anti,1,1,1,0.681890066314736,0,j,change,1.2866087215325024,0,0.5004026610586152,0.035278625095997995,0.3533295467263997,1.0010756871297417,7.099978608130186
29,20,male,406,15,65,change,catch,clock,1,2,1,0.04767372234891809,0,j,change,0.8055238490483134,0,0.4992176091973306,0.03537676470887163,0.35325097089253177,1.001072159234809,6.026346316733907
29,20,male,407,105,105,same,catch,anti,3,0,1,0.6677977310505412,0,j,change,0.7067976434946104,0,0.5001900252309497,0.0352779836607624,0.3533580906005227,1.0010381631600467,6.522550141805368
29,20,male,408,165,215,change,valid,clock,3,0,1,0.6684654652794961,0,j,change,0.4888160931004677,0,0.49933851976584265,0.03531230045336997,0.35330549289983537,1.0010788943068292,6.321291773880148
29,20,male,409,45,45,same,valid,clock,4,2,2,0.6455447341841136,1,f,same,0.46815898745580853,0.09914479682510635,0.49947867339596996,0.035353673035388056,0.35332473596145064,1.001021165122438,4.719258167156568
29,20,male,410,105,105,same,catch,clock,1,2,1,0.060223084810331784,0,j,change,0.9633082927653049,0,0.5000710389681444,0.03529915102808445,0.35333596108057463,1.0010169957922699,6.168320019807197
29,20,male,411,45,95,change,valid,clock,2,2,2,0.3172558624787598,1,j,change,0.638986057439979,0.09828551085884082,0.5003481390517663,0.035305244664414204,0.353283684096823,1.0010891572724177,4.57946502365121
29,20,male,412,135,135,same,valid,anti,4,1,2,1.632829560677692,1,f,same,0.7639549879140759,0.06573945456974009,0.49993537538557575,0.03533154351498524,0.35332794313808336,1.0010692727760215,5.944950732951838
29,20,male,413,165,165,same,valid,anti,2,1,2,0.07274614842117444,1,j,change,1.718131165196155,0.06442675960147051,0.4996255620976626,0.03529466098098055,0.3533106243826296,1.0010814600477715,5.391258903523976
29,20,male,414,75,25,change,valid,anti,3,0,2,0.07780611140424298,1,j,change,0.829484346892059,0,0.499900737875123,0.03531775265446413,0.35332313237267954,1.00104842612609,5.991737991608261
29,20,male,415,45,45,same,valid,anti,4,2,2,0.7223004951561052,1,f,same,0.8396270438138345,0.09745892593028371,0.5003503840753183,0.03533603356254389,0.3532737418486249,1.0010766492828225,5.12072294898644
29,20,male,416,15,325,change,valid,anti,5,1,2,0.10114954841355939,1,j,change,0.8688335208998978,0.06306919016815529,0.4997439069252323,0.03533571284469872,0.35330421002890944,1.0010346352655688,4.531180654822492
29,20,male,417,15,15,same,valid,anti,4,2,2,0.833959320809754,1,f,same,0.9399308596807714,0.09665953853518469,0.5000174791143763,0.03532352557249396,0.35332249093744394,1.0010314280884813,5.3204024237279555
29,20,male,418,105,105,same,valid,clock,3,1,1,0.4540137337730812,0,f,same,1.297225759916273,0.061712796749588766,0.5004254320147083,0.035310376147208444,0.3533067757707613,1.0010538783267293,5.309653249656094
29,20,male,419,105,55,change,catch,anti,4,2,2,0.9628464592929049,1,f,same,0.8370135153641058,0,0.4998827776848884,0.03534405150458042,0.3533093415117037,1.0010404081835986,6.910776018142315
29,20,male,420,165,115,change,valid,anti,5,1,1,0.42026589420720484,0,f,same,1.9241733581739027,0.06395993757262056,0.5001201087748086,0.03536233241311493,0.35328945701530756,1.0010513125853322,5.910000202052288
29,20,male,421,165,165,same,valid,clock,3,1,3,0.664218842356604,1,f,same,0.7822936253833177,0.06611377740954055,0.49925481244918046,0.03535463518846882,0.3533103036652392,1.001052274738413,5.002101021581893
29,20,male,422,75,125,change,valid,clock,1,0,1,0.19919968107797104,0,j,change,0.9002362727219406,0,0.5001300510230067,0.03532769490266219,0.35328143907327103,1.001034955983414,6.203840466041129
29,20,male,423,105,105,same,valid,anti,4,2,2,2.308172816802198,1,f,same,0.9481354596059646,0.09588230480076192,0.500262828146333,0.03533859930394101,0.35328624983867485,1.0010683106229408,6.8525859627638965
29,20,male,424,135,135,same,valid,clock,5,1,1,0.7595284423669,0,f,same,2.048648383406544,0.06486663498126544,0.4997455105140034,0.03529626456884216,0.3533048514645998,1.0010721592352638,6.36889557977247
29,20,male,425,45,355,change,valid,anti,5,2,2,0.8708357614336819,1,j,change,0.852401870810354,0.09512256501786882,0.4997467933844746,0.03531999767801608,0.3533208873491276,1.0010580476568975,5.343567541702214
29,20,male,426,15,15,same,catch,clock,5,1,1,0.06994532084127059,0,j,change,1.200161192710766,0,0.5006489722441074,0.03531775265400938,0.35330741720554215,1.0010551611972005,6.381760528440282
29,20,male,427,15,65,change,valid,clock,1,2,2,0.8909024258127829,1,j,change,0.9061692292543739,0.09437597779446948,0.4998074090276532,0.03534886226998424,0.3533109451004748,1.0010301452175554,5.42690699539844
29,20,male,428,45,95,change,valid,clock,3,2,1,0.2396588590090687,0,j,change,0.9251637343986658,0.09357684552824022,0.4994212649298788,0.03535110729353619,0.35329715423995367,1.0010388045948275,4.837353155397068
29,20,male,429,135,135,same,valid,anti,4,0,1,0.04845242489773227,0,j,change,1.0965494945967293,0,0.4994969543049592,0.03533058136144973,0.3532477637154443,1.0010814600482263,6.309156778672332
29,20,male,430,45,95,change,valid,clock,5,2,2,0.5629920009805573,1,j,change,0.7542269789646525,0.0963009896843085,0.5004757846918437,0.035371633225622645,0.3533022857227479,1.0010468225373188,4.956757313245362
29,20,male,431,15,325,change,valid,anti,5,0,2,0.5330844350255575,1,f,same,1.0565377178436393,0.0005407208500263772,0.49960792262481846,0.03533956145747652,0.35328849486177205,1.001051954020113,5.143763307779409
29,20,male,432,135,135,same,catch,anti,5,2,1,0.057893070797945256,0,j,change,1.0170916870938527,0,0.4994626375118969,0.035372274661312986,0.35330196500490274,1.0010054499562102,6.215213115300685
29,20,male,433,105,155,change,valid,clock,3,1,1,0.8039933842355822,0,f,same,1.1640791698036992,0.06696948129311509,0.5004735396687465,0.035340202892257366,0.3532654031887432,1.001073442105735,5.5689672922480895
29,20,male,434,15,325,change,catch,anti,1,1,1,0.05133182831286831,0,j,change,0.7946239376633457,0,0.499718570227742,0.035307489687511406,0.3533401304102881,1.0010541990441197,6.003786713756199
29,20,male,435,75,125,change,valid,clock,3,0,1,0.6840828131562375,0,f,same,1.2378282024383225,0,0.4995216495672139,0.03537451968441019,0.3532702139536923,1.0010503504317967,7.051435740843772
29,20,male,436,135,85,change,catch,anti,4,2,2,0.8444698809198599,1,f,same,1.7108839075735887,0,0.49995654275335255,0.035413967960266746,0.3532464808449731,1.0010564440681264,7.676560059037911
29,20,male,437,45,355,change,valid,anti,3,2,1,0.6976536614574798,0,j,change,0.5035450529776426,0.09556619495805205,0.49944307373243646,0.03540081853589072,0.35325065017514135,1.0010679899050956,4.802434054829973
29,20,male,438,105,155,change,catch,clock,1,2,1,0.11802699609143019,0,j,change,0.977780357773554,0,0.49909124642817915,0.03535591805939475,0.3532933056276306,1.0010875536836465,6.238155013764299
29,20,male,439,105,105,same,catch,anti,4,2,1,0.4726012481687576,0,f,same,1.110654017133129,0,0.50020285393839,0.03532512916081032,0.35329619208732765,1.0010519540210225,6.69845898357471
29,20,male,440,15,65,change,valid,clock,1,0,1,0.6768711551958404,0,f,same,0.8256498461996671,0.0004376733296594104,0.500639350712845,0.035329619208823715,0.35328753270914603,1.0010776114359032,5.120854763956231
29,20,male,441,15,65,change,valid,clock,5,2,2,0.7308113804747336,1,f,same,1.186169242082542,0.09844955076096994,0.4999514112705583,0.03537516112010053,0.35322274773534446,1.0010766492823677,5.462240783936977
29,20,male,442,135,85,change,valid,anti,4,2,1,0.2243237426982887,0,j,change,1.0424556455454876,0.09768670903435887,0.4993009957961476,0.03535688021202077,0.3533237738074604,1.001043294642841,4.908127852182588
29,20,male,443,15,15,same,valid,clock,5,1,2,0.4646416765581307,1,f,same,0.7703228376331026,0.0692652792908158,0.49977726156521385,0.03530941399367293,0.35331158653661987,1.0010416910545246,4.790605024299111
29,20,male,444,105,155,change,valid,clock,1,1,2,0.4474053457870468,1,f,same,0.6501476744597312,0.0679692624785728,0.500177517240445,0.03532416700727481,0.3532913813214691,1.001013467897792,4.6728371681010685
29,20,male,445,75,75,same,catch,anti,5,2,1,0.24991829716873326,0,j,change,1.0689950343275996,0,0.5002682803469725,0.03533122279714007,0.35328400481466815,1.001066065598934,6.48654669473126
29,20,male,446,135,85,change,valid,anti,4,1,2,1.0187048970701653,1,f,same,1.0132578278371511,0.06673283786778256,0.5008564765894334,0.03534501365811593,0.35328753270914603,1.0010378424422015,5.616083286535286
29,20,male,447,15,15,same,catch,clock,2,1,2,0.12663249312845437,1,j,change,0.9303875841196714,0,0.5000498716008224,0.03535046585875534,0.35329651280426333,1.0010416910545246,6.203718272601691
29,20,male,448,75,75,same,catch,anti,2,1,1,1.369664340073541,0,f,same,1.0045692649182456,0,0.500326330248754,0.03531262117121514,0.35331543514803343,1.0010503504327062,7.511600519177591
29,20,male,449,75,125,change,catch,clock,1,2,1,0.08915919688479335,0,j,change,0.762267371433154,0,0.49978752453080233,0.035342447916264064,0.35337637150951196,1.0009640773732826,6.003388061669284
29,20,male,450,165,215,change,valid,clock,5,1,1,0.37448568909530877,0,j,change,1.1888623085196741,0.06553962193600829,0.5007666756364415,0.03532737418481702,0.3533131901249362,1.0010532368914937,5.263126734481375
29,20,male,451,135,135,same,valid,clock,5,0,1,0.6479363259932143,0,f,same,0.9514821486927758,0.001986996585347428,0.5009799528988879,0.03534180648057372,0.3532942677811661,1.0010404081840534,5.215478990265183
29,20,male,452,135,135,same,catch,anti,1,0,1,0.07370830148829555,0,j,change,0.8061883761010904,0,0.5004530137357506,0.03530428251087869,0.35334077184597845,1.0010516333031774,6.039921334365317
29,20,male,453,45,355,change,valid,anti,2,2,1,0.2450488404929274,0,j,change,0.996899622098681,0.10062117149860991,0.4994915021043198,0.03527445576582977,0.3533612977780649,1.0010532368914937,4.908263515765611
29,20,male,454,165,215,change,catch,clock,4,2,1,0.534205664066576,0,f,same,2.056162478146689,0,0.49947450406671123,0.03531999767801608,0.35334173399860447,1.001044577513312,7.6994140808528755
29,20,male,455,15,15,same,catch,clock,5,0,2,0.5117586329988626,1,j,change,1.3594090712431353,0,0.49963582506370585,0.03535463518892357,0.3533138315597171,1.000993904119241,7.051455625340168
29,20,male,456,135,185,change,valid,clock,1,2,2,0.081685833290976,1,j,change,0.8451754598372645,0.10337817450922998,0.5003465354629952,0.03533571284424397,0.3533144729954074,1.0010368802895755,4.567771656702462
29,20,male,457,105,55,change,valid,anti,1,2,1,0.1597613475532853,0,j,change,1.3223347478051437,0.10262954208917084,0.4990941328869667,0.035348541552593815,0.3533115865357104,1.001057406221662,5.096080284618438
29,20,male,458,165,165,same,catch,anti,4,0,1,0.09498054366213182,0,j,change,0.8288012182138118,0,0.49957585085576284,0.035329298490978545,0.35327534543648653,1.0010522747379582,6.121180613128672
29,20,male,459,45,45,same,valid,anti,2,2,2,0.5436524036031187,1,f,same,0.7626445354353564,0.10520091244253295,0.5003914359394912,0.035306206817949715,0.35330741720554215,1.0010365595708208,4.908998279990556
29,20,male,460,45,355,change,valid,anti,2,1,2,0.5342528095670787,1,j,change,0.5150937762491594,0.06770301944090137,0.49967270759771054,0.03533507140855363,0.3532824012263518,1.0010176372279602,4.661330779565105
29,20,male,461,165,215,change,valid,clock,2,2,2,0.7245670070660708,1,j,change,1.095275924652924,0.1045249310564822,0.49916276647218183,0.03531165901767963,0.3533366025158102,1.0010355974191043,5.473209328907615
29,20,male,462,165,115,change,valid,anti,3,1,1,0.1690772342717537,0,j,change,0.8763581993234766,0.06651100849184002,0.4996797633875758,0.035358483800337126,0.353260271705949,1.0010753664118965,4.684449714191942
29,20,male,463,75,75,same,catch,clock,1,1,1,0.039451482950426,0,j,change,0.8146938092186247,0,0.49998797308671783,0.03537933045026875,0.3532779111792479,1.0010487468434803,6.027636884715321
29,20,male,464,75,125,change,valid,clock,1,1,1,0.3845619974554211,0,f,same,0.8359599577552217,0.06865295098604543,0.5000771326040194,0.035330260644514055,0.3533356403622747,1.0010185993814957,4.825919249058643
29,20,male,465,75,125,change,valid,clock,3,2,2,0.33221253191550204,1,j,change,0.8748918780493113,0.10380140703469101,0.5005097807670609,0.03530011318161996,0.3533279431376286,1.001039766748363,4.897825117133834
29,20,male,466,75,25,change,valid,anti,1,0,2,0.3402477929012093,1,f,same,0.980854436824302,0.0034643413043213556,0.49899984188596136,0.03534212719841889,0.3533032478762834,1.0010513125853322,4.884140093335191
29,20,male,467,135,135,same,valid,anti,5,1,2,0.26187112472780427,1,f,same,1.1098801253492638,0.07085644307564834,0.5000630210251984,0.03532993992575939,0.3533048514636903,1.0010429739249957,4.943801601471932
29,20,male,468,105,155,change,valid,clock,5,0,2,0.0632124943913368,1,j,change,1.4392927918379428,0.0018667549353940105,0.5004279977565602,0.03531518691306701,0.35332537739668624,1.0010609341161398,5.179900494130379
29,20,male,469,45,45,same,valid,anti,2,0,1,0.30904388604631094,0,f,same,1.2398801542140063,0.0002406063655639723,0.5001560291557325,0.03534854155168432,0.35329394706332096,1.0010484261265447,5.1448088474462566
29,20,male,470,165,165,same,catch,clock,4,0,1,0.0747256179984106,0,j,change,0.8962683534709868,0,0.49951908382445254,0.035348220834748645,0.3533022857227479,1.0010343145477236,6.132702075396992
29,20,male,471,15,65,change,valid,clock,1,1,2,1.6181631407498571,1,j,change,1.5047355570395666,0.06959069050693817,0.5006268427232499,0.03537419896747451,0.35327951476665476,1.0010551611976553,6.782075216636258
29,20,male,472,75,25,change,valid,anti,4,2,2,0.9445636267018926,1,f,same,1.031206793313686,0.10308251567068977,0.49987957050780096,0.03533603356208914,0.3533131901249362,1.00104265320806,5.5447787641269315
29,20,male,473,15,15,same,valid,clock,2,1,1,0.25261809867606644,0,f,same,1.2326268029546554,0.06837553955086534,0.4991140173833628,0.03535110729353619,0.3532977956747345,1.0010795357411553,5.073174627254048
29,20,male,474,135,135,same,valid,anti,1,1,2,0.3148209737819343,1,f,same,0.8753966876920458,0.07051515244782569,0.4995046515296053,0.035315186912157515,0.3532743832838605,1.0010824222008523,4.790643189704497
29,20,male,475,135,135,same,catch,clock,5,2,1,0.46177798831104155,0,f,same,0.5839723900553508,0,0.4998237656300262,0.03534950370521983,0.35330645505291614,1.0010519540210225,6.15687168117347
29,20,male,476,105,105,same,valid,anti,5,0,1,0.5660859645277014,0,f,same,2.223912582620869,0.0017501971191297983,0.5000806604984973,0.03530845184104692,0.35334397902170167,1.0010080156971526,6.392795141255192
29,20,male,477,45,355,change,catch,anti,5,2,1,0.11117069333067775,0,j,change,0.6900741403087522,0,0.49986834538867697,0.03531807337185455,0.3533247359609959,1.0010477846908543,5.956747691714554
29,20,male,478,165,165,same,valid,clock,3,2,2,0.8669614917471336,1,f,same,0.4222883399561397,0.10236437632741409,0.49964833305330103,0.03532352557340346,0.3533054928993806,1.0010327109594073,4.90834209159857
29,20,male,479,105,155,change,catch,clock,4,1,1,0.04027059592954174,0,j,change,0.9364427340933617,0,0.5000344771515302,0.03531967696017091,0.3533093415126132,1.001057406221662,6.156856607442023
29,20,male,480,105,155,change,valid,clock,4,1,2,0.8554393880449425,1,f,same,0.4655496283357934,0.06928501377819099,0.4999193395005932,0.03538798982845037,0.35326412031827203,1.0010327109594073,4.920418395468914
