subject,age,gender,ntrial,memory_ori,test_ori,type,trial_type,which_change,trial,quest,pas,pas_rt,vis,test_key,test,test_rt,contrast,fix_dur,target_dur,mask_dur,retention_dur,trial_dur
2,22,female,1,45,355,change,valid,anti,1,0,2,2.8941656686844226,1,j,change,1.0467822209278665,0.37944929578103603,0.5071559655389137,0.03532472214192239,0.35327769007790266,1.0010936645073798,7.112954375908885
2,22,female,2,165,115,change,valid,anti,3,2,2,1.2546172847742127,1,j,change,0.9896432216213498,0.420665017496822,0.5047960876958086,0.035344606951071,0.3532818594734408,1.0010657616298886,5.4732639118295765
2,22,female,3,105,55,change,valid,anti,4,0,2,1.1020267110718578,1,f,same,1.3248324704823062,0.2937466287016083,0.5049638256833759,0.03532087346911794,0.3533136110236228,1.001058385007127,5.626203752584274
2,22,female,4,75,75,same,catch,clock,1,2,1,1.3188314274920003,0,j,change,1.0228527773625729,0,0.5060177205723448,0.035327608646412045,0.3533261192100099,1.0010429903161366,5.580911288734455
2,22,female,5,165,165,same,valid,clock,2,0,2,2.079216910554919,1,j,change,1.8618830016312131,0.22313666311592528,0.5055594077919068,0.03532568431000982,0.35327833152337007,1.001072176084449,7.1462915792965305
2,22,female,6,105,105,same,catch,clock,4,1,2,1.2805214181846623,1,j,change,1.1372953067359504,0,0.5056671706289535,0.03541035511057089,0.353297895609785,1.0010699310254267,5.568857566394399
2,22,female,7,135,135,same,valid,clock,4,2,3,2.3831443528104046,1,f,same,0.9910996235356606,0.3645220550955335,0.5054936596322932,0.035336268160108375,0.35326999273240745,1.001074421143585,6.605186471402021
2,22,female,8,165,115,change,valid,anti,5,2,2,2.05541992547694,1,j,change,1.291589559577119,0.3185926137827865,0.5045385473440547,0.03532953298281427,0.35332419487372135,1.0010837221027487,6.497425237928155
2,22,female,9,15,65,change,catch,clock,3,0,2,1.789288373993486,1,j,change,0.983475082088944,0,0.50582240043002,0.035327608646412045,0.35331104524186685,1.0010798734299442,5.9458366661770015
2,22,female,10,75,75,same,valid,clock,5,2,2,1.9515025539150201,1,j,change,1.2226915821188413,0.28080340971501866,0.505398725704481,0.0353314573192165,0.35331778041904727,1.0010747418663186,6.322106968727553
2,22,female,11,165,215,change,valid,clock,2,0,3,1.0917151545979777,1,j,change,0.8416152494678499,0.1618813254764418,0.5053753129452616,0.03534396550560359,0.35327640718708153,1.0010654409071549,5.073837107491499
2,22,female,12,15,15,same,valid,anti,3,1,3,5.183226008817314,1,f,same,0.907427553546313,0.6421270184668036,0.5050638911749274,0.035334343823819836,0.3532991785008335,1.00104619754336,9.277891491803302
2,22,female,13,75,25,change,catch,anti,5,0,2,1.61421160900818,1,f,same,1.0936529613292123,0,0.505109433802545,0.0353712269376274,0.35330238572805683,1.0010455560978926,5.8626601128045195
2,22,female,14,45,45,same,valid,clock,5,1,2,1.6093330955708325,1,j,change,1.7846369322485316,0.6207099421952555,0.5055731988692287,0.03534011683291283,0.3532994992235672,1.0010474804342948,6.5691837414102565
2,22,female,15,45,95,change,valid,clock,1,1,2,1.380887747686188,1,j,change,0.9165226087073961,0.602710773216857,0.5056427957016467,0.03532664647821093,0.353312328132688,1.0010904572800428,5.450782210664784
2,22,female,16,165,215,change,catch,clock,4,1,1,0.6549110026497829,0,j,change,0.7224754149991668,0,0.5054372124320707,0.03527533084150036,0.35332932643734694,1.0010987960710054,4.578796763779337
2,22,female,17,75,125,change,catch,clock,4,0,2,1.065928405706586,1,f,same,1.368206050241838,0,0.505537598646356,0.03529008408702339,0.3533395895647118,1.0010692895799593,5.638743690582032
2,22,female,18,135,135,same,valid,clock,1,0,2,2.2040784385164898,1,f,same,1.1416314780378798,0.10730205025175515,0.506039208995162,0.03538149006487856,0.35328955681893603,1.0010587057298608,6.48722304790499
2,22,female,19,165,165,same,catch,anti,3,0,2,1.0112137495117395,1,j,change,2.005994949258479,0,0.5058057228480948,0.03534268261478246,0.3533334958327714,1.0010676859662908,6.168897720880068
2,22,female,20,45,95,change,catch,clock,4,0,1,2.5602320493092066,0,j,change,1.077020922026577,0,0.5060119475631382,0.03532857081461316,0.3532889153734686,1.0011010411301413,6.817026720693548
2,22,female,21,15,325,change,valid,anti,4,1,3,3.077392639669938,1,j,change,1.39523046814611,0.5868990059864885,0.5059757058946843,0.035290725532490796,0.3533389481192444,1.0010728175299164,7.641227046676136
2,22,female,22,75,75,same,valid,anti,4,0,2,1.9886120980461328,1,j,change,1.242574467006989,0.058451918880608356,0.5057021294064725,0.03535551152390326,0.3533142524690902,1.0010362551388425,6.380720330421468
2,22,female,23,75,75,same,valid,anti,1,1,2,1.4202737817507796,1,f,same,1.246873113749416,0.5732676194452382,0.5056549831651864,0.03530259227352417,0.3533402310101792,1.0010750625890523,5.815570639501971
2,22,female,24,105,105,same,valid,anti,3,1,2,1.087880593644968,1,f,same,1.0182119194678307,0.5606206171671305,0.505546899605406,0.035315421182758655,0.3533341372783525,1.0010769869253409,5.238678006567056
2,22,female,25,165,215,change,catch,clock,1,2,1,0.8696852234697872,0,j,change,0.9902574056482081,0,0.5054731333776772,0.035306761669062325,0.3533723032830949,1.0010295199615484,5.073898365532955
2,22,female,26,105,105,same,valid,anti,1,2,2,1.1870862275886793,1,f,same,1.112096763330328,0.2468890542433892,0.5053971220909261,0.0353391546648254,0.35329789561001235,1.0010741004207375,5.439003668426722
2,22,female,27,15,15,same,valid,anti,1,1,3,1.8161020770644427,1,f,same,0.8840074176753205,0.5492597106398625,0.5050815309250538,0.03537475488747077,0.3532395240731603,1.0010801941527916,5.850730189438082
2,22,female,28,135,85,change,catch,anti,4,2,1,6.228271836888098,0,j,change,1.220118102937704,0,0.5052204038668151,0.03532087346911794,0.3533408724556466,1.00107281753003,10.574029220406373
2,22,female,29,135,185,change,catch,clock,5,2,2,1.20252132966516,1,f,same,1.5631118186968251,0,0.5051556178755163,0.03534236189193507,0.3533200254782969,1.0010564606707248,5.945102531849216
2,22,female,30,15,325,change,valid,anti,2,2,2,1.6026315941394387,1,j,change,0.7900193010937073,0.21701595052579076,0.5054285529183744,0.03532023202365053,0.3533129695781554,1.0010692895798456,5.545028188320657
2,22,female,31,135,135,same,valid,clock,1,2,2,1.3185187228307313,1,f,same,1.7829669289965295,0.18958278050983812,0.5052566455351553,0.03533081587374909,0.3532754450188804,1.0010776283706946,6.274957520274484
2,22,female,32,105,55,change,catch,anti,1,0,1,1.5075045911460165,0,j,change,1.4393878942564697,0,0.5052300255488262,0.035336909605575784,0.3532731999596308,1.0010949473980872,6.062900783140776
2,22,female,33,165,215,change,catch,clock,5,2,1,1.5827955347699572,0,j,change,1.7933766266255589,0,0.5056071954784329,0.03534556911927211,0.3533129695781554,1.001040745256887,6.56922030380133
2,22,female,34,75,125,change,valid,clock,2,0,1,0.8265608452711604,0,j,change,0.9802598367266455,0.013269266322788076,0.5058397194575264,0.035365453928307033,0.35330366861899165,1.0010715346388679,4.932897428381011
2,22,female,35,105,155,change,valid,clock,4,0,1,0.7153787831653062,0,j,change,1.585874472972364,0.052539868034684134,0.5052239318169995,0.035335947437260984,0.35329917850094716,1.0010612715116167,5.485759910813385
2,22,female,36,45,45,same,catch,anti,4,0,1,0.3022221595031169,0,j,change,1.0613000559981174,0,0.5053349018812696,0.035374754887698145,0.35326806839589153,1.001051649829833,4.531826278609287
2,22,female,37,75,75,same,valid,clock,3,0,1,0.22453349275383516,0,j,change,1.8635401759740944,0.082307785929297,0.5054150825637862,0.03529040480975709,0.3533328543874177,1.0010888536662605,5.249820555632823
2,22,female,38,135,185,change,valid,clock,2,0,2,0.7563347549903483,1,j,change,0.8931217162000848,0.1077595777000741,0.5058538312573546,0.03533787177389058,0.3532991785007198,1.0010433110387567,4.850759695929128
2,22,female,39,75,75,same,catch,anti,5,1,1,0.6094408584081066,0,j,change,0.5830514715080426,0,0.505069022738553,0.03533851321913062,0.3533158560828724,1.0010641580161064,4.425907276493035
2,22,female,40,165,215,change,valid,clock,3,0,1,0.781719638301638,0,j,change,1.4305173450061375,0.08442668833101596,0.5051925009893239,0.03535487007843585,0.35330944162819833,1.00103721730693,5.379992289825623
2,22,female,41,45,95,change,valid,clock,2,1,2,0.6304084275670903,1,j,change,0.8625780077857144,0.5389060537954814,0.5051482412527548,0.035328250091879454,0.35328955681893603,1.0010724968071827,4.63785111922607
2,22,female,42,165,215,change,valid,clock,1,0,2,0.7217076047850242,1,j,change,0.6534568457946079,0.10386890883840866,0.5052242525396196,0.03535230429656622,0.3533129695781554,1.0010455560980063,4.566879027876666
2,22,female,43,165,165,same,catch,anti,5,2,2,0.7683955332304322,1,j,change,1.2195202757702646,0,0.5056633219562627,0.035311251787334186,0.353312328132688,1.0010718553617153,5.097851863302822
2,22,female,44,75,125,change,valid,clock,3,1,2,0.8635388930831596,1,f,same,0.9301837933674051,0.5293499100613233,0.5052932079265702,0.03533113659659648,0.353312648855308,1.001058385007127,4.944104442715343
2,22,female,45,75,75,same,valid,anti,2,0,2,0.9198808964072214,1,f,same,1.1770969974579657,0.08462383084965408,0.5053894247450899,0.03534845562398914,0.35330302717352424,1.0010734589754975,5.24997033314753
2,22,female,46,165,215,change,catch,clock,4,1,1,0.5535097009003493,0,j,change,0.9717574771693762,0,0.5057162412065281,0.035378603560275224,0.35331040379628575,1.0010522912753004,4.68580494028447
2,22,female,47,135,135,same,catch,anti,4,2,1,4.452158752619653,0,j,change,1.8964312540451829,0,0.5051668431710823,0.03535134212847879,0.353326760655591,1.0010715346390953,9.537237512500042
2,22,female,48,45,45,same,valid,anti,4,0,1,0.8907701771481698,0,j,change,0.7654852951834528,0.06761674776525589,0.5055234868461866,0.03535839802839291,0.3532677476732715,1.0010686481343782,4.815120024067028
2,22,female,49,45,355,change,catch,anti,4,2,1,0.7869753216689332,0,j,change,1.865426987791352,0,0.504894870296539,0.035352945742033626,0.3533492112467229,1.0010099558751335,5.814817903255744
2,22,female,50,105,105,same,valid,clock,4,0,1,0.9305939977382423,0,j,change,1.7113440912289661,0.08250247027777424,0.5060699983771428,0.03537507561031816,0.3532879532053812,1.0010734589754975,5.804204867416502
2,22,female,51,15,15,same,valid,clock,5,1,1,1.2752205129127105,0,j,change,2.1919955304081213,0.5204525036435717,0.5042075614874193,0.03530002649154085,0.3533200254782969,1.00107313825265,6.6391327272529
2,22,female,52,15,15,same,valid,anti,1,2,2,1.9685954717799632,1,f,same,0.8145475339949826,0.16357750326138082,0.5047152655681657,0.035336268160108375,0.3532815387507071,1.0010769869254545,5.920469743338344
2,22,female,53,165,165,same,catch,anti,4,1,2,1.135958534399606,1,j,change,0.9271564915243289,0,0.5056232316148908,0.035297781432518605,0.35333060932839544,1.0010708931936279,5.262593979777876
2,22,female,54,105,105,same,catch,clock,4,1,2,1.4456217819483754,1,f,same,2.1188130180073586,0,0.505175823407626,0.03533402310085876,0.3532555602096181,1.0010997582392065,6.7579476695966605
2,22,female,55,15,65,change,catch,clock,5,1,1,0.9000281594555872,0,j,change,0.971077865705638,0,0.5048720989825597,0.03532953298281427,0.3533197047554495,1.0010612715116167,5.061626231014088
2,22,female,56,135,85,change,valid,anti,4,2,2,0.8284896717659649,1,j,change,0.9712250774384756,0.13843677051508324,0.5054551729047034,0.035352625019186235,0.3532937262143605,1.0010612715116167,4.968171155608843
2,22,female,57,75,125,change,valid,clock,1,2,2,1.0843843951715826,1,j,change,0.6724959091816345,0.1154665964204698,0.5048842864464405,0.03531926985556311,0.3533549842557022,1.0010654409070412,4.884773944998642
2,22,female,58,165,165,same,catch,clock,3,1,1,0.9810549083729256,0,j,change,0.9359805359788425,0,0.5054173276225811,0.03534428622856467,0.3532671062278041,1.001092060893825,5.06187543257488
2,22,female,59,75,25,change,valid,anti,5,2,1,3.3254379949953545,0,j,change,1.266016412023646,0.09414884667699497,0.5057624252797268,0.03529842287821339,0.3533479283555607,1.0011061726938806,7.8183429667751625
2,22,female,60,45,45,same,valid,clock,1,0,2,1.3844682962376282,1,f,same,1.3977147864081871,0.09620740715144394,0.5049442615968474,0.035331778041836515,0.35326903056420633,1.0010821184889664,5.9685486462615245
2,22,female,61,165,215,change,catch,clock,2,1,2,0.8782645564820086,1,j,change,0.9285189216789149,0,0.5050375919111048,0.03534717273305432,0.35324946647779143,1.0010943059528472,4.966732393444772
2,22,female,62,165,215,change,valid,clock,5,1,2,0.7830961802565071,1,j,change,0.7757561198709482,0.534864679337851,0.5063451784790232,0.035327608646412045,0.35332387415087396,1.0010346515252877,4.686198146350989
2,22,female,63,15,15,same,valid,clock,3,0,2,0.5694403195936957,1,f,same,1.0090514368698678,0.08261108925830113,0.504576071903557,0.035336268160108375,0.35327769007790266,1.0010773076480746,4.755227620128153
2,22,female,64,135,185,change,valid,clock,1,0,2,0.7763908301521951,1,j,change,0.8055759570845566,0.07009927859307463,0.5050693434614004,0.03532857081449947,0.35331745969642725,1.001078269816162,4.731858158448631
2,22,female,65,105,105,same,valid,anti,4,2,1,1.0951770357394253,0,j,change,0.8298681380570088,0.15178888863745427,0.5053076404494732,0.03535615296937067,0.35330238572805683,1.0010423488706692,5.0618282863335935
2,22,female,66,105,105,same,valid,anti,1,1,3,2.601477633759032,1,f,same,0.7838107504976506,0.5268255062604871,0.5050116133700158,0.035357435860305486,0.35330591367824127,1.0010391416433322,6.533548880389162
2,22,female,67,75,75,same,catch,clock,5,0,2,1.1812551676448493,1,j,change,0.9325888931152804,0,0.5056184207742263,0.03529521565064897,0.3533344580009725,1.001040745256887,5.2389053989820695
2,22,female,68,165,215,change,valid,clock,2,1,3,1.171010642221745,1,j,change,0.9497331266168203,0.5195540282627467,0.505590517896735,0.03536192597834997,0.35329821633263236,1.0010497254934307,5.297216960587548
2,22,female,69,135,135,same,valid,anti,1,2,3,1.2270181317387596,1,f,same,0.8859208494791346,0.19078168826478853,0.5059455579580572,0.03529970576892083,0.35333157149648287,1.0010676859660634,5.309941314154912
2,22,female,70,105,105,same,catch,clock,5,2,2,0.6450827753292288,1,j,change,0.7421084568811693,0,0.5046838347404901,0.035332740210151314,0.3532677476734989,1.0010936645071524,4.484276247467051
2,22,female,71,15,325,change,catch,anti,1,0,2,1.2209619244390524,1,f,same,1.1203752584222002,0,0.5055731988693424,0.035276934455168885,0.35334279679182146,1.001077628370922,5.5092348902710455
2,22,female,72,15,15,same,valid,anti,5,0,2,0.8544448000902776,1,f,same,0.9967286281598717,0.05882966005102491,0.5057172033748429,0.03538822524228635,0.3532876324825338,1.001077949093542,5.050793820827721
2,22,female,73,45,95,change,valid,clock,4,1,3,0.7103338146312126,1,j,change,0.8883987532865376,0.5126564181321716,0.5050199521610921,0.035327608646412045,0.353300461391882,1.0010401038114196,4.731786637279811
2,22,female,74,135,135,same,valid,anti,5,1,3,2.2783757831248295,1,f,same,2.291114248492022,0.5060044932073944,0.5051982739985306,0.035323118528140185,0.3532802558597723,1.0010959095666294,7.805825158645348
2,22,female,75,15,15,same,valid,clock,3,2,4,3.3524207189448134,1,f,same,1.2048911499127826,0.18113202742492496,0.5052746060082427,0.03530804455976977,0.35330334789637163,1.0011206052167836,7.758796622661293
2,22,female,76,165,165,same,valid,anti,5,1,4,0.8827209988075992,1,f,same,2.3029408991399123,0.4998821105378475,0.5052983394903094,0.03535551152390326,0.3532805765826197,1.0010574228390396,6.345824735291444
2,22,female,77,15,325,change,valid,anti,2,0,2,0.6919451769394982,1,j,change,1.2065650018378165,0.04853856359425157,0.5051588251028534,0.0353638503147522,0.35330527223277386,1.00103721730693,5.072917916148981
2,22,female,78,135,135,same,valid,anti,5,2,3,0.6087612469443684,1,f,same,1.029140546472945,0.17225755997330922,0.5058785269077362,0.03532889153734686,0.3533264399327436,1.0010522912753004,4.838775891144223
2,22,female,79,45,45,same,catch,anti,3,2,2,0.9826049613241139,1,j,change,2.0701317977984672,0,0.505297698044842,0.03533658888272839,0.35330431006445906,1.0010506876617455,6.25095302759064
2,22,female,80,75,25,change,catch,anti,4,0,2,0.8040133959468676,1,j,change,1.0362612325118334,0,0.5060260593631938,0.03533498526917356,0.3533232327056339,1.001074421143585,5.027136991582211
2,22,female,81,135,135,same,valid,clock,5,0,1,1.223876011158609,0,j,change,1.3114820661469366,0.03904768946251219,0.5056306082376523,0.035315421182758655,0.35332547776465617,1.0010490840479633,5.757051570290741
2,22,female,82,75,75,same,valid,clock,3,1,3,1.7716582455568641,1,f,same,0.9152605647670953,0.4939983559704379,0.505309564785648,0.03533626816033575,0.3533027064509042,1.0010590264525945,5.862861847401291
2,22,female,83,75,75,same,catch,anti,5,2,1,2.0031158213162144,0,j,change,2.66347782747539,0,0.5051703711210394,0.03535326646465364,0.35328955681893603,1.0010571021161923,7.828899555414182
2,22,female,84,165,165,same,valid,clock,3,2,3,1.1778734671859183,1,f,same,1.0956180294924707,0.163984462517546,0.5061835342232825,0.03535166285132618,0.3532857081461316,1.0010920608935976,5.545209396662813
2,22,female,85,15,325,change,catch,anti,1,2,2,1.44249698039539,1,j,change,1.466348809060264,0,0.5057412575795297,0.03536288814666477,0.35331072451890577,1.0010750625890523,6.0279038396283795
2,22,female,86,165,165,same,valid,clock,3,0,2,1.9274521978807115,1,f,same,1.397979382659969,0.04767623417405653,0.5054997533643473,0.035290084087137075,0.35332964716008064,1.0010452353751589,6.463855510561871
2,22,female,87,75,75,same,valid,anti,2,1,4,1.3286811432353716,1,f,same,1.0723835920819056,0.48822668122738,0.5049032090876153,0.035302592273637856,0.3533421553465814,1.0010461975432463,5.614740160066276
2,22,female,88,45,45,same,valid,clock,3,2,4,0.8904202686503595,1,f,same,1.53739691169676,0.15618654861070846,0.5056761508653835,0.0353176662417809,0.3532879532051538,1.0010962302892494,5.6038990903662125
2,22,female,89,45,355,change,valid,anti,5,0,2,0.8000806938387086,1,j,change,0.943233039059578,0.03907001614761452,0.5051851243665624,0.03534749345567434,0.3533046307870791,1.0010423488704419,4.90863828184979
2,22,female,90,45,45,same,valid,clock,3,1,4,0.9808371376393552,1,f,same,0.6970116338961816,0.4829122967170336,0.5051992361668454,0.035354549355815834,0.3533020650054368,1.0010686481343782,4.825720551719996
2,22,female,91,45,45,same,valid,clock,1,1,4,0.9062277298153276,1,f,same,0.6980732261306457,0.47765335005207954,0.505758576606695,0.035352625019186235,0.35331104524198054,1.001048442602496,4.83872842418009
2,22,female,92,15,325,change,valid,anti,4,0,3,0.7198268866995932,1,j,change,1.0614825472312077,0.0310361220649224,0.5052556833670678,0.03534364478286989,0.3532805765823923,1.0010667237982034,4.90892885664266
2,22,female,93,135,135,same,catch,clock,2,1,3,0.9230714461193656,1,j,change,0.8471339254731447,0,0.5050741543022923,0.03535422863296844,0.35329212260080567,1.0010330479115055,4.908825583923772
2,22,female,94,105,55,change,valid,anti,3,2,3,0.8010858388727229,1,j,change,0.943896293664011,0.14929941293694055,0.5047566388002451,0.03533787177366321,0.35329853705547976,1.0010834013799013,4.884538855237906
2,22,female,95,165,115,change,valid,anti,3,1,3,0.4023739254987504,1,j,change,1.3498655209593835,0.47278650077311424,0.5055315049144156,0.03532568431000982,0.3533318922191029,1.0010346515250603,4.861931751486054
2,22,female,96,165,165,same,valid,clock,1,1,4,0.8405975962473349,1,f,same,1.1467646453222642,0.4679344986843823,0.5051386195709711,0.035324401419075,0.35332355342825394,1.0010490840479633,5.2267015784048
2,22,female,97,105,55,change,valid,anti,2,1,4,1.0436025757883272,1,j,change,1.45556739378776,0.4634320706397459,0.50514695836182,0.03534107900122763,0.3532799351371523,1.0010753833118997,5.650776565944852
2,22,female,98,135,185,change,valid,clock,5,0,1,1.1154800674030412,0,j,change,1.1219230663145936,0.023467165810335033,0.5048727404282545,0.03530355444172528,0.3533139317464702,1.0010830806572812,5.367597318501339
2,22,female,99,165,165,same,valid,clock,1,0,2,1.189740208174726,1,j,change,0.876395063692371,0.030114181650473693,0.505224893985087,0.03534364478286989,0.35331232813291535,1.0010385001978648,5.249684569195551
2,22,female,100,45,355,change,valid,anti,2,1,4,0.9759467574613154,1,j,change,1.2745418636172872,0.4589097798764836,0.5059410678400127,0.035328250091879454,0.3533081587372635,1.0010776283706946,5.450930384565936
2,22,female,101,105,105,same,valid,anti,4,0,2,1.3633487045046877,1,j,change,1.4709941570733918,0.023142735818121984,0.5018223465485789,0.0353314573192165,0.35331649752811245,1.0010683274115308,6.036089645851462
2,22,female,102,45,355,change,valid,anti,2,0,2,0.7925584629426794,1,f,same,1.5991841455208942,0.016453427876037097,0.5051370159571889,0.03534043755576022,0.35330527223277386,1.0010452353751589,5.567803030060077
2,22,female,103,135,135,same,catch,anti,2,2,2,1.7096663906313552,1,j,change,1.3645552634129672,0,0.5057685190115535,0.035307403114529734,0.3533184218645147,1.0010785905392368,6.32200850684967
2,22,female,104,135,85,change,catch,anti,5,2,1,0.734072748895187,0,j,change,0.7568620231575096,0,0.5061148995591793,0.03535487007843585,0.35331008307366574,1.0010817977663464,4.674105295837762
2,22,female,105,15,15,same,catch,anti,5,2,1,1.7588097722932616,0,f,same,1.4762094293764676,0,0.5055263733509037,0.03533113659659648,0.3532789729688375,1.001088853666488,6.4631730125934155
2,22,female,106,75,125,change,valid,clock,2,2,2,0.750368350054714,1,j,change,0.7755242373373221,0.1427032375798689,0.5056751886972961,0.035332098764683906,0.3533148939145576,1.0010766662026072,4.661752339191253
2,22,female,107,135,85,change,valid,anti,3,2,2,0.8258632733345621,1,j,change,0.9286539459480991,0.1362932649756839,0.505413799672624,0.03534653128735954,0.3532683891187389,1.0010936645073798,4.884867275312672
2,22,female,108,165,165,same,valid,anti,2,1,4,0.8200472873591025,1,f,same,0.7544171537911097,0.4547001858387168,0.5057489549249112,0.035331778041836515,0.35332451559656874,1.001043952484224,4.708798835648395
2,22,female,109,15,15,same,valid,anti,2,2,4,1.144373015928977,1,f,same,1.1359376874222562,0.13051696013791697,0.5056517759380768,0.0353381924965106,0.3532885946508486,1.0010529327207678,5.4389712754309585
2,22,female,110,105,55,change,valid,anti,1,2,3,1.5068740502599667,1,f,same,1.0306344729467583,0.12485602615133179,0.5052723609489931,0.035281745296288136,0.3533344580009725,1.001087250052933,5.791690907959719
2,22,female,111,135,135,same,valid,anti,3,1,4,0.7348078453910603,1,f,same,0.7810249528697568,0.45047697972561596,0.5057303530068111,0.03529649854158379,0.3533068758463287,1.0010946266754672,4.7208794986975136
2,22,female,112,45,95,change,valid,clock,4,0,2,4.077700212767468,1,j,change,1.0639290202111624,0.010241488730403037,0.5049686365241541,0.03533081587374909,0.3532934054917405,1.0010936645073798,8.311750190348903
2,22,female,113,15,65,change,valid,clock,2,0,2,1.1328083957514536,1,f,same,1.082363521253228,0.004320105695112042,0.5056575489470561,0.03532728792379203,0.353341193178494,1.0010798734299442,5.438869927048245
2,22,female,114,75,125,change,valid,clock,2,1,4,0.8033401989378035,1,j,change,1.0625900028160231,0.4464788768707802,0.5056748679746761,0.03531413829182384,0.35331072451913315,1.0010461975432463,5.026923069521672
2,22,female,115,15,15,same,valid,clock,4,1,4,0.8115311367248523,1,f,same,0.9739768784570515,0.4427087839182136,0.5053679363225001,0.03532985370566166,0.35329789561001235,1.0010503669388982,5.037852017249634
2,22,female,116,165,165,same,catch,clock,5,0,4,0.801535812862312,1,j,change,0.8907858925617802,0,0.5058987324396185,0.03532183563743274,0.35334215534635405,1.0010785905390094,4.8389468363589
2,22,female,117,45,355,change,valid,anti,4,1,4,0.9871284346997982,1,j,change,0.8379577274613439,0.4388735509601981,0.5054240628001025,0.03534204116931505,0.3533027064509042,1.0010356136931478,5.003178041525871
2,22,female,118,75,25,change,valid,anti,2,2,4,0.39349632034804927,1,j,change,1.2694619363055608,0.11926567333923521,0.5050279702290936,0.03533466454655354,0.35329693344169755,1.0010490840479633,4.814565494467843
2,22,female,119,15,15,same,catch,anti,5,0,1,3.195308275480329,0,j,change,1.000237014097138,0,0.5050478550385833,0.0353372303281958,0.3532879532053812,1.0010606300661493,7.392978673862899
2,22,female,120,135,85,change,valid,anti,5,1,4,0.8279235961485938,1,j,change,0.8931736732822628,0.43528522007874243,0.5061889865098692,0.03532472214192239,0.35333702378284215,1.0010737796981175,4.8511650894593
2,22,female,121,165,165,same,valid,anti,3,0,2,1.0186792124845852,1,f,same,1.3051882033048514,0,0.5047835795094215,0.03535326646465364,0.3533145731917102,1.0010715346390953,5.496701046005228
2,22,female,122,105,105,same,catch,clock,1,0,2,0.7832202999527453,1,f,same,3.927542000245012,0,0.5056370226925537,0.0353314573192165,0.35331264885553537,1.0010885329436405,7.94790051694099
2,22,female,123,165,215,change,valid,clock,3,1,4,1.2683939296168774,1,j,change,0.772877312651417,0.43184526920146193,0.5048246320186536,0.03533081587374909,0.35325716382317296,1.0011020032982287,5.20256013711537
2,22,female,124,45,355,change,valid,anti,3,2,4,0.76811586301028,1,j,change,1.029832666123184,0.11416981043335356,0.5051703711210394,0.03532632575547723,0.35330847945988353,1.0010721760845627,4.955473742750883
2,22,female,125,15,65,change,valid,clock,3,0,2,4.113387351593701,1,f,same,1.193508700245502,0,0.5055626150192438,0.03530644094644231,0.3532994992235672,1.0010801941527916,8.547984610440608
2,22,female,126,45,355,change,valid,anti,3,1,4,1.6590415906821363,1,j,change,0.9868163714841103,0.42833935390059485,0.5050375919111048,0.03532889153734686,0.3532950091052953,1.0010708931936279,5.827296903935121
2,22,female,127,15,15,same,valid,clock,5,2,4,0.6747595702058788,1,f,same,0.9442122055525033,0.10907088968595113,0.5050674191249982,0.0353324194875313,0.35326229538691223,1.0010965510118695,4.813751179457995
2,22,female,128,105,105,same,valid,clock,2,2,2,2.8167223548232414,1,j,change,0.8147986598919488,0.10439220692515572,0.5059413885626327,0.03530868600546455,0.3533350994464399,1.0010785905392368,6.852993529739706
2,22,female,129,135,135,same,valid,anti,1,0,1,3.657637145849776,0,j,change,0.9092178278219762,0,0.5050953220024894,0.035316383351073455,0.35331521463717763,1.0010362551386152,7.735007334928923
2,22,female,130,135,135,same,valid,anti,2,1,4,2.649288412480246,1,f,same,1.222445587785387,0.42505472344636025,0.5054461926683871,0.035302912996257874,0.3533081587372635,1.0011048898029458,7.051938480248964
2,22,female,131,105,105,same,valid,anti,5,0,1,1.3917669833911077,0,j,change,1.719257924577505,0,0.5054792271096176,0.03536737826470926,0.3533062344008613,1.0010670445208234,6.321642241492555
2,22,female,132,45,95,change,valid,clock,3,2,3,0.7739382634404137,1,j,change,0.8321067827082516,0.09967615166590327,0.5060254179179537,0.035306440946214934,0.35334472112845106,1.0010532534433878,4.720899062784156
2,22,female,133,165,115,change,valid,anti,4,0,2,4.579337502301087,1,j,change,1.2500120271022297,0,0.5055440131009163,0.03529457420518156,0.353312648855308,1.0010978339028043,8.996067939337308
2,22,female,134,45,45,same,valid,clock,2,2,4,1.6117789271054335,1,f,same,0.9906647235145556,0.09531164586553703,0.504831367196175,0.03532600503262984,0.35333028860554805,1.0010708931936279,5.791706302650709
2,22,female,135,15,15,same,valid,anti,5,2,4,0.9111655769577283,1,f,same,0.7920401750120618,0.09123559862183778,0.5051360537891014,0.03533883394197801,0.3533062344008613,1.0010349722479077,4.896762560624666
2,22,female,136,105,105,same,catch,clock,5,1,3,2.0837391010397823,1,j,change,0.7909189283498108,0,0.505439457491093,0.03531702479631349,0.35331585608264504,1.0010397830887996,6.003916665971701
2,22,female,137,105,155,change,valid,clock,1,0,1,0.43943568194322324,0,j,change,0.8529999441943801,0,0.5055430509326015,0.03528655613695264,0.3533088001827309,1.0010933437845324,4.437721098231577
2,22,female,138,45,45,same,valid,anti,2,0,2,2.702815753130835,1,j,change,2.173687073398696,0,0.5055764060966794,0.035305799500747526,0.35332259125993914,1.0010654409070412,8.018056368944144
2,22,female,139,75,75,same,valid,clock,5,1,4,0.713789281317986,1,f,same,1.0523121222286136,0.42188867787080353,0.5050677398476182,0.03536641609662183,0.35326486116878186,1.0010721760845627,4.955350585222959
2,22,female,140,105,155,change,valid,clock,3,1,4,0.4017661559264525,1,j,change,1.167452544261323,0.4186420686005906,0.5057172033746156,0.03529649854158379,0.35332451559656874,1.0010561399478775,4.684947648428761
2,22,female,141,45,45,same,valid,clock,2,1,4,0.7161940603434687,1,f,same,0.8228930601374032,0.41559454806226703,0.5057422197476171,0.03537699994672039,0.35331136596460055,1.0010689688572256,4.720786489105876
2,22,female,142,135,135,same,valid,clock,4,0,3,0.8944924851457472,1,f,same,1.03736099075104,0,0.5054481170047893,0.035353907910348426,0.35326005032789,1.0010718553617153,5.1209833487173455
2,22,female,143,45,45,same,catch,clock,3,0,2,1.1850089064701024,1,j,change,0.9422410436575319,0,0.5052560040899152,0.035332740210151314,0.353327081378211,1.0010699310255404,5.273878288290007
2,22,female,144,75,125,change,valid,clock,5,2,3,1.9325808750470514,1,j,change,1.0505244137350473,0.08708621487194784,0.5056184207739989,0.03515602198626766,0.3532921226005783,1.0010426695932892,6.192011245821732
2,22,female,145,75,75,same,valid,anti,3,0,1,0.7037192290595158,0,j,change,0.873433189286061,0,0.5060228521358567,0.035310931064486795,0.35331745969642725,1.0010571021161923,4.755913966769185
2,22,female,146,135,135,same,catch,clock,2,0,1,0.7332712627944602,0,j,change,0.903390937273798,0,0.5057322773432134,0.035377962114807815,0.3533078380144161,1.0010590264525945,4.779818393961705
2,22,female,147,165,165,same,catch,clock,3,1,2,0.8130346848802219,1,f,same,1.113807498368942,0,0.505523807569034,0.03532953298281427,0.353271917068696,1.001092060893825,5.14416326326409
2,22,female,148,15,15,same,valid,clock,2,2,2,1.5606865134168402,1,f,same,0.6258535233637303,0.0832341993850031,0.5060074574448663,0.03532632575547723,0.35330334789614426,1.001063516570639,5.357184413644973
2,22,female,149,45,45,same,valid,anti,5,2,2,0.6349341460020241,1,f,same,0.7100839716249538,0.07927418152074756,0.5050924354977724,0.03549117723855488,0.353286349591599,1.0010766662026072,4.472916889836142
2,22,female,150,105,155,change,valid,clock,2,2,2,0.648128037645165,1,f,same,0.687906957053201,0.07557621060218617,0.505390386913632,0.035302271550790465,0.3533014235599694,1.0011029654665435,4.460780741754888
2,22,female,151,135,135,same,valid,clock,5,2,2,0.7552664275785901,1,j,change,1.0135409136364615,0.07209109610533926,0.5010285577932336,0.03535454935558846,0.3532869910370664,1.0010545363343226,4.951600695070283
2,22,female,152,135,185,change,catch,clock,1,0,2,0.927974334484361,1,f,same,1.0053932734181217,0,0.5053413163359437,0.035310610341639403,0.35329180187818565,1.001101041129914,5.191815604956673
2,22,female,153,45,45,same,valid,anti,1,1,3,0.8085509811230622,1,f,same,0.4966994423914457,0.41266320099103826,0.5052043677303573,0.03533306093277133,0.35331168668722057,1.0010417074252018,4.473068912410099
2,22,female,154,75,75,same,catch,clock,2,0,2,0.6766332323911683,1,j,change,1.0229685582680759,0,0.5052210453125099,0.03533241948730392,0.35325812599148776,1.0011055312481858,4.802855266171036
2,22,female,155,135,185,change,catch,clock,3,2,2,0.4147759527229482,1,f,same,0.8849025548131522,0,0.5053086026173332,0.03535519080105587,0.3532545980413033,1.001081477043499,4.48500204300376
2,22,female,156,135,85,change,valid,anti,1,0,2,0.913159830889299,1,j,change,0.9489354891886705,0,0.5053397127223889,0.03532504286454241,0.35326903056420633,1.0010808355980316,4.967034514255829
2,22,female,157,15,15,same,valid,clock,1,0,1,0.5960625511952458,0,j,change,0.8081952996158179,0,0.5060225314132367,0.03532728792379203,0.3533181011416673,1.0010529327207678,4.520876483903976
2,22,female,158,105,155,change,valid,clock,3,0,2,1.818835276164691,1,j,change,0.8329377753004792,0,0.5053525416315097,0.035327608646412045,0.3533139317462428,1.0010571021161923,5.838959344545401
2,22,female,159,105,55,change,catch,anti,2,1,1,0.5232228913923791,0,j,change,1.6997358527598863,0,0.5055850656101484,0.035306761669062325,0.353312648855308,1.0010680066891382,5.285785440342579
2,22,female,160,135,185,change,valid,clock,2,1,3,0.9456682867441941,1,j,change,1.337738353114446,0.40963061729931133,0.5057422197476171,0.035306440946214934,0.35333606161452735,1.0010510083843656,5.392182319325684
2,22,female,161,15,15,same,valid,clock,1,1,4,0.36239808233449367,1,f,same,1.2208695562928824,0.40676116623883074,0.5050629290067263,0.03540618571514642,0.35324978720041145,1.0010837221027487,4.660697161411463
2,22,female,162,75,125,change,valid,clock,5,1,4,0.6198470280869515,1,j,change,1.0452562221812514,0.40402375965509413,0.505850944752865,0.03535070068278401,0.35331168668722057,1.001043311038984,4.73281102567762
2,22,female,163,75,125,change,valid,clock,4,0,2,1.245137041614953,1,j,change,0.7569822941809434,0,0.5052521554171108,0.035288480473354866,0.353327081378211,1.0010721760845627,5.1559225621383575
2,22,female,164,75,25,change,valid,anti,3,1,4,0.48692702082576034,1,j,change,1.1191917915507474,0.4012136563940355,0.5054962254141628,0.03526731277338513,0.35335690859210445,1.0010612715116167,4.720877253638491
2,22,female,165,135,135,same,valid,clock,2,0,3,0.3533989232696513,1,j,change,0.9567614445095387,0,0.505025083724604,0.03535519080105587,0.3533222705373191,1.0010705724710078,4.472885459008921
2,22,female,166,45,355,change,valid,anti,5,1,3,3.6468823505640557,1,j,change,2.1384543986800963,0.3984566553960142,0.5052082164031617,0.03533883394197801,0.3532802558597723,1.001069289580073,8.936030889447466
2,22,female,167,75,75,same,valid,clock,3,2,2,1.0316203746169776,1,f,same,1.0329260368484938,0.06848121273658919,0.5055257319054363,0.035345889842119504,0.35331040379628575,1.0010731382528775,5.285560292986702
2,22,female,168,135,135,same,valid,clock,3,2,4,0.3731163152292538,1,f,same,1.2243545294709293,0.06510703576193155,0.5057422197476171,0.03533402310108613,0.3532998199461872,1.0010510083841382,4.743910277175019
2,22,female,169,165,115,change,catch,anti,4,2,2,0.3875799481584181,1,j,change,1.1358777122718493,0,0.5057928939388603,0.03531926985556311,0.35329597127338275,1.0010805148754116,4.626882401879584
2,22,female,170,105,55,change,valid,anti,3,0,2,0.41289298957849496,1,f,same,1.2199147647274913,0,0.5053583146407163,0.0353304951509017,0.3533219498146991,1.0010394623661796,4.909154003998765
2,22,female,171,15,325,change,valid,anti,1,1,4,0.6792166539767095,1,j,change,0.7574146284200651,0.3958612825216189,0.5046973050950783,0.03538020717405743,0.3532722377915434,1.0010478011570285,4.578531526082088
2,22,female,172,105,155,change,valid,clock,2,1,4,0.441377978792616,1,f,same,0.9443542857216016,0.3933581647162557,0.5046116721264298,0.035307403114529734,0.3533084794601109,1.0010474804344085,4.543250101508647
2,22,female,173,45,45,same,valid,anti,3,0,3,0.6694169709792277,1,j,change,0.6344331770985718,0,0.5049715230288712,0.03532696720094464,0.35331778041904727,1.0010785905390094,4.425724785259945
2,22,female,174,15,65,change,valid,clock,2,1,4,0.21193742827836104,1,j,change,1.9699258296616335,0.3907650694099749,0.5052928872037228,0.03532632575547723,0.3532882739280012,1.001062875125399,5.261973702019077
2,22,female,175,105,105,same,valid,clock,3,0,3,0.3799910069346879,1,j,change,1.1321563664425867,0,0.5055096957689784,0.03530387516457267,0.3533062344008613,1.0010830806572812,4.684904671583126
2,22,female,176,45,45,same,valid,clock,4,2,4,0.5852214814951822,1,f,same,0.7040165390296806,0.061901970945916485,0.5055443338235364,0.035313496846129055,0.35328891537324125,1.0010939852299998,4.40274468097391
2,22,female,177,45,45,same,valid,anti,1,2,4,0.4994339243826289,1,f,same,0.6386869226591898,0.058562812463166136,0.505002312410852,0.03533594743748836,0.35327736935528264,1.001069610302693,4.248642861770577
2,22,female,178,45,355,change,valid,anti,3,0,3,0.46265119671261346,1,j,change,0.713452201729524,0,0.5055982152421166,0.03532215636005276,0.3533132903007754,1.0010747418664323,4.3317992096108355
2,22,female,179,15,325,change,catch,anti,2,1,2,1.168596562237326,1,j,change,0.6352295316357868,0,0.5055295805780133,0.03530066793723563,0.35332451559634137,1.001058705729747,4.9088380921102726
2,22,female,180,165,165,same,valid,anti,5,2,3,0.9206746851625667,1,f,same,0.6993057635797868,0.05543052569123924,0.5057823100887617,0.03531221395542161,0.35329725416431756,1.0010978339028043,4.803159311318495
2,22,female,181,45,95,change,valid,clock,3,0,3,0.55102345830187,1,j,change,0.7209776398526628,0,0.5054901316823361,0.03528687685980003,0.35334472112845106,1.0010474804341811,4.425855640133705
2,22,female,182,105,155,change,catch,clock,4,1,2,0.4822621087262178,1,j,change,0.8792924728297749,0,0.5055517104465252,0.03533498526917356,0.3533264399327436,1.0010680066889108,4.484871508852848
2,22,female,183,105,155,change,valid,clock,1,2,2,0.5709958248314706,1,f,same,2.0747559781111704,0.05244955195439899,0.505683527488145,0.03531702479631349,0.3533078380144161,1.0010445939299188,5.792042420071084
2,22,female,184,165,215,change,valid,clock,2,2,2,0.5458825936718767,1,j,change,0.8925999003192828,0.04932479567380055,0.5058243247665359,0.03532023202365053,0.3533142524690902,1.0010410659797344,4.555909989807333
2,22,female,185,105,105,same,valid,clock,1,2,3,1.1277069800171375,1,f,same,1.4918036099268193,0.04637248874676314,0.5053009052719517,0.03528976336451706,0.35331585608264504,1.001092381616445,5.779786000965942
2,22,female,186,45,355,change,valid,anti,4,2,3,2.5913164962453266,1,j,change,1.1421811967959457,0.0435705084188443,0.505576085373832,0.0353304951509017,0.35332900571461323,1.001074741866205,6.852689484592247
2,22,female,187,135,135,same,valid,clock,2,1,4,0.9225560446932377,1,f,same,0.8689812370789696,0.38823247505039066,0.5049692779698489,0.03534556911927211,0.3533062344008613,1.0010458768206263,4.919843692570566
2,22,female,188,105,55,change,valid,anti,5,2,3,1.4277328302691785,1,f,same,1.3659427099403274,0.04063919405648453,0.5057935353843277,0.035310931064486795,0.3533334958328851,1.001040745256887,5.886983724604534
2,22,female,189,165,215,change,catch,clock,4,1,4,0.5156095752411147,1,f,same,0.633858441967277,0,0.5045523384214903,0.03532504286454241,0.3532735206822508,1.0010798734299442,4.295237780624348
2,22,female,190,15,15,same,valid,clock,2,0,4,0.592209709046756,1,j,change,0.8373243000708044,0,0.5059227866443052,0.035328250091879454,0.35330366861899165,1.0010760247573671,4.556064257440312
2,22,female,191,105,105,same,valid,clock,1,0,3,3.7775884088241583,1,j,change,1.7253109246501026,0,0.5050645326205085,0.0353657746513818,0.3532754450188804,1.0010647994615738,8.582768273337706
2,22,female,192,135,185,change,valid,clock,4,1,3,1.467915860316225,1,j,change,1.0013014928360917,0.3858427424625026,0.5052556833670678,0.03532600503262984,0.3533059136780139,1.0010776283706946,5.556440144479211
2,22,female,193,15,65,change,valid,clock,1,1,4,1.1717515117265975,1,j,change,1.6176536053405925,0.3835323371420838,0.5054295150866892,0.03530900672808457,0.3533203462009169,1.0010638372937137,5.850932886203054
2,22,female,194,165,165,same,valid,anti,2,0,3,1.994516282772338,1,j,change,0.8848544464037786,0,0.5055225246780992,0.03530419588719269,0.35333189221933026,1.0010532534433878,5.980960615890353
2,22,female,195,135,135,same,valid,anti,4,2,4,0.7536021973355673,1,f,same,0.7659631720503057,0.03781131104027807,0.505002312410852,0.035310931064486795,0.35328570814635896,1.0010664030751286,4.649685146496267
2,22,female,196,135,185,change,catch,clock,3,0,4,2.3192785149767587,1,j,change,1.1216533384990726,0,0.5050356675747025,0.035337551051270566,0.35331681825073247,1.00103657586169,6.603965479971066
2,22,female,197,75,25,change,valid,anti,1,1,4,1.1049834539144285,1,j,change,2.1986386603025494,0.3811376922844612,0.5060173998494975,0.03534332406024987,0.3533184218645147,1.0010760247573671,6.4521257181786495
2,22,female,198,135,85,change,valid,anti,3,1,4,0.5132407171613522,1,j,change,1.1646446167651447,0.37876977852687005,0.5055982152421166,0.035347493455446966,0.35328987754155605,1.001047159711561,4.82693160074632
2,22,female,199,45,45,same,catch,anti,2,1,3,1.127886264022436,1,f,same,0.7505335222604117,0,0.5051379781252763,0.03531702479631349,0.3533155353602524,1.0010651201846485,5.0149145690866135
2,22,female,200,15,15,same,valid,clock,1,2,3,0.8748010717272336,1,j,change,1.2276422581703628,0.03514411734091483,0.5052877556399835,0.035328250091879454,0.3533155353602524,1.0010721760845627,5.238118345404018
2,22,female,201,105,105,same,valid,clock,4,2,3,1.784909225845695,1,f,same,1.8534550497470264,0.03258307072377853,0.5107464564953261,0.03531413829205121,0.3533190633097547,1.0010718553617153,6.833828743042886
2,22,female,202,75,125,change,valid,clock,3,0,3,2.8899295628743857,1,f,same,1.4675319552093242,0,0.5053493344039452,0.035326325755249854,0.3533020650056642,1.001106814139348,7.534911631266368
2,22,female,203,75,75,same,catch,anti,4,0,2,0.8194962857101018,1,j,change,0.8321083863220338,0,0.5056543417194916,0.03530579950120227,0.3533104037960584,1.001059667898062,4.790839709835836
2,22,female,204,105,155,change,catch,clock,3,1,2,0.593201704448802,1,j,change,1.1731386375313377,0,0.5058775647394214,0.035373792719383346,0.3532735206822508,1.0010869293300857,4.944934152416408
2,22,female,205,15,65,change,valid,clock,5,2,2,1.2418884410885767,1,j,change,0.897762894817788,0.029875468443492204,0.5054205348496907,0.03534813490114175,0.35332002547784214,1.0010320857431907,5.32122850917176
2,22,female,206,15,15,same,valid,anti,3,2,2,0.6324998604854954,1,j,change,1.2835535308686303,0.027287057821207494,0.5052258561531744,0.03534172044646766,0.3532953298281427,1.001047159711561,5.014801353962866
2,22,female,207,75,25,change,valid,anti,5,1,2,1.490970051552722,1,f,same,1.0500394809678255,0.37653586756313107,0.5048387438187092,0.03533434382370615,0.3533136110236228,1.0010763454797598,5.732548995207708
2,22,female,208,105,105,same,catch,anti,1,2,2,1.7914869283035841,1,j,change,0.8613166052909946,0,0.5054423439955826,0.035356473691990686,0.3532741621279456,1.001077949093542,5.815790976016615
2,22,female,209,45,45,same,valid,anti,3,1,4,1.2041672787127027,1,f,same,2.0526315620672904,0.37438573592836877,0.5051100752480124,0.03532953298281427,0.3532850667006642,1.0010952681213894,6.498737956059358
2,22,female,210,15,15,same,valid,anti,4,0,2,0.5264237042320019,1,f,same,1.313052324630462,0,0.5049753717016756,0.03530259227318311,0.3533075172917961,1.0010789112616294,5.037720841653481
2,22,female,211,165,215,change,valid,clock,5,2,3,0.9259393487659509,1,f,same,0.586781476851229,0.024830155456711744,0.5056642841245775,0.03528912191904965,0.3533415139013414,1.0010734589754975,4.661820973855356
2,22,female,212,15,325,change,catch,anti,4,2,2,1.000237334819758,1,j,change,0.6615900534902721,0,0.5053589560861838,0.03536064308764253,0.3532946883829027,1.001042990316364,4.7909477933953895
2,22,female,213,135,135,same,valid,clock,5,1,4,0.5951465670800644,1,f,same,0.603666245664499,0.37217174344219583,0.505465756754802,0.03529264986855196,0.3533274021010584,1.001068968857453,4.307832882931507
2,22,female,214,165,165,same,valid,clock,5,1,4,0.7283122479520898,1,f,same,2.639988736217674,0.3699483445723525,0.5058230418753737,0.03535871875146768,0.35332483631918876,1.0010680066889108,6.522967916822381
2,22,female,215,135,135,same,valid,anti,2,0,4,0.22100329767090443,1,f,same,1.1201026441026443,0,0.5052550419218278,0.03532696720094464,0.3532985370552524,1.0010997582389791,4.4379051930782225
2,22,female,216,135,85,change,catch,anti,3,0,3,0.6000231561811233,1,j,change,0.7822918076512906,0,0.5051591458259281,0.03532375997383497,0.35330783801418875,1.0010789112616294,4.437919625601353
2,22,female,217,45,95,change,valid,clock,5,0,4,0.7143832598130757,1,j,change,1.1027460921536658,0,0.5050003880746772,0.03533626816033575,0.35332194981447174,1.001084363548216,4.907931408954028
2,22,female,218,105,105,same,valid,clock,4,1,4,0.5480959012279527,1,f,same,0.5731167642411492,0.367820036580914,0.5057585766071497,0.035352945742033626,0.3533120074098406,1.0010635165708663,4.249696756658977
2,22,female,219,135,135,same,valid,clock,1,1,4,2.4858192445180975,1,f,same,0.6286717139873872,0.36579206518086266,0.5051084716342302,0.03533723032796843,0.35327031345514115,1.0010917401709776,6.321678162438275
2,22,female,220,165,165,same,valid,anti,4,1,4,0.3256673117466562,1,f,same,1.0644569298237911,0.36382273758554795,0.5048708160916249,0.03529264986900671,0.3533360616143,1.0010708931936279,4.5781873905934845
2,22,female,221,105,105,same,valid,clock,2,0,3,1.538471332840345,1,f,same,1.3618217435900988,0,0.5056059125877255,0.035319911301030515,0.35331200741029534,1.0010619129570841,6.0627522885174585
2,22,female,222,75,75,same,valid,clock,4,2,3,0.5625434980202044,1,f,same,0.7620561277603883,0.022268903260988848,0.5058984117167711,0.03533306093322608,0.3533030271737516,1.0010869293300857,4.473928449324831
2,22,female,223,135,85,change,valid,anti,1,1,4,0.3020306880334829,1,j,change,0.8502308241481842,0.36177955803197087,0.5046209730858209,0.0353263257557046,0.3533395895647118,1.0010567813933449,4.24841579007807
2,22,female,224,75,75,same,valid,clock,5,0,3,1.0228774730126133,1,f,same,0.7789562912648762,0,0.5055719159781802,0.035302271550790465,0.3533283642691458,1.001070251747933,5.049933642467295
2,22,female,225,15,15,same,catch,clock,4,2,3,0.567182431578658,1,f,same,0.6189919812900371,0,0.5056937906156236,0.03532696720094464,0.3532959712738375,1.0010606300661493,4.355756235330773
2,22,female,226,105,55,change,valid,anti,2,0,3,0.5952267477628084,1,f,same,0.6371904304037344,0,0.5055234868459593,0.035328570814726845,0.35328634959205374,1.0010968717347168,4.4021539097066125
2,22,female,227,75,25,change,valid,anti,1,0,2,0.6181972303670591,1,j,change,0.9490111797531426,0,0.5057993083937617,0.03532600503285721,0.3533116866869932,1.0010734589754975,4.661852725405424
2,22,female,228,15,15,same,valid,anti,5,1,4,0.7402950905689067,1,f,same,0.58247866071315,0.35972295739471977,0.5054490791731041,0.03530515805550749,0.35333285438764506,1.0010545363343226,4.401890596345311
2,22,female,229,165,165,same,valid,clock,4,2,3,0.8669594009925277,1,j,change,1.3760595877174637,0.01975094303295649,0.506019324186127,0.035321514914812724,0.3533081587374909,1.0010805148754116,5.356930401243517
2,22,female,230,165,115,change,valid,anti,1,0,4,1.2211665455401999,1,f,same,0.6488342690954596,0,0.5054792271093902,0.035274368673071876,0.3533460040189311,1.001085004993456,5.0269150514536705
2,22,female,231,45,45,same,valid,clock,4,1,4,0.877613168618609,1,f,same,1.312371109553169,0.35776176439008955,0.505190576653149,0.035281424573440745,0.3533225912601665,1.0010641580161064,5.343889173619573
2,22,female,232,75,125,change,catch,clock,1,0,2,1.3635218947788417,1,j,change,1.4633073954173597,0,0.5054048194360803,0.03532696720094464,0.35328987754155605,1.001102644744151,5.9454659107018415
2,22,female,233,105,105,same,valid,anti,2,2,2,3.1990446952781895,1,f,same,1.4413728472286493,0.017342778494978894,0.5052127065214336,0.03533145731944387,0.3532754450188804,1.0010747418664323,7.853044203930949
2,22,female,234,15,65,change,valid,clock,1,0,2,0.6152154711512594,1,j,change,1.0270981841317735,0,0.5052697951673508,0.035337230328423175,0.3533007821142746,1.00107249680741,4.778774762200101
2,22,female,235,45,45,same,catch,clock,4,2,2,0.8019187558011254,1,f,same,1.4189289913465473,0,0.5058480582483753,0.03533530599224832,0.35329757488716496,1.00107313825265,5.391982829787594
2,22,female,236,105,105,same,valid,clock,5,2,3,1.2843274348147133,1,j,change,1.8178785602626704,0.015051740793752044,0.5058153445297648,0.035312534678269,0.3533347787238199,1.001066082352736,6.252184282148846
2,22,female,237,165,215,change,valid,clock,4,0,1,0.9337630590280241,0,j,change,1.4348038042844564,0,0.5049971808471128,0.035328250091879454,0.3533046307875338,1.0010936645071524,5.496795659209965
2,22,female,238,165,215,change,catch,clock,2,2,2,0.6754298807104533,1,f,same,0.6992640696253147,0,0.5059683292720365,0.03528880119620226,0.3533453625736911,1.001066723797976,4.567934526378849
2,22,female,239,45,95,change,catch,clock,2,2,3,0.9696288404143161,1,j,change,1.4332126988238088,0,0.5056415128105982,0.03534845562398914,0.3532889153734686,1.0010529327205404,5.533211159354778
2,22,female,240,165,165,same,valid,anti,1,0,3,1.7498519864602713,1,j,change,1.0193835195982501,0,0.5056434371467731,0.03533787177366321,0.3532998199461872,1.0010647994618012,5.910131887600528
2,22,female,241,135,185,change,valid,clock,4,2,3,0.6806284754316039,1,j,change,0.5044904389346812,0.012838135676854323,0.5054551729044761,0.03534204116931505,0.35328538742351157,1.0010580642842797,4.284872022009495
2,22,female,242,45,355,change,valid,anti,4,0,3,0.5983153076467715,1,j,change,1.0044423305253076,0,0.504824632018881,0.03532728792379203,0.3532815387507071,1.0010936645071524,4.7074867589622045
2,22,female,243,165,165,same,valid,clock,5,2,2,3.47785730276064,1,j,change,1.2135294959075509,0.01048846851824331,0.5055321463601103,0.035337230328423175,0.35329821633285974,1.0010708931936279,7.888560397542278
2,22,female,244,75,75,same,catch,clock,2,0,3,2.5162080438544763,1,j,change,2.5121432039813953,0,0.5049288669056295,0.03529746070989859,0.3533290057148406,1.001089174389108,8.182483856421186
2,22,female,245,105,55,change,catch,anti,4,0,4,0.7463961990511052,1,j,change,1.008720130290385,0,0.5055655015239608,0.03531734551916088,0.35330976235081835,1.0010715346388679,4.838047529825872
2,22,female,246,105,55,change,valid,anti,4,1,4,0.9833461515518138,1,j,change,0.7373136520759545,0.35588883563088647,0.5059878933584514,0.0352910462552245,0.35333542016905994,1.001070251747933,4.921180144184291
2,22,female,247,15,15,same,valid,anti,4,1,4,0.2729231760017683,1,f,same,0.9073002266227377,0.35406860454644407,0.5054250249686447,0.035335305991793575,0.35326421972331445,1.0011013618527613,4.343852290505765
2,22,female,248,135,185,change,valid,clock,1,1,4,0.3386068702657212,1,j,change,0.9727382472760837,0.3521815466883772,0.5051360537891014,0.03533145731898912,0.35333189221955763,1.0010368965845373,4.460913841687216
2,22,female,249,105,155,change,valid,clock,5,1,4,0.3501878473025499,1,j,change,1.7116003486894442,0.35027888035155785,0.5053781994497513,0.03529970576892083,0.3533164975283398,1.0010593471752145,5.226752573319118
2,22,female,250,135,85,change,valid,anti,2,2,3,1.159986760565971,1,j,change,0.6829675062972456,0.008202503276432405,0.5055061678190214,0.03533113659659648,0.35329917850094716,1.0010766662026072,5.014949207141399
2,22,female,251,75,25,change,catch,anti,3,2,3,1.0609517511143167,1,f,same,1.2591535870592452,0,0.508427310438492,0.03530900672831194,0.3533116866869932,1.0010689688569983,5.500661650990878
2,22,female,252,15,15,same,valid,clock,2,1,3,1.5653725932165798,1,f,same,0.6829626954563537,0.34842616849468544,0.5055282976873059,0.03529425348233417,0.35330719656940346,1.0011023240208488,5.4149414456510385
2,22,female,253,15,65,change,catch,clock,1,1,2,1.6140624729387127,1,j,change,0.9059487010408702,0,0.505118093316014,0.035340437555532844,0.353341193178494,1.001077949093542,5.674256356243404
2,22,female,254,105,155,change,catch,clock,4,2,3,0.89769393943061,1,f,same,0.7790925984249952,0,0.5048964739103212,0.035331778041836515,0.35328442525542414,1.0010817977663464,4.7904760102605906
2,22,female,255,75,75,same,valid,anti,2,2,3,2.2074178035754812,1,j,change,1.0904627323398017,0.006034749875733769,0.5057069402473644,0.035307403114529734,0.35333317511049245,1.0010522912753004,6.428191463772237
2,22,female,256,15,325,change,catch,anti,4,1,4,1.3808515060177342,1,j,change,0.7252855875540263,0,0.5053191864676592,0.03531125178687944,0.35330976235081835,1.0010705724707805,5.309566068561708
2,22,female,257,15,15,same,valid,anti,2,1,4,0.25049952565132116,1,f,same,0.7531846163415139,0.34666871503387664,0.505306999003551,0.03532953298281427,0.3533120074098406,1.0010763454802145,4.119133420013895
2,22,female,258,15,65,change,valid,clock,4,2,3,1.4147445218955,1,j,change,0.7919009813472258,0.003949058273088946,0.5059692914401239,0.03531862840964095,0.3533107245193605,1.0010615922342367,5.356969208693499
2,22,female,259,75,75,same,valid,clock,4,1,3,0.4163628887881714,1,f,same,0.6587888611711605,0.3449705873178464,0.5046424615084106,0.03533177804229126,0.3533014235599694,1.001059026452367,4.237088825442697
2,22,female,260,135,185,change,valid,clock,5,1,4,1.1919419697123885,1,j,change,1.2452390314429067,0.3432234419691146,0.5047688262638985,0.03533434382370615,0.35332034620068953,1.0010526119981478,5.5916205413927855
2,22,female,261,165,115,change,catch,anti,1,2,3,3.1053497192710893,1,j,change,0.9087720232282663,0,0.5047181520726554,0.03525961542754885,0.3533835285788882,1.0010529327205404,7.145632814810142
2,22,female,262,135,185,change,valid,clock,4,0,3,0.5845380213590943,1,f,same,1.521425561216347,0,0.5056995636246029,0.03531702479676824,0.35330815873703614,1.0010718553617153,5.379963745502664
2,22,female,263,165,215,change,valid,clock,3,2,4,0.6320033817005424,1,f,same,0.6948762619636,0.0017486663599027286,0.5056690949650147,0.03532183563720537,0.35330174428236205,1.0010490840481907,4.4968604452014915
2,22,female,264,75,125,change,valid,clock,5,0,3,0.6173033761197075,1,j,change,1.5900813930143158,0,0.5053791616178387,0.035351021405404026,0.35330334789614426,1.0010503669391255,5.344860322044042
2,22,female,265,135,185,change,valid,clock,2,2,3,1.366293259883605,1,j,change,1.2379672849983763,0,0.5051973118302158,0.035325042864769785,0.3533139317464702,1.0010420281478218,5.733001534978939
2,22,female,266,45,45,same,catch,anti,1,0,2,1.0824036115946,1,j,change,1.483292911578701,0,0.5055100164918258,0.03530708239213709,0.35332483631918876,1.0010426695935166,5.685941888889829
2,22,female,267,45,45,same,valid,clock,3,0,2,0.5926879066360016,1,f,same,0.7441113703266637,0,0.5059997600992574,0.03543184353338802,0.3531660785679378,1.0010647994618012,4.5441558224965775
2,22,female,268,45,45,same,valid,clock,2,0,2,0.4471926818769134,1,f,same,0.6875894415516086,0,0.5056395884744234,0.035307723837377125,0.35330944162797095,1.0010917401709776,4.284924299814065
2,22,female,269,45,45,same,valid,clock,5,0,2,0.3924712905045453,1,j,change,0.8764409270424949,0,0.5054304772543219,0.03532953298281427,0.35326421972331445,1.0010946266752399,4.390933104294618
2,22,female,270,135,85,change,valid,anti,2,0,2,0.8800602830442585,1,j,change,0.5764346408768688,0,0.504790314686943,0.035319911301030515,0.35333670305999476,1.0010426695935166,4.590545799526353
2,22,female,271,75,75,same,valid,clock,1,0,2,0.3395815466401473,1,j,change,0.92951957659443,0,0.5050186692701573,0.03534973851446921,0.35330334789614426,1.0010846842706087,4.4848169859888
2,22,female,272,165,165,same,valid,anti,5,0,2,2.6703833085625774,1,j,change,2.1129219829131216,0,0.5050359882970952,0.03535519080105587,0.35329565055053536,1.0010959095661747,7.934979239617405
2,22,female,273,105,155,change,catch,clock,3,2,2,0.3875267081853053,1,f,same,0.9634799442455915,0,0.505404819436535,0.03529617781896377,0.3533081587374909,1.001087250052933,4.637565675996939
2,22,female,274,45,355,change,valid,anti,1,2,3,1.3928744389754684,1,j,change,0.6516008233597859,0,0.5060122682857582,0.035307723837377125,0.3533036686194464,1.0010994375165865,5.227135516257931
2,22,female,275,135,135,same,valid,clock,2,2,2,0.5026119659082724,1,f,same,0.667652033799186,0,0.5054157240092536,0.03532023202387791,0.3533097623512731,1.00105549850241,4.355538785320277
2,22,female,276,15,15,same,valid,clock,4,0,2,0.64635123372409,1,f,same,2.4894126219787722,0,0.5050821723702938,0.0353048373326601,0.35325780526864037,1.0011080970302828,6.321851352712656
2,22,female,277,135,85,change,valid,anti,3,0,2,0.5215054211762435,1,j,change,0.9332970489022046,0,0.5052967358765272,0.03532600503285721,0.3533107245193605,1.0010436317611493,4.578841344238754
2,22,female,278,15,325,change,valid,anti,2,1,4,0.41437889798407923,1,j,change,0.7238458632223228,0.34147669295317784,0.5056059125877255,0.03530355444172528,0.3533469661874733,1.0010237469523418,4.331921725693519
2,22,female,279,45,95,change,valid,clock,5,2,3,0.8221390410003551,1,f,same,1.4831585287547568,0,0.5054747369913457,0.03534011683268545,0.3532844252549694,1.0010782698163894,5.556937585432479
2,22,female,280,135,135,same,catch,clock,4,0,3,0.6120435233574426,1,f,same,1.3583220171663015,0,0.5051273942754051,0.035336909605575784,0.3532966127186228,1.0010798734297168,5.178916457502055
2,22,female,281,105,155,change,valid,clock,5,0,4,0.38784197862833025,1,f,same,0.688824865505012,0,0.5061925144595989,0.03535679441483808,0.35331072451890577,1.0010776283711493,4.297139024964508
2,22,female,282,105,105,same,valid,clock,5,0,2,0.6254115674423701,1,f,same,0.9838237076960468,0,0.5055106579370658,0.03528366963246299,0.35331938403305685,1.0010962302894768,4.790911231004429
2,22,female,283,165,165,same,valid,clock,2,1,4,0.3381960244491893,1,f,same,1.101466087740846,0.33970984369153207,0.505547220328026,0.03530163010509568,0.3532821801964019,1.0011202844939362,4.614746253797875
2,22,female,284,105,105,same,valid,anti,3,0,3,0.8151918659582407,1,j,change,1.0517335384247417,0,0.504736112545288,0.035326646478097246,0.35328282164164193,1.0010965510118695,5.025395467161616
2,22,female,285,15,325,change,valid,anti,3,1,4,0.6007528003906373,1,j,change,0.9952433611997549,0.3380235768166318,0.5058009120070892,0.03532375997383497,0.353286349591599,1.0010619129570841,4.732748164022723
2,22,female,286,135,135,same,catch,anti,1,1,3,0.8926204265740125,1,j,change,0.7366510389169889,0,0.5050064818060491,0.03530515805550749,0.3532994992233398,1.0010952681209346,4.790644389693625
2,22,female,287,45,95,change,catch,clock,3,1,3,0.8786510273712338,1,j,change,0.8735829668007682,0,0.5056087990919877,0.035340758278380235,0.3532786522459901,1.0010628751251716,4.909094349571205
2,22,female,288,15,65,change,catch,clock,4,1,2,0.5304510195455805,1,j,change,0.7595038162799028,0,0.5055799340466365,0.03533787177366321,0.35326870984135894,1.0010978339028043,4.4140459877903595
2,22,female,289,105,105,same,valid,anti,4,1,3,0.6652065229873187,1,f,same,0.8155789782927059,0.3364122758239771,0.5060090610586485,0.03529457420563631,0.3533132903007754,1.0010888536667153,4.627165600049466
2,22,female,290,45,45,same,catch,anti,4,1,3,0.3008270156301478,1,f,same,0.7763703038976928,0,0.5049471481011096,0.035314138291596464,0.35333189221955763,1.001057743561887,4.224782694314399
2,22,female,291,15,325,change,valid,anti,3,2,2,0.43952067346617696,1,f,same,0.9397333126362355,0,0.5061857792825322,0.03535037996016399,0.3533043100642317,1.0010766662026072,4.544127598896466
2,22,female,292,15,15,same,catch,clock,5,0,2,0.4579471564402411,1,f,same,1.002736085604738,0,0.5055003948095873,0.03532279780574754,0.3533229119830139,1.0010461975434737,4.590575626740247
2,22,female,293,75,125,change,valid,clock,3,2,2,0.5573307914987709,1,j,change,2.1078648269158293,0,0.5061825720554225,0.035103423458622274,0.3532908397100982,1.0011080970302828,5.792148258571615
2,22,female,294,135,135,same,valid,anti,5,0,2,0.4062691030476344,1,j,change,0.7633175302553354,0,0.5060007222677996,0.03536096381048992,0.3533283642691458,1.0010737796978901,4.331882918243082
2,22,female,295,105,105,same,valid,clock,3,1,4,1.2946980042706855,1,f,same,0.5390928934898511,0.33484938569758105,0.5059240695354674,0.035293291314246744,0.35333253366479767,1.001075062588825,4.991936709859601
2,22,female,296,15,325,change,valid,anti,5,1,4,0.33183673416988313,1,j,change,0.812866946892882,0.33323709471926244,0.5050889075478153,0.03532921225996688,0.3533197047554495,1.0010368965845373,4.284675739698741
2,22,female,297,135,85,change,valid,anti,2,1,4,0.29646390361904196,1,j,change,0.7098434295780862,0.3316230401426776,0.5050882661025753,0.035326646478097246,0.3533148939145576,1.0010651201846485,4.118903461816899
2,22,female,298,135,185,change,valid,clock,5,2,2,0.6652456511601486,1,j,change,0.9984820193217274,0,0.5059243902578601,0.035359680919100356,0.35330976235081835,1.001030161406561,4.79186955051955
2,22,female,299,75,75,same,valid,clock,1,2,1,0.3201948198147875,0,j,change,0.972755245580629,0,0.5051350916205593,0.035338833941750636,0.35330847945988353,1.0010445939296915,4.401870390813656
2,22,female,300,165,165,same,catch,clock,3,2,2,0.3552552664277755,1,f,same,1.4881807259748712,0,0.5056678120745346,0.035351021405858774,0.3533222705373191,1.001067365243216,4.979896137151627
2,22,female,301,165,115,change,catch,anti,5,2,2,0.5621958345814164,1,j,change,0.9828323537394681,0,0.5064356222887909,0.0352929705918541,0.3533046307870791,1.001093343784305,4.733095827461511
2,22,female,302,165,165,same,valid,clock,4,0,1,0.5278393743597007,0,f,same,1.0878959883361858,0,0.5051177725931666,0.035316383351073455,0.35333093005101546,1.0010850049939108,4.81452796990834
2,22,female,303,105,105,same,catch,clock,1,1,2,0.27101551720670614,1,f,same,1.1561387292581458,0,0.5044994191712249,0.035328250091879454,0.3532796144140775,1.0010619129575389,4.601112330570231
2,22,female,304,165,165,same,valid,anti,1,1,4,0.4833458308289664,1,f,same,0.6286171911233396,0.329982535938274,0.5060209277999093,0.035343003337857226,0.3533062344008613,1.0010609507889967,4.28488966175928
2,22,female,305,75,75,same,valid,clock,4,0,3,0.7507868932166275,1,j,change,1.1683435120035028,0,0.5057435026387793,0.03528238674198292,0.35332515704203615,1.001092060893825,5.097869823775909
2,22,female,306,45,45,same,valid,anti,2,2,2,0.5476051954519789,1,f,same,0.7301708361692363,0,0.504637009221824,0.03532921225996688,0.35329308476912047,1.0010699310250857,4.413349698745151
2,22,female,307,165,165,same,catch,clock,5,1,2,0.29978819470943563,1,j,change,0.7082965838540076,0,0.5050850588750109,0.03538052789690482,0.35326037105051,1.0010410659797344,4.1314639260695
2,22,female,308,135,135,same,valid,anti,4,0,2,0.38768161726375183,1,f,same,0.9756401465315321,0,0.505309244063028,0.03531574190537867,0.3532953298281427,1.001083722102976,4.55502062567848
2,22,female,309,75,75,same,valid,anti,1,2,2,1.7859955137305406,1,f,same,0.9331293109144099,0,0.5056213072784885,0.03538501801494931,0.3532831423644893,1.00107313825265,5.8987843967111075
2,22,female,310,165,115,change,valid,anti,5,1,4,0.5241443277936924,1,f,same,0.8451781582689364,0.3284039097971954,0.5049641464061096,0.035333702378466114,0.35327961441453226,1.0010599886209093,4.542818408714993
2,22,female,311,75,75,same,catch,clock,1,1,1,0.5873597399322534,0,j,change,1.1613177598928814,0,0.5059029018352703,0.03534717273305432,0.35329244332388043,1.0010901365571954,4.908904802438428
2,22,female,312,15,15,same,valid,clock,4,2,4,0.5367958773017563,1,f,same,0.836483044351553,0,0.5060382468268472,0.035361284532882564,0.35330495150992647,1.0010741004207375,4.5320822153476
2,22,female,313,105,155,change,valid,clock,2,0,2,0.4259265198566027,1,j,change,1.1867712778685018,0,0.505917334357946,0.035352945742033626,0.3533164975278851,1.0010737796983449,4.779883179953231
2,22,female,314,15,15,same,valid,clock,3,1,4,0.8580221414140397,1,f,same,0.9040567576598733,0.32689868558841717,0.5046168036897143,0.03536224670142474,0.35327833152359744,1.0010907780028901,4.955162641703737
2,22,female,315,165,165,same,valid,clock,1,2,3,0.8628560743923117,1,j,change,0.9475358551976569,0,0.5054423439955826,0.035312534678269,0.35331585608264504,1.001066723797976,4.9439046324546325
2,22,female,316,105,155,change,valid,clock,3,2,2,0.48984367332741385,1,f,same,1.1449240175779778,0,0.5057226556614296,0.03529264986900671,0.3533331751100377,1.0010718553617153,4.814858955764976
2,22,female,317,75,75,same,valid,anti,3,2,2,0.37800252601255124,1,j,change,1.718847078760973,0,0.5055282976868511,0.03535070068301138,0.35330366861899165,1.0010676859660634,5.250013630716239
2,22,female,318,15,65,change,valid,clock,4,0,2,0.4070612881891975,1,f,same,1.042888005547411,0,0.5059199001398156,0.03535422863296844,0.3533043100642317,1.0010628751251716,4.638898278937631
2,22,female,319,105,105,same,valid,anti,1,0,2,1.0144062235603997,1,f,same,1.8033232006332582,0,0.5047643361453993,0.03535679441483808,0.3533254777644288,1.0010635165704116,6.003720704383795
2,22,female,320,135,135,same,valid,anti,3,0,2,0.4319538621107313,1,j,change,0.8049159097076881,0,0.5051982739987579,0.035325363587617176,0.3532587674367278,1.0011209259391762,4.413853554152865
2,22,female,321,45,95,change,valid,clock,1,0,2,1.0702389191897055,1,j,change,0.7350438973198834,0,0.5055818583828113,0.03530002649176822,0.3533193840326021,1.0010721760845627,4.955906397712624
2,22,female,322,165,165,same,valid,clock,2,2,2,0.980853173775813,1,j,change,2.0170367913869995,0,0.505341316335489,0.03532375997383497,0.35331296957838276,1.0010664030751286,6.168676422196768
2,22,female,323,15,325,change,valid,anti,1,0,2,0.7360936228133141,1,j,change,1.7521929416625426,0,0.5057075816926044,0.03533979611029281,0.35331008307366574,1.0010715346388679,5.674945910112001
2,22,female,324,45,95,change,valid,clock,2,2,2,1.2369310298599885,1,j,change,1.0222761178947621,0,0.5049522796653036,0.03535134212825142,0.3533193840326021,1.0010458768206263,5.390740670656669
2,22,female,325,15,65,change,valid,clock,5,0,2,0.6331425888351987,1,j,change,0.7948420087764134,0,0.5059356155538808,0.03534107900122763,0.35331200741029534,1.001077949093542,4.555858353448002
2,22,female,326,45,45,same,valid,anti,1,0,2,0.4316703432182294,1,j,change,0.7840583484448871,0,0.5056004603011388,0.035325363587617176,0.3532815387507071,1.0010901365571954,4.378887079300057
2,22,female,327,45,355,change,valid,anti,5,2,2,0.5169947767094527,1,j,change,0.7331833847665621,0,0.5056229108922707,0.03533755105081582,0.35328795320492645,1.0010689688569983,4.366892049219587
2,22,female,328,135,85,change,valid,anti,4,0,2,0.962598277462348,1,j,change,0.754941856176174,0,0.5058403609027664,0.03531574190537867,0.35333702378284215,1.0010670445208234,4.861890057531127
2,22,female,329,15,325,change,valid,anti,5,0,2,0.366678127159048,1,j,change,0.6783061221481148,0,0.5055966116283344,0.03532215636005276,0.35332451559634137,1.0010571021161923,4.178803563101155
2,22,female,330,15,65,change,valid,clock,2,2,2,0.7379522110304606,1,j,change,0.9084439238758932,0,0.505384293181578,0.035279179513963754,0.3533277228239058,1.0010978339028043,4.778808758809191
2,22,female,331,105,105,same,valid,clock,1,1,3,0.5949227026148947,1,f,same,0.9074105552417677,0.3254434773267895,0.5058108544117204,0.03534492767403208,0.35330366861899165,1.001077307648302,4.649838451960932
2,22,female,332,135,185,change,catch,clock,1,1,2,0.6786861785822111,1,j,change,0.8706130743262293,0,0.5057550486567379,0.035314138291596464,0.3533177804188199,1.0010526119981478,4.684863298350592
2,22,female,333,15,65,change,valid,clock,3,2,2,0.8415187119262555,1,j,change,1.9370988961363764,0,0.506028304422216,0.035304195887420065,0.35330238572805683,1.001091419448585,5.95705009496578
2,22,female,334,135,185,change,valid,clock,3,2,3,0.8623127700884652,1,j,change,1.0573150760851604,0,0.5058640943848332,0.035300667937463004,0.35333830667377697,1.001075383312127,5.120748900402305
2,22,female,335,45,95,change,catch,clock,2,0,3,0.4646547516035753,1,j,change,0.5921959179695477,0,0.5058207968163515,0.03536224670096999,0.35329532982768797,1.0010920608933702,4.178730117596388
2,22,female,336,45,45,same,valid,clock,4,0,3,0.3102100798023457,1,f,same,1.1170541745591436,0,0.5058618493253562,0.035325042864769785,0.3533120074098406,1.0010529327205404,4.544006686427565
2,22,female,337,75,125,change,valid,clock,4,2,3,0.38465656047992525,1,j,change,0.618159064361862,0,0.5056145721014218,0.03532023202342316,0.35330912090512356,1.001044273206844,4.119848310977886
2,22,female,338,15,65,change,catch,clock,2,2,3,0.3245226523254132,1,f,same,0.8905155233010191,0,0.5055802547694839,0.03530002649176822,0.3533418346241888,1.001047801157256,4.390912898762963
2,22,female,339,135,135,same,catch,clock,1,1,2,0.6271649586042258,1,j,change,0.6946161558303174,0,0.5055491446642009,0.03533466454655354,0.3533222705373191,1.0010728175298027,4.426128575176335
2,22,female,340,165,115,change,catch,anti,5,2,2,0.31439551142102573,1,f,same,1.0235897981947346,0,0.5056886590518843,0.03535134212825142,0.3533020650056642,1.0010641580161064,4.508191899954909
2,22,female,341,165,215,change,valid,clock,4,1,4,0.9512119791224904,1,j,change,1.0535003999411856,0.3240170334550066,0.5061290113594623,0.035364491759992234,0.3533055929551665,1.001074421143585,5.169143715213522
2,22,female,342,165,165,same,valid,anti,4,0,3,0.8443045095541493,1,j,change,0.6414297434407672,0,0.5048878143966249,0.03532921225996688,0.3533155353602524,1.0010574228390396,4.660786643052688
2,22,female,343,105,155,change,valid,clock,1,1,4,0.28580468370682865,1,j,change,1.5273701570063167,0.32253095897462736,0.5055597285149815,0.03533306093277133,0.35330655512325393,1.0010914194481302,4.955856685689923
2,22,female,344,45,355,change,valid,anti,1,1,4,0.31249939864483167,1,j,change,0.8341680676903707,0.3210310052455277,0.5053377883855319,0.03529938504652819,0.35331585608264504,1.0010866086072383,4.237511217277643
2,22,female,345,75,125,change,valid,clock,1,1,4,0.346951113517207,1,j,change,0.667126689968427,0.3195146302462775,0.5053483722358578,0.03531766624200827,0.3533091209055783,1.0010757040345197,4.154828897630978
2,22,female,346,15,325,change,catch,anti,1,1,3,0.663794380809577,1,j,change,1.2771480565161255,0,0.5055943665693121,0.03532568431000982,0.3533267606553636,1.0010481218796485,5.026883299903602
2,22,female,347,45,45,same,valid,anti,4,2,3,0.6212386440097362,1,f,same,0.7362773969375667,0,0.5050847381521635,0.0353324194875313,0.35329180187818565,1.0010830806572812,4.496634977122994
2,22,female,348,15,65,change,valid,clock,5,1,4,0.7337151430519953,1,j,change,0.9886646965737782,0.31807306726642126,0.5051078301889902,0.035345889842119504,0.3533213083692317,1.0010516498296056,4.884931099135883
2,22,female,349,15,325,change,valid,anti,3,0,3,0.9056985373122188,1,j,change,0.6679701907464732,0,0.5055347121415252,0.03530996889639937,0.3532927640462731,1.0011164358211317,4.743932407043303
2,22,female,350,15,15,same,catch,clock,4,2,3,0.6149960968041341,1,j,change,1.0628529954537953,0,0.5056219487241833,0.03529778143229123,0.3533132903007754,1.001074421143585,4.790939133882148
2,22,female,351,75,25,change,valid,anti,1,2,2,0.842821166930662,1,f,same,0.8889478305995908,0,0.5021783487782159,0.035305478777900134,0.3533392688418644,1.0010795527068694,4.987562693275777
2,22,female,352,75,25,change,valid,anti,2,1,4,1.1317987605993949,1,f,same,0.8911486299684839,0.31669279974050013,0.5057996291166091,0.0353304951509017,0.3532869910372938,1.0010910987252828,5.167830355636852
2,22,female,353,15,65,change,catch,clock,3,0,3,0.5106868020675392,1,j,change,0.7574778107978091,0,0.5052601734851123,0.03530066793700826,0.3533456832965385,1.0010625544023242,4.414211480719132
2,22,female,354,165,115,change,valid,anti,5,0,3,1.6735148452930844,1,j,change,0.9237747910651706,0,0.5053416370587911,0.03532472214192239,0.3532940469372079,1.0010898158348027,5.745002017345996
2,22,female,355,105,155,change,valid,clock,4,2,2,0.679075856698546,1,j,change,0.7095688909216733,0,0.505144071857103,0.03533787177366321,0.3532998199461872,1.0010712139164752,4.519642984286293
2,22,female,356,105,105,same,valid,clock,2,1,2,0.330261023400908,1,f,same,1.2594059958473736,0.3153542174035627,0.5057072609702118,0.03530708239168234,0.3533379859513843,1.0010461975434737,4.767934013222657
2,22,female,357,165,115,change,valid,anti,4,1,4,0.36439201554367173,1,f,same,1.331965985430088,0.3140393544668726,0.5052707573354382,0.03533241948707655,0.353300461391882,1.0010545363343226,4.84983216579576
2,22,female,358,75,125,change,valid,clock,4,1,4,0.3870549250505064,1,j,change,1.0526209782174192,0.3126681219079655,0.5053769165588164,0.035347172732599574,0.3532937262143605,1.001060309343302,4.507859951929731
2,22,female,359,105,55,change,catch,anti,2,0,4,0.5758980717505437,1,j,change,0.7149057171391178,0,0.5060292665903035,0.035215034968132386,0.3533347787238199,1.001063837293259,4.473888679706761
2,22,female,360,105,105,same,catch,anti,1,2,3,1.0258797584829153,1,f,same,1.0790472482312907,0,0.5053217522495288,0.035295536373723735,0.35332643993297097,1.00103657586169,5.238075368558384
2,22,female,361,165,215,change,valid,clock,5,0,3,1.2705530350312984,1,j,change,0.8486195131558816,0,0.5060703190997629,0.035396884756210056,0.35330559295562125,1.0010798734301716,5.239189880043341
2,22,female,362,15,15,same,valid,anti,3,0,4,1.41855919803902,1,j,change,1.7433188644622533,0,0.505027649506701,0.035293932759941526,0.3533277228239058,1.0010420281482766,6.239402519212945
2,22,female,363,45,45,same,catch,anti,3,1,4,0.6840913187411388,1,f,same,0.7284918526802358,0,0.5050751164703797,0.0353304951509017,0.35330398934183904,1.001070251747933,4.649656602173309
2,22,female,364,105,155,change,catch,clock,1,1,3,0.30813692807896587,1,j,change,1.1532919943115303,0,0.5054596630229753,0.035324401419075,0.3533017442828168,1.001051329107213,4.602183865209554
2,22,female,365,75,75,same,catch,clock,4,1,3,0.30512245514501046,1,j,change,2.142855355973552,0,0.5060671118726532,0.03534685201020693,0.35329340549196786,1.0010869293300857,5.592097776814171
2,22,female,366,135,85,change,valid,anti,5,0,3,1.7386331053849062,1,j,change,2.561575556822845,0,0.5061039949864607,0.03534588984166476,0.3533126488550806,1.001080835598259,7.500161323532666
2,22,female,367,165,215,change,valid,clock,1,2,2,1.4848400780251723,1,j,change,1.125086354594714,0,0.5057877623753484,0.03534396550594465,0.35329789561001235,1.0010561399481048,5.780932264000967
2,22,female,368,135,135,same,catch,clock,3,2,2,0.5105088009527208,1,j,change,0.7200841063286134,0,0.5052460616852841,0.03534653128735954,0.3532876324825338,1.0010968717347168,4.3668968600604785
2,22,female,369,75,75,same,catch,anti,1,0,2,0.518132700953629,1,f,same,0.8846158286928585,0,0.5055728781467224,0.03531894913294309,0.35328859465062123,1.0010965510118695,4.625988547632915
2,22,female,370,135,135,same,valid,clock,3,1,4,0.2808453481416109,1,f,same,0.8236146862786882,0.31128415341751947,0.5060417747768042,0.03534300333740248,0.3533225912601665,1.0010461975434737,4.320147352851109
2,22,female,371,165,165,same,valid,clock,3,1,4,0.3217843216621077,1,f,same,1.370159251664063,0.30987269531246825,0.5056055918648781,0.03532472214192239,0.3533155353602524,1.0010673652436708,4.838643111933834
2,22,female,372,75,75,same,valid,anti,4,2,4,0.4103012292021049,1,f,same,1.8097075072851112,0,0.5051889730393668,0.03532985370566166,0.3532770486326626,1.0010840428258234,5.367939529653995
2,22,female,373,75,25,change,valid,anti,4,0,2,0.7118841883052482,1,j,change,0.7104309936185018,0,0.5048336122554247,0.035351342128706165,0.35325812599148776,1.0010651201841938,4.578256987425448
2,22,female,374,135,85,change,valid,anti,5,2,2,0.5476032711153493,1,j,change,0.6763346395300687,0,0.5056931491703835,0.03531542118298603,0.35329661271907753,1.001051329107213,4.378900870377038
2,22,female,375,75,75,same,catch,clock,3,2,3,0.5970247193836258,1,f,same,1.4585276645807426,0,0.5052168759170854,0.03531221395542161,0.35329116043249087,1.001092702339065,5.202504652083462
2,22,female,376,75,75,same,valid,clock,2,1,4,0.34521824861030836,1,f,same,1.2053542735338851,0.3085182018870001,0.5060087403358011,0.03533241948707655,0.3533116866869932,1.0010651201846485,4.685836691834538
2,22,female,377,165,215,change,catch,clock,5,0,3,5.847180109546116,1,f,same,2.089537126542382,0,0.5052604942079597,0.0353263257557046,0.3532786522459901,1.0010866086072383,11.139234717080853
2,22,female,378,45,45,same,valid,anti,2,1,4,0.36476629896878876,1,f,same,0.7107270206975045,0.3072250593946786,0.5045677331127081,0.03532760864663942,0.3532937262143605,1.0010670445208234,4.213304348551446
2,22,female,379,75,125,change,catch,clock,2,0,2,0.5140107724350855,1,j,change,0.6261572477883419,0,0.5051976325530632,0.035375396333165554,0.35327191706892336,1.001075062588825,4.260869453662053
2,22,female,380,165,165,same,valid,anti,3,1,3,1.4679043142978117,1,f,same,1.3309704620778575,0.3059758724962447,0.5057207313248,0.03531542118253128,0.3533017442828168,1.0010894951119553,5.99216634733375
2,22,female,381,135,135,same,valid,clock,4,1,4,0.35304709043521143,1,f,same,0.7075005500391853,0.3047547681926014,0.5059057883395326,0.035356473691990686,0.3533110452422079,1.0010750625892797,4.225888867008507
2,22,female,382,15,65,change,valid,clock,1,2,4,1.2333379731221612,1,j,change,0.7022406972769204,0,0.5057784614159573,0.03532536358716243,0.35331104524175316,1.0010433110387567,5.108893384708608
2,22,female,383,165,115,change,valid,anti,3,0,4,0.40321421904945964,1,f,same,1.0073657182038005,0,0.5058875071440525,0.03533626816033575,0.3533193840326021,1.0010728175298027,4.614828679539642
2,22,female,384,15,15,same,valid,anti,1,0,2,1.3981788721976045,1,j,change,1.213847652854838,0,0.5053419577811837,0.03529297059139935,0.35333060932816807,1.0011007204070665,5.803772853900227
2,22,female,385,75,75,same,valid,clock,1,1,4,0.3591424259084306,1,f,same,0.7689353095843217,0.3034892047113496,0.5055010362552821,0.03533209876422916,0.3533277228239058,1.0010859671615435,4.354910168770402
2,22,female,386,105,105,same,valid,anti,5,1,4,0.30070482027031176,1,f,same,0.6446077849668654,0.30222061394500827,0.5054291943638418,0.035358077305772895,0.3533017442828168,1.0010494047705834,4.096373010797379
2,22,female,387,75,75,same,valid,anti,5,2,3,0.6416568151335014,1,j,change,0.8982157553118668,0,0.5052681915535686,0.03533145731944387,0.35327352068270557,1.0010692895798456,4.731888627108219
2,22,female,388,75,25,change,catch,anti,4,2,2,0.7198544688544644,1,j,change,0.740524086597361,0,0.5055529933370053,0.03529585709611638,0.3533354201695147,1.0010378587526247,4.614858186031142
2,22,female,389,105,55,change,catch,anti,5,0,4,0.7199901345688886,1,f,same,0.57381337400966,0,0.5053746714997942,0.03530836528261716,0.3533216290920791,1.001077307648302,4.4611328953114935
2,22,female,390,105,55,change,catch,anti,5,2,4,0.2727374775413409,1,f,same,0.8259700740036351,0,0.5058211175391989,0.03533338165561872,0.3533354201695147,1.0010349722479077,4.261178309650404
2,22,female,391,15,325,change,valid,anti,4,2,4,0.4619882628308005,1,j,change,0.6231039674044041,0,0.5058214382620463,0.03531926985533573,0.35330238572805683,1.0010846842710635,4.213889667532385
2,22,female,392,45,95,change,valid,clock,1,2,4,1.348186537471065,1,j,change,0.9405457033094535,0,0.5059250317035549,0.035321835637660115,0.35331072451890577,1.0010708931936279,5.46293792283268
2,22,female,393,45,95,change,valid,clock,3,1,4,0.3196277820288742,1,j,change,0.6232877415282019,0.30093323610373524,0.505384934626818,0.03536256742381738,0.35328250091879454,1.0010667237984308,4.083898500236501
2,22,female,394,75,75,same,valid,anti,5,1,4,0.28548877181810894,1,f,same,0.5550074760467396,0.2996256116506834,0.5059429921761875,0.035321194191510585,0.3533148939145576,1.001070251747933,4.002861808914986
2,22,female,395,165,165,same,valid,anti,1,2,4,0.2921456927902,1,f,same,0.6762490065611928,0,0.5049695986926963,0.03533626816033575,0.3533148939145576,1.001042990316364,4.118760740202106
2,22,female,396,75,75,same,valid,clock,2,0,4,0.3375321283992889,1,j,change,1.2728333736372406,0,0.5059487651851668,0.03532568431000982,0.35329917850094716,1.0010824392115865,4.7678711515677605
2,22,female,397,105,105,same,valid,clock,3,2,4,0.338512577783149,1,j,change,0.6221494965611782,0,0.5056578696699034,0.03532375997383497,0.35328250091879454,1.0010939852299998,4.0379078230048435
2,22,female,398,135,185,change,valid,clock,3,1,4,0.3653878596182949,1,j,change,0.8658288533711129,0.298380082811778,0.5049449030420874,0.03532953298281427,0.35331713897357986,1.0010574228390396,4.366707633649639
2,22,female,399,75,25,change,valid,anti,2,0,1,0.32607270527705623,0,j,change,0.8713914683908115,0,0.5052989809355495,0.03531702479631349,0.3533075172917961,1.001080835598259,4.342879859189907
2,22,female,400,45,45,same,catch,clock,1,0,2,0.31948441896884106,1,j,change,0.6380246302228443,0,0.5059773095081255,0.03535390791012105,0.3532937262143605,1.0010943059528472,4.131921918127318
2,22,female,401,45,95,change,valid,clock,4,2,3,0.4623869211836791,1,j,change,1.287622219414061,0,0.5055680673053757,0.03531894913248834,0.353286349591599,1.0010599886204545,4.8857669025687755
2,22,female,402,105,105,same,catch,clock,3,0,3,1.6660480994291902,1,j,change,0.7197511961358032,0,0.5043566975564318,0.035323439250987576,0.35329949922379456,1.0010856464386961,5.567176658569224
2,22,female,403,15,325,change,valid,anti,1,2,3,0.5571296983475804,1,j,change,0.6664143647863057,0,0.50581406163883,0.03529297059139935,0.3533315714962555,1.0010522912753004,4.356102615878626
2,22,female,404,135,135,same,valid,anti,1,1,4,0.30945798500169985,1,f,same,1.0470798516207651,0.2971883380289798,0.5049811447106549,0.03535519080105587,0.3533168182511872,1.0010628751251716,4.483855779968508
2,22,female,405,135,185,change,valid,clock,3,0,3,2.236052249581462,1,j,change,0.9442580689028546,0,0.5058268905481782,0.0353401168331402,0.35332996788292803,1.0010564606704975,6.357813030194848
2,22,female,406,75,125,change,valid,clock,1,0,3,1.9358862434964976,1,j,change,0.7209827714164021,0,0.5055218832321771,0.0352791795144185,0.353341193178494,1.0010798734297168,5.885929829715678
2,22,female,407,45,45,same,valid,anti,5,1,4,0.25106880849580193,1,f,same,0.59667801811338,0.2960355808438779,0.5059702536082114,0.0353263257557046,0.35331136596460055,1.0010641580161064,4.013869333711227
2,22,female,408,75,25,change,catch,anti,2,0,3,0.2870939890790396,1,f,same,0.7030001687003278,0,0.5058820548574658,0.03534973851446921,0.353312328132688,1.00107313825265,4.178923834124362
2,22,female,409,105,55,change,valid,anti,1,0,4,0.29215531447198373,1,f,same,0.6932145975024468,0,0.5058544727030494,0.03530804455976977,0.35331713897357986,1.0010699310255404,4.120041706783923
2,22,female,410,15,15,same,catch,clock,2,1,3,0.44166727069432454,1,f,same,1.0432690241495948,0,0.5055876313922454,0.03532215636005276,0.3533363823376021,1.001047801157256,4.625943325727803
2,22,female,411,75,25,change,valid,anti,4,2,3,0.6927251746174079,1,j,change,1.136831220946533,0,0.5060998255908089,0.035352945742033626,0.3533088001822762,1.001059667898062,4.992182062747361
2,22,female,412,15,15,same,valid,anti,2,0,2,1.5603648285191412,1,f,same,0.791140547755731,0,0.5050497793749855,0.0353381924965106,0.3532831423640346,1.001063195848019,5.567707133964177
2,22,female,413,75,25,change,valid,anti,5,0,4,0.3392172056196614,1,f,same,0.9163875844383256,0,0.5056110441514647,0.03532985370566166,0.35334055173325396,1.0010680066889108,4.472793090862524
2,22,female,414,165,215,change,valid,clock,1,1,3,0.44612563735609,1,j,change,1.400610591932491,0.294908246593905,0.5057928939390877,0.03530098865985565,0.35333862739662436,1.0010506876615182,4.991765764644697
2,22,female,415,75,75,same,valid,anti,3,1,4,0.34081023541693867,1,f,same,0.8081430218112473,0.29374051354619496,0.5053291288722903,0.0353676989880114,0.35330302717329687,1.0010545363343226,4.366933422451439
2,22,female,416,15,65,change,valid,clock,3,1,4,0.33297529985975416,1,j,change,0.8017741098501574,0.2925716489037755,0.5052617770988945,0.035281745296288136,0.3533290057148406,1.0010763454802145,4.260567012127922
2,22,female,417,45,45,same,valid,anti,5,0,4,0.3241175795183153,1,j,change,0.7121940064621413,0,0.5056899419428191,0.03531221395542161,0.3533120074098406,1.0010564606704975,4.178762510592151
2,22,female,418,135,85,change,valid,anti,1,2,2,0.4262578264365402,1,j,change,0.7442053420863886,0,0.5056395884744234,0.035298743600833404,0.35330591367846864,1.0010654409070412,4.331932630266692
2,22,female,419,45,355,change,valid,anti,2,2,2,0.29612297535777543,1,j,change,1.3076580890442528,0,0.50551835528222,0.035328570814726845,0.3532943676600553,1.001075062588825,4.790942661832105
2,22,female,420,105,55,change,valid,anti,4,2,2,0.308480422122102,1,j,change,0.6112243975062484,0,0.5055401644281119,0.03533402310085876,0.35330302717329687,1.0010510083843656,4.072769100802361
2,22,female,421,105,155,change,valid,clock,4,1,3,0.5258233112826929,1,j,change,0.9699822768616286,0.2913881361520803,0.5051809549713653,0.035323439250987576,0.3533427967922762,1.0010298406841684,4.613672153377593
2,22,female,422,105,105,same,valid,anti,5,2,3,0.2782991303924973,1,f,same,0.9811030167820718,0,0.5057922524933929,0.035349417792076565,0.35332034620068953,1.0010840428253687,4.473728639064575
2,22,female,423,105,55,change,valid,anti,5,1,3,0.2970251683955212,1,j,change,0.7226617549049479,0.29017647406108793,0.505013537706418,0.0353167040734661,0.353298216332405,1.0010442732072988,4.177665638856979
2,22,female,424,135,135,same,valid,anti,4,1,3,2.557821176552352,1,f,same,1.0467440549232379,0.2889898779950287,0.5059821203490174,0.035289763364289684,0.3533469661874733,1.0010664030751286,6.876002819794394
2,22,female,425,135,185,change,catch,clock,2,1,3,0.3523482356081331,1,j,change,1.02958346456262,0,0.5056001395787462,0.035309006727857195,0.35331681825073247,1.0010741004207375,4.555809924315781
2,22,female,426,75,25,change,valid,anti,4,1,2,2.5951889024804586,1,j,change,2.452670305372976,0.2878625239782807,0.5054295150862345,0.03534717273305432,0.3532876324825338,1.0010378587526247,8.19516683675647
2,22,female,427,165,165,same,valid,anti,2,2,3,1.5892580977679245,1,j,change,1.4361755353984336,0,0.5047758821638126,0.035308686005009804,0.35335017341458297,1.0010593471752145,6.203745528323452
2,22,female,428,75,75,same,valid,anti,5,0,3,0.6044699768244755,1,j,change,1.3886813100111794,0,0.5052361192806529,0.03532183563720537,0.35331745969642725,1.001043631761604,5.1907305999634445
2,22,female,429,165,115,change,valid,anti,2,0,2,0.44003415055613004,1,f,same,0.7784261365932252,0,0.5059112406261193,0.03532119419196533,0.3533193840326021,1.0010792319844768,4.449761670940006
2,22,female,430,45,95,change,valid,clock,2,0,3,1.0309061250986815,1,j,change,0.6475289275863361,0,0.5057518414296283,0.03528046240535332,0.35331457319216497,1.0010939852299998,4.87396045745345
2,22,female,431,75,75,same,valid,anti,1,0,2,0.45763060310628134,1,j,change,0.5561251947588062,0,0.5052620978217419,0.03533787177366321,0.3532728792370108,1.0010965510118695,4.189809484284069
2,22,female,432,165,165,same,catch,anti,4,0,3,0.8703539303605794,1,f,same,0.8429401550629336,0,0.5059125235170541,0.03534460695072994,0.3533078380146435,1.0010785905392368,4.944969431916434
2,22,female,433,135,185,change,valid,clock,1,2,3,0.9336678043773645,1,j,change,1.0055257319049815,0,0.5053788408949913,0.035354549355815834,0.35331136596460055,1.0010429903159093,5.073168079877632
2,22,female,434,105,105,same,valid,anti,2,1,2,1.3223279466883469,1,f,same,0.6549927869455132,0.28677785674834566,0.5058929594301844,0.03532760864618467,0.35331553535979765,1.0010721760845627,5.156791079289633
2,22,female,435,165,165,same,valid,clock,4,1,3,0.7892037031929249,1,f,same,0.7151869909725974,0.28572366674761207,0.5053185450224191,0.03530163010555043,0.353312328132688,1.0010949473980872,4.731963996949617
2,22,female,436,165,165,same,valid,clock,5,0,2,0.29050904470159367,1,f,same,0.6065918784024689,0,0.5053855760725128,0.03530355444172528,0.3533315714962555,1.001044273206844,4.1317057510077575
2,22,female,437,15,15,same,valid,anti,4,2,2,0.7663037795891796,1,j,change,1.5396108606978487,0,0.5049910871152861,0.03532889153711949,0.3532815387507071,1.0010715346388679,5.449686942543849
2,22,female,438,45,45,same,catch,anti,1,1,2,1.522397671809813,1,f,same,1.5547021480083458,0,0.5055674258601357,0.03535134212825142,0.3533148939145576,1.001047801157256,6.322593505107761
2,22,female,439,165,115,change,valid,anti,2,1,4,0.9042780563431734,1,j,change,1.3223366062015884,0.2846886450913917,0.5049686365246089,0.035312855401116394,0.353341193178494,1.001040103811647,5.379796007515324
2,22,female,440,165,115,change,valid,anti,1,1,4,0.60449210669276,1,j,change,1.3078322414862669,0.283613040236471,0.5051495241436896,0.035339154665052774,0.3533209876463843,1.0010458768206263,5.072901880012523
2,22,female,441,45,95,change,valid,clock,5,1,4,0.9431534998225288,1,j,change,1.2202114332521887,0.2825339295307761,0.5058082886298507,0.035478348329434084,0.3531596641132637,1.001088532943868,5.356775812887918
2,22,female,442,45,45,same,valid,anti,4,1,4,0.26523256567270437,1,f,same,0.9900117320371464,0.2814397655049319,0.5054984704734125,0.0353304951509017,0.353275124296033,1.001095588843782,4.496918816738344
2,22,female,443,75,75,same,valid,clock,2,2,3,0.5677353575638335,1,j,change,0.8608586132336313,0,0.5052611356536545,0.03533370237801137,0.35326550261424927,1.0010923816166724,4.6139380325198545
2,22,female,444,15,65,change,catch,clock,4,1,3,0.4166021479441042,1,j,change,0.5454396755826565,0,0.5051402231842985,0.0353224770824454,0.3532783315231427,1.0010952681209346,4.143249203485084
2,22,female,445,105,105,same,valid,anti,3,2,3,1.0934627727506268,1,j,change,0.8631270850983128,0,0.5054663982004968,0.03531221395542161,0.35327640718696784,1.0010827599348886,5.191118033020302
2,22,female,446,135,85,change,valid,anti,4,1,3,0.35509041494469784,1,j,change,0.6359739290910511,0.28031896069814205,0.505909637012337,0.03531702479631349,0.35330976235081835,1.0010718553617153,4.119979807296659
2,22,female,447,105,105,same,valid,clock,5,1,4,0.35147619050667345,1,f,same,1.028441370922792,0.2792073881329563,0.5056729436382739,0.035312534678269,0.3533088001827309,1.0010715346388679,4.637825782130221
2,22,female,448,105,55,change,valid,anti,5,0,4,0.2933070297935956,1,f,same,1.0693219729064367,0,0.5058034777894136,0.03533434382370615,0.3533065551237087,1.001075062588825,4.496882575070231
2,22,female,449,135,135,same,catch,anti,4,2,3,0.3737359515425851,1,j,change,0.7051044305276264,0,0.5049641464061096,0.03530291299648525,0.3533197047554495,1.0010567813937996,4.23727003378508
2,22,female,450,135,135,same,valid,clock,3,0,3,0.3272022907299288,1,j,change,0.9605735548716439,0,0.5054077059407973,0.035328570814726845,0.353286349591599,1.0010773076478472,4.402063786619237
2,22,female,451,75,75,same,valid,anti,4,1,3,0.5764484319543044,1,f,same,1.1016941216012128,0.278153258890124,0.5040699714368202,0.03535583224675065,0.3533071965689487,1.0010644787389538,4.8719399042579425
2,22,female,452,135,185,change,catch,clock,4,1,3,0.32419006285499563,1,j,change,0.6627812177071064,0,0.5049907663924387,0.035328250091879454,0.35330591367846864,1.001074421143585,4.131195481144914
2,22,female,453,165,115,change,valid,anti,1,2,2,0.8361466062083309,1,f,same,2.567932281319827,0,0.5050260458929188,0.03533498526940093,0.3533007821142746,1.0010494047705834,6.592630176545299
2,22,female,454,105,55,change,valid,anti,1,1,3,0.61125005532449,1,j,change,0.5135733066322246,0.2771408864457052,0.5053900661905573,0.03534973851446921,0.35328795320492645,1.0010567813933449,4.260863359930227
2,22,female,455,135,135,same,valid,anti,2,2,3,0.8131854245630166,1,j,change,1.0272303218966954,0,0.5056767923106236,0.03531381756874907,0.3533136110236228,1.0010644787389538,5.014932529559701
2,22,female,456,105,55,change,valid,anti,2,2,3,0.5007870535778238,1,j,change,0.7909991090323274,0,0.5056062333105729,0.03527982095965854,0.35332611920966883,1.0010792319844768,4.437901023683025
2,22,female,457,45,45,same,valid,anti,3,2,1,0.6999571514434137,0,j,change,0.8783100991099673,0,0.5053272045356607,0.035361605255729955,0.3532937262143605,1.0010715346388679,4.74376883845116
2,22,female,458,15,65,change,valid,clock,4,1,3,0.3590247206661843,1,j,change,1.1819020653902044,0.2761595350205225,0.5055889142831802,0.03529297059139935,0.35333830667377697,1.0010423488706692,4.649930178661634
2,22,female,459,45,45,same,valid,clock,5,2,4,1.014355870092004,1,f,same,0.7811702402659648,0,0.5054436268869722,0.03533145731944387,0.3534152801289565,1.000950942892814,4.955922433849537
2,22,female,460,165,165,same,valid,anti,4,2,3,2.589840530244601,1,j,change,2.4747899105759643,0,0.5054708883185413,0.03534396550594465,0.35329597127338275,1.0010545363343226,8.218047516996648
2,22,female,461,75,25,change,valid,anti,3,0,3,0.5675191904447274,1,j,change,1.522260723203999,0,0.5051992361668454,0.03531830768724831,0.3533145731917102,1.0010676859665182,5.273404901541653
2,22,female,462,45,95,change,catch,clock,2,0,3,1.797600224249436,1,j,change,0.7773485082225307,0,0.5055914800650498,0.03533883394220538,0.3532889153734686,1.0010859671619983,5.7917653156328015
2,22,female,463,105,105,same,catch,clock,3,2,3,0.42817574835862615,1,j,change,1.304587810355315,0,0.5062338876919057,0.03534460695118469,0.35329949922379456,1.0010782698163894,4.921155127811289
2,22,female,464,165,115,change,valid,anti,2,2,3,0.803842771455038,1,f,same,1.0102211126641123,0,0.5058650565529206,0.0353029129960305,0.3533251570415814,1.0010657616298886,5.015006937232556
2,22,female,465,165,115,change,valid,anti,4,2,3,0.506853524005237,1,f,same,1.078945579125957,0,0.5057258628885393,0.03530387516457267,0.35333862739662436,1.0010676859665182,4.814959662702222
2,22,female,466,15,15,same,catch,anti,1,1,2,0.6210875836040941,1,f,same,1.562267997195704,0,0.5054583801320405,0.03532183563720537,0.35327159634607597,1.0010827599344339,5.4269967716049905
2,22,female,467,15,15,same,catch,clock,4,0,2,0.5211362693148658,1,j,change,0.8269617486826064,0,0.505132846561537,0.035300347214160865,0.35332996788292803,1.001080835598259,4.531475407943162
2,22,female,468,45,45,same,valid,clock,1,2,3,0.5118686653254372,1,f,same,0.590624376595315,0,0.5052928872037228,0.03531830768724831,0.3532770486322079,1.0010910987252828,4.260533336241224
2,22,female,469,75,25,change,valid,anti,3,2,3,0.40999814622273334,1,f,same,0.6471472675389123,0,0.5058708295623546,0.03534653128735954,0.3532667855051841,1.0011064934165006,4.2138845359691
2,22,female,470,15,15,same,valid,clock,5,0,3,0.3803527821737589,1,f,same,0.8350378677328081,0,0.5053438821173586,0.035314138291596464,0.3533517770283652,1.0010654409070412,4.378248841068398
2,22,female,471,105,155,change,valid,clock,5,2,3,0.27983250576153296,1,f,same,0.6798587408811727,0,0.5055167516688925,0.035324401419075,0.35331778041927464,1.0010792319844768,4.119383904465849
2,22,female,472,45,45,same,catch,clock,3,1,3,0.4671951963432548,1,j,change,0.7060194524751751,0,0.5056113648743121,0.035384055846861884,0.3532860288687516,1.0010741004207375,4.3436255395358785
2,22,female,473,165,165,same,valid,anti,3,2,3,0.29502353784118895,1,j,change,0.9398051545276758,0,0.5058294563300478,0.03530291299648525,0.3533148939145576,1.0010779490939967,4.403149112335996
2,22,female,474,45,95,change,catch,clock,1,0,3,0.3241108443412486,1,j,change,0.6671703082593012,0,0.5047499036231784,0.03531702479631349,0.3533306093286228,1.001025350566124,4.060537056624526
2,22,female,475,45,355,change,catch,anti,2,2,3,0.3045198171366792,1,j,change,0.7445190089156313,0,0.5050478550388107,0.03533145731944387,0.3532998199461872,1.0010442732072988,4.23678959113613
2,22,female,476,105,55,change,valid,anti,3,1,3,0.3163422983889177,1,j,change,0.5883366613661565,0.2751992832103931,0.5058916765397043,0.03531028961924676,0.35328667031399164,1.0010721760845627,4.0849636204206945
2,22,female,477,135,135,same,valid,anti,3,2,1,0.43044037155095793,0,j,change,0.9484890431494932,0,0.5051812756937579,0.0353381924965106,0.35330238572805683,1.0010529327205404,4.566724118797993
2,22,female,478,165,215,change,valid,clock,4,2,2,0.5167022775804071,1,f,same,0.7125593096507146,0,0.5057637081704343,0.0352910462552245,0.3533376652280822,1.0010728175298027,4.35581524831332
2,22,female,479,105,105,same,valid,anti,2,0,3,0.7107071358882422,1,j,change,0.7552750870922864,0,0.5052518346942634,0.03530964817355198,0.35330687584655607,1.001059667898062,4.696917020691217
2,22,female,480,15,325,change,valid,anti,5,2,2,0.48100230984528025,1,j,change,0.6398723138668174,0,0.505210782184804,0.03531574190537867,0.3532924433234257,1.001085004993456,4.319911621644678
