subject,age,gender,ntrial,memory_ori,test_ori,type,trial_type,which_change,trial,quest,pas,pas_rt,vis,test_key,test,test_rt,contrast,fix_dur,target_dur,mask_dur,retention_dur,trial_dur
30,24,female,1,165,115,change,catch,anti,5,0,1,1.2110554053152782,0,j,change,2.9068637009744407,0,0.5085212548685831,0.035311779979792846,0.35334679509219313,1.001107131311187,9.263045675901708
30,24,female,2,105,105,same,valid,anti,4,0,1,0.13531793783636203,0,f,same,0.35610339811057656,0.2,0.5003935255268743,0.035341927819558805,0.3532541065206942,1.001106489867766,4.0960320952619895
30,24,female,3,75,75,same,valid,clock,4,1,1,0.1550282106808254,0,j,change,0.28312477870201747,0.2,0.5005214934855076,0.03525501223873562,0.3533718113848181,1.0010740969760263,4.049794289101101
30,24,female,4,135,135,same,valid,clock,5,2,1,0.07549885053344951,0,f,same,0.33543063944205187,0.2,0.4993277673150942,0.03532974039501369,0.35332434457313866,1.0010468356314277,4.083378982722138
30,24,female,5,15,325,change,valid,anti,4,0,2,0.40409651413995107,1,j,change,0.379154628912147,0.3150270229513009,0.49986369327723423,0.03534962514038398,0.35340356283325036,1.0009788426308432,4.402571482452686
30,24,female,6,165,165,same,valid,clock,5,2,1,0.4397007923108731,0,f,same,1.5721408943260258,0.3670372117912738,0.4999759458725066,0.035340003489409355,0.35332017519101555,1.001059343777797,5.6509319531181745
30,24,female,7,135,135,same,valid,clock,1,0,2,2.1344664217208447,1,f,same,1.3256681915914896,0.23704404819608071,0.49954425446321693,0.03535860534805124,0.35327976425674024,1.0010943024432208,7.181708728248623
30,24,female,8,75,125,change,valid,clock,5,1,2,1.3174407178008778,1,f,same,2.683630492679754,0.33948538693435915,0.49974310191760196,0.03530825204109078,0.35331889230417346,1.0011449764718918,7.7470034971494215
30,24,female,9,45,45,same,catch,anti,2,2,1,0.3206453690352191,0,j,change,3.3989149343417466,0,0.49989031317829813,0.03534994586220819,0.3532925931247064,1.0010263094426364,8.771040947181064
30,24,female,10,75,75,same,valid,clock,3,2,2,1.25507028936795,1,f,same,2.8309742114095116,0.4895303947352734,0.5005712053491607,0.035276821314369045,0.35334294643178055,1.0010737762542021,7.794854212743758
30,24,female,11,165,165,same,valid,anti,5,0,2,0.37046916453277845,1,f,same,1.1259172640642419,0.18463693706663242,0.49951474806664464,0.03536181256515647,0.3533018940540842,1.0010330445982163,5.190466034289102
30,24,female,12,75,125,change,valid,clock,3,2,2,1.0933739538058944,1,j,change,0.6231128735124685,0.45516976949469906,0.5001100075434124,0.03521844996487289,0.3534256926305943,1.0010567780041129,5.285422428966513
30,24,female,13,135,85,change,valid,anti,1,0,1,0.20763971920177937,0,j,change,3.116936414998463,0.14398830216740016,0.5002854423136114,0.03529061234746678,0.3533102328183304,1.0010670410985085,6.981855811220612
30,24,female,14,165,215,change,valid,clock,4,2,2,0.5354698957783057,1,j,change,2.7454393374146093,0.4309868743938109,0.4997533650121113,0.035309534927819186,0.35328938590771486,1.0011036033723713,6.886644122069242
30,24,female,15,105,105,same,valid,anti,3,0,2,0.8324043094734179,1,f,same,1.193865363595819,0.17532329480148065,0.5003255325262899,0.035280990696492154,0.3533127985919009,1.0011023204856428,5.70969554530393
30,24,female,16,45,45,same,valid,anti,1,1,2,0.9132948125188705,1,j,change,2.000724189600419,0.277883819201003,0.5002902531392692,0.035332626890294705,0.3533047805493652,1.0010805114100094,6.4989159606512885
30,24,female,17,75,75,same,valid,clock,5,1,1,0.1992736936364281,0,j,change,3.5990632360562813,0.2361351957338891,0.4998874266830171,0.03532140163076747,0.35331760941744506,1.0010105940791618,7.346668407116454
30,24,female,18,75,125,change,valid,clock,1,2,2,0.7797196764046248,1,j,change,3.9536438475314526,0.411042466058706,0.49987716358862144,0.03534032421111988,0.3533047805494789,1.001088850174142,8.359052113427651
30,24,female,19,105,155,change,valid,clock,2,1,1,0.24031356319244424,0,j,change,1.0564633761475761,0.29035529960085005,0.5004647257444503,0.035253729351893526,0.35335802035172037,1.0011125835801522,4.814832608929919
30,24,female,20,165,115,change,valid,anti,2,0,1,0.08863978078034052,0,j,change,2.86323592801466,0.14759696885349446,0.499763628106507,0.03533423049884732,0.3532589173461247,1.001084360070422,6.604464189497776
30,24,female,21,105,55,change,valid,anti,2,2,2,0.4602901633370493,1,j,change,0.7974081196471161,0.3943011871427278,0.500116742699106,0.03531242142321389,0.35334134282322793,1.0010699275939032,4.896936402169558
30,24,female,22,45,45,same,valid,clock,3,2,2,0.6728645066274339,1,f,same,1.0744872942891561,0.37937397346759927,0.4999923026791748,0.03535988823489333,0.35325442724240474,1.0011132250234596,5.414709836662837
30,24,female,23,105,105,same,valid,clock,4,0,2,0.34928389258641346,1,f,same,6.586955991851141,0.17083042113499897,0.5001773591005758,0.03528932946073837,0.353316967974024,1.001087888009124,10.714663845171003
30,24,female,24,105,105,same,valid,anti,5,2,2,0.16441220692445313,1,j,change,1.6831753885863918,0.3664718016597232,0.49971744418166963,0.03529510245130041,0.3533487194223426,1.0010545329522529,5.4850665561673395
30,24,female,25,135,85,change,valid,anti,1,1,2,0.2485173035772732,1,j,change,0.7068202752561774,0.3354618832423396,0.5006411226798946,0.03517354892676394,0.35335481313472883,1.0010170085132586,4.590812670303194
30,24,female,26,45,95,change,valid,clock,4,1,2,0.20617498319415972,1,j,change,0.6968249834507105,0.31170053267375664,0.5002405412755024,0.03533198544687366,0.35331889230417346,1.0010452320229888,4.543568439445153
30,24,female,27,15,65,change,valid,clock,3,1,2,0.10628396442814392,1,j,change,0.8019905913082539,0.29204130603186945,0.5002251466339658,0.03535860534816493,0.353296441785119,1.0010885294525451,4.578716972079292
30,24,female,28,135,135,same,valid,anti,1,2,2,0.5650051572049506,1,f,same,0.6649949582548516,0.35494431032296014,0.5006648560857911,0.03530889348439814,0.3533060634362073,1.001062871716499,4.92088244651643
30,24,female,29,15,15,same,valid,clock,1,1,2,0.2648131731948524,1,j,change,0.66602479563619,0.27549868028146873,0.5003547182010379,0.03536469906043749,0.3533131193136114,1.0010689654287717,4.519911686072533
30,24,female,30,105,105,same,valid,clock,2,2,2,1.1985818969277489,1,f,same,1.5981588008600056,0.3435124962732121,0.500420786871473,0.03533615482899677,0.35329740395025055,1.001065116768359,6.522700681982656
30,24,female,31,45,45,same,valid,clock,5,0,2,2.4864905605188596,1,j,change,1.0512728161418181,0.14905847578064102,0.499980115254516,0.03534385214993563,0.3533002904455316,1.0010975096600987,7.169892378626059
30,24,female,32,105,105,same,catch,anti,2,2,2,0.11937967291510176,1,j,change,1.171547302602221,0,0.5001959609592177,0.03534641792339244,0.3532845750822844,1.00106800326364,6.41596642428658
30,24,female,33,135,85,change,valid,anti,4,2,2,0.9062026935491758,1,j,change,1.2320379811466182,0.3328077201578096,0.5007389427986482,0.035314666475073864,0.353314081478743,1.0010805114100094,5.746085591641759
30,24,female,34,75,25,change,valid,anti,3,2,2,0.07698154695617632,1,j,change,1.0169722716846081,0.3225861277287439,0.49961994478462657,0.03531755297035488,0.3533352491109554,1.001036572537032,4.754799920974278
30,24,female,35,165,165,same,catch,anti,4,0,2,0.12289766925130152,1,f,same,2.5603886890436343,0,0.500592372981373,0.035327495343153714,0.35333621127597326,1.0010554951172708,7.901062166128781
30,24,female,36,105,105,same,valid,anti,1,1,2,0.1313457995720455,1,f,same,1.944978909340989,0.26160502254040574,0.5000843498073664,0.03533198544687366,0.35333107972883226,1.0010622302729644,5.757187052593167
30,24,female,37,15,15,same,valid,anti,1,2,2,0.09609976754097715,1,f,same,1.031705264454331,0.3126530218632466,0.49928286627698526,0.035340324211233565,0.35330285621910207,1.0010612681079465,4.813472748918571
30,24,female,38,75,75,same,valid,anti,5,1,2,0.07775448625511672,1,f,same,0.9249357273711212,0.24890703225986566,0.5001670960060665,0.03532909895159264,0.35330542199278625,1.0010410626408657,4.673573301586202
30,24,female,39,105,155,change,valid,clock,2,0,2,0.09490924858744165,1,j,change,0.673911983702169,0.1305500207712101,0.4992260985360417,0.03534898369707662,0.35331183642676933,1.0010433076927256,4.484211832834717
30,24,female,40,15,15,same,catch,clock,4,0,1,0.10992864583602113,0,j,change,2.94888016810944,0,0.4993332195839457,0.03538779102291301,0.3532996490021105,1.0010426662493046,8.123532056775389
30,24,female,41,75,25,change,valid,anti,1,2,2,0.08628247627939345,1,j,change,3.2975611038983743,0.30284125582380694,0.49975272356869027,0.035273614097377504,0.3533746978802128,1.0010686447070611,7.075816685739028
30,24,female,42,75,25,change,valid,anti,5,1,2,0.1507234840125875,1,f,same,4.9287952923185685,0.23760430649859543,0.49962892499218015,0.035313704309942295,0.3533038183843473,1.0010757005844653,8.711870359157047
30,24,female,43,165,165,same,valid,clock,5,0,1,0.10485258347739546,0,j,change,1.2145669872172675,0.1142469629464719,0.500588845042671,0.035308572762801305,0.35331087426163776,1.0010760213061758,4.932792446875737
30,24,female,44,135,85,change,valid,anti,4,0,2,0.25913607836901065,1,f,same,1.4037004228395062,0.12782188494391894,0.5001212328029396,0.035327174621329505,0.3532967625069432,1.00103528965019,5.403822938529174
30,24,female,45,165,115,change,valid,anti,3,2,2,0.11206818030200338,1,f,same,3.0873812688263342,0.2929969143477167,0.49984637430532075,0.03529991327695825,0.3533275517901302,1.00103528965019,6.887005254704377
30,24,female,46,15,15,same,valid,anti,2,2,2,0.06446794835608216,1,f,same,1.733929918459694,0.2829693347407161,0.5002722927240484,0.035348342253655574,0.35325025786016795,1.001075700584579,5.485909092075303
30,24,female,47,135,135,same,catch,anti,2,0,1,0.06921783674499693,0,j,change,1.1922495676672042,0,0.5003316262385624,0.035319156578907496,0.35329900755880317,1.001083718627001,6.346018304228892
30,24,female,48,45,355,change,valid,anti,4,0,2,0.017271825753255143,1,j,change,4.297596704007219,0.11403768411168512,0.49987876719717406,0.035305044823985554,0.3533387770497711,1.0010583816126655,7.958873214862933
30,24,female,49,75,75,same,valid,anti,3,2,2,0.552975527651256,1,f,same,0.8606810589460565,0.27260579486671466,0.5000336757785817,0.035360208956603856,0.35328008497833707,1.0010218193388027,5.084848529555188
30,24,female,50,75,75,same,valid,clock,3,0,1,0.04363162162019307,0,j,change,0.8876351521246306,0.10132928693937822,0.5006966075341097,0.03534032421111988,0.35330253549750523,1.0010561365606918,4.567824942398374
30,24,female,51,75,125,change,valid,clock,3,0,1,2.456294291666836,0,f,same,10.320567112940239,0.1122305159272345,0.5054166688048554,0.03536277473017435,0.353314081478743,1.0010413833624625,16.3619857548249
30,24,female,52,165,165,same,valid,anti,4,2,2,0.308233759935888,1,f,same,3.57669546319903,0.26175410736252,0.4997787020264468,0.035370151329289,0.3532951588983906,1.0010542122305424,7.499975625150796
30,24,female,53,135,185,change,valid,clock,3,1,2,0.41922303243654824,1,j,change,1.5189617083947269,0.22732221552295337,0.49906798273741515,0.03532236379589904,0.35333749416292903,1.0010657582117801,5.579311269390928
30,24,female,54,15,15,same,valid,clock,3,1,1,0.1036052967830301,0,j,change,1.3426032595587003,0.21781017358625585,0.49993906287681966,0.035360208956603856,0.35326533178022146,1.0010939817215103,5.1328993754907515
30,24,female,55,135,135,same,catch,clock,4,1,1,0.029619290512300722,0,j,change,1.0343903465333142,0,0.4995561211661652,0.035306327710827645,0.35327463270948556,1.0010840393487115,6.2628131526686275
30,24,female,56,135,135,same,catch,anti,3,0,1,0.0459360070404955,0,j,change,0.5447329799407044,0,0.49978351285199096,0.035413448758845334,0.3532120919778663,1.0010776249147284,5.756750871080158
30,24,female,57,45,45,same,valid,anti,1,2,2,0.6629439429782451,1,f,same,1.1119838304947507,0.25027888398667003,0.500088198467779,0.03532621245631162,0.35335256808275517,1.0010689654287717,5.533171924791986
30,24,female,58,165,115,change,catch,anti,2,2,1,0.058258134785205584,0,j,change,1.054933533634653,0,0.499342199791613,0.03530087544197613,0.3533278725118407,1.0010477977965593,6.26230224299934
30,24,female,59,75,75,same,valid,clock,4,2,2,0.0804341160653621,1,f,same,2.1788693790314255,0.2379754309701183,0.4999204610181778,0.03535058730562923,0.3532752741529066,1.0010708897590348,5.909567064190583
30,24,female,60,45,355,change,valid,anti,4,2,2,0.2943433030743563,1,j,change,1.3319581855876095,0.22499451738092371,0.5002617089078285,0.03534321070651458,0.35328649941243384,1.0010708897589211,5.238903349874022
30,24,female,61,75,75,same,valid,anti,1,0,2,0.4125064785782797,1,f,same,0.9814084044479614,0.12268099252898368,0.4994457929010423,0.03535892606987545,0.3533208166344366,1.0010769834713074,5.0963990008878
30,24,female,62,165,165,same,valid,anti,4,1,2,0.24044794558506055,1,f,same,0.7117799156372939,0.2334166537326552,0.5001302130104932,0.03533647555082098,0.35330413910594416,1.0010577401692444,4.649611862597681
30,24,female,63,165,215,change,valid,clock,4,1,2,0.08892490237235506,1,j,change,1.0611920969041648,0.2249461108502749,0.49960871952498564,0.03531915657879381,0.3532727083793361,1.001083718627001,4.708252618371944
30,24,female,64,45,45,same,valid,anti,3,0,2,0.14371539412854872,1,f,same,0.7376114828632581,0.11184346057601077,0.4994576596038769,0.03531691152704752,0.35332691034670916,1.0010692861504822,4.531372996772234
30,24,female,65,75,75,same,valid,anti,4,1,1,1.2928885094394218,0,f,same,3.813010588947691,0.21695687520134765,0.5001407968265994,0.03533230616858418,0.3533089499314883,1.0010542122305424,8.831119819061655
30,24,female,66,45,355,change,valid,anti,5,2,2,0.32577274686582314,1,j,change,1.2294423804221424,0.21041660876115875,0.49952693549130345,0.03531562864020543,0.3533464743704826,1.0010590230559728,5.225726178074979
30,24,female,67,105,105,same,valid,anti,3,1,2,0.1854816983368437,1,f,same,1.8183451529971535,0.2298127181843241,0.5007010976379433,0.03529029162586994,0.35333107972883226,1.0010676825419296,5.603974768182411
30,24,female,68,45,355,change,valid,anti,1,2,2,0.08664072241924714,1,j,change,1.5397473611018313,0.19572731545202707,0.4998415634797766,0.035337116994242024,0.35326244528482675,1.0010946231648177,5.238257095646873
30,24,female,69,45,45,same,valid,clock,1,2,2,0.16558701051451408,1,f,same,0.7062359203173401,0.18156216143171783,0.5001882636383925,0.03532781606486424,0.3533137607569188,1.0010680032637538,4.519911365350708
30,24,female,70,45,45,same,valid,clock,5,1,2,0.1213957295263981,1,f,same,0.8506164912532768,0.22289632996384698,0.49991629163605467,0.035324608847872696,0.35329612106340846,1.001052287900393,4.649332834717939
30,24,female,71,105,55,change,valid,anti,3,1,2,0.10789943963504811,1,j,change,0.8656762994360179,0.2162399948898868,0.5003178352054647,0.03534160709796197,0.35327334982264347,1.0010891708959662,4.590854364124311
30,24,female,72,135,135,same,valid,anti,1,1,2,0.12400800777948007,1,f,same,0.7448771122731159,0.21014660295728033,0.500375885833364,0.035331344003452614,0.35331376075703247,1.0010461941880067,4.472950331754532
30,24,female,73,105,105,same,valid,clock,5,0,2,0.13290194126432198,1,f,same,1.023280546817773,0.10191353619277983,0.500418541819613,0.035290291625756254,0.35332851395526177,1.0010853222355536,4.755777480718166
30,24,female,74,105,105,same,valid,clock,3,1,2,0.13262002688941266,1,f,same,0.7501606815720834,0.20423604570034393,0.5000442595946879,0.035321401630881155,0.3532832921954423,1.001084360070422,4.484521329275935
30,24,female,75,15,65,change,valid,clock,4,0,1,0.0897129155911216,0,j,change,3.8784615493167394,0.09271537514277914,0.5003704335643988,0.035362133286753306,0.3533073463230494,1.0010269508859437,7.630039500084649
30,24,female,76,75,25,change,catch,anti,1,2,1,0.07974713018222701,0,j,change,0.31767516536410767,0,0.4994951840428712,0.0353541152443313,0.3533195337475945,1.0010712104807453,5.543682295648978
30,24,female,77,105,105,same,catch,anti,3,0,1,0.05599255669073955,0,j,change,0.746556090376771,0,0.5007296418692704,0.03524763563962097,0.35338207447932746,1.00103753470205,5.933941272007928
30,24,female,78,45,45,same,valid,clock,2,1,2,0.4002966034289557,1,f,same,0.4655156820082311,0.19844637122341371,0.49988774740472763,0.03530055472026561,0.353296441785119,1.001077945636439,4.578557252672226
30,24,female,79,45,355,change,valid,anti,1,1,2,0.12323923786266278,1,j,change,0.6779033652686621,0.19308408610336733,0.49983546976750404,0.035333909777136796,0.3532778399264771,1.001093660999686,4.378283228051146
30,24,female,80,75,25,change,valid,anti,3,1,2,0.09497788303156085,1,j,change,1.1313185382274469,0.18775206485180257,0.4998133399701601,0.03533006111672421,0.35329483817668006,1.0010792285231673,4.802225680314791
30,24,female,81,105,155,change,catch,clock,2,2,1,0.03869026237600792,0,j,change,0.25343043931184184,0,0.5002533701435823,0.03535251163577868,0.3532967625069432,1.0010875672874135,5.403818769147051
30,24,female,82,135,135,same,valid,anti,1,0,2,0.057056069850659696,1,j,change,0.592934244354069,0.10069440018291494,0.5002639539598022,0.03531947730050433,0.3533131193136114,1.0010705690373243,4.226140871234065
30,24,female,83,75,125,change,valid,clock,1,0,1,0.05628441343856139,0,j,change,3.91798697100171,0.09235616776668544,0.4992017236866104,0.03536726483412167,0.35331472292205035,1.0010670410986222,7.569376914708755
30,24,female,84,135,185,change,valid,clock,5,2,2,0.06730633540814779,1,j,change,0.9694220723240505,0.16689202541184034,0.5003653020173715,0.03533615482888308,0.35331215714859354,1.0010554951172708,4.649878382331053
30,24,female,85,165,215,change,valid,clock,5,1,1,0.025200066196930493,0,j,change,1.2041188363702986,0.18278466588574355,0.4997318766581884,0.035335513385462036,0.35327880209160867,1.0010731348108948,4.884380468304926
30,24,female,86,15,15,same,catch,clock,4,1,1,0.04202095723871935,0,j,change,0.2638965505741453,0,0.5003662641822757,0.03526912399365756,0.35334487076193,1.001080190688299,5.474605255730694
30,24,female,87,45,45,same,valid,anti,3,1,2,0.44936413715595336,1,f,same,0.8187017955283409,0.19100578453601644,0.500188584360103,0.03530793131926657,0.35330285621921576,1.0010907745045188,5.0261939827476
30,24,female,88,75,75,same,catch,clock,2,0,1,0.06119177618234062,0,j,change,0.25364211563419303,0,0.5000291856747481,0.035328778229995805,0.3532990075586895,1.0010734555326053,5.474322379190653
30,24,female,89,45,355,change,catch,anti,5,1,1,0.06680408522493053,0,j,change,0.25494841512181665,0,0.4998819744141656,0.035451614641260676,0.35331600580889244,1.0010641546032275,5.474049765744894
30,24,female,90,105,105,same,valid,clock,4,2,1,0.027156789293485417,0,j,change,0.23587060547129113,0.15294249946061483,0.4998271310032578,0.03530761059755605,0.35332723106853337,1.0010747384194474,3.883544667552542
30,24,female,91,15,325,change,valid,anti,2,1,2,0.27765102143439435,1,j,change,0.7208332478076045,0.18630890825450805,0.4998784464755772,0.03534770081023453,0.3532752741527929,1.0010846807922462,4.684281237010737
30,24,female,92,75,25,change,valid,anti,5,0,1,0.09555518209299407,0,j,change,2.6714174103133246,0.09965824185227815,0.49999518917456953,0.035311779979792846,0.3533410221016311,1.0010657582117801,6.428286948422738
30,24,female,93,15,15,same,catch,anti,1,0,1,0.03948084136845864,0,j,change,0.2565305352716223,0,0.49967863685583325,0.03536373689530592,0.35331921302599767,1.0010356103719005,5.449782037532032
30,24,female,94,45,95,change,valid,clock,1,2,2,0.018687170618932214,1,j,change,1.6060681187236696,0.19490067182288365,0.500738622076824,0.03528997090415942,0.3533519266395615,1.0010481185181561,5.3691035315307545
30,24,female,95,135,135,same,valid,anti,4,2,2,0.3447533778410161,1,f,same,0.8418620717081922,0.1857500957587682,0.4992434175078415,0.03531947730061802,0.3532990075586895,1.0010644753251654,4.849315323313249
30,24,female,96,15,65,change,valid,clock,1,1,2,0.052086807818341185,1,j,change,1.502310479132575,0.18191332420490866,0.499743743361023,0.03535764318303336,0.35332145807774396,1.0010413833624625,5.190831657027729
30,24,female,97,75,75,same,valid,anti,4,2,2,0.30171092198520455,1,j,change,2.8127203358085353,0.1776761408796022,0.5001555500248287,0.03532813678657476,0.3532938760115485,1.001045552744472,6.722665530884342
30,24,female,98,135,135,same,catch,clock,2,2,1,0.09510809604194037,0,j,change,0.3070034714917256,0,0.4999919819574643,0.035360529678428065,0.3532913102378643,1.0010680032637538,5.54489045429591
30,24,female,99,135,135,same,catch,clock,2,1,1,0.03870565701754458,0,j,change,0.2528438393210308,0,0.4999906990706222,0.03532332596091692,0.35332049591283976,1.0010718519240527,5.426963009241945
30,24,female,100,15,65,change,valid,clock,3,2,2,0.06876401553836331,1,j,change,1.3431981983137575,0.1699539941080968,0.49964111241683895,0.03534192781967249,0.353339739214789,1.0010378554238741,5.0854299979987445
30,24,female,101,135,135,same,valid,anti,2,2,2,0.1669693210449168,1,f,same,0.5990811964716158,0.1625302206316392,0.5048582923236609,0.035327495343153714,0.35335385096959726,1.0010121976877144,4.489588090705183
30,24,female,102,45,95,change,catch,clock,4,0,1,0.06590029147196219,0,j,change,0.2768790443005855,0,0.49949999486852903,0.03533294761200523,0.35329195168128535,1.0010551743957876,5.4612786276190946
30,24,female,103,165,165,same,valid,clock,2,0,1,0.06166836862985292,0,j,change,0.2949683896692932,0.1069921484187493,0.5007482437279123,0.03530472410238872,0.3533249860165597,1.0010663996552012,4.0379593376198955
30,24,female,104,75,75,same,valid,clock,2,1,2,0.06811006399038888,1,j,change,1.3142322179060102,0.17746907966826203,0.49953527425554967,0.03534321070651458,0.35327848136989815,1.0010901330610977,5.002339664807323
30,24,female,105,135,135,same,catch,clock,5,2,1,0.10656716168978164,0,j,change,0.28821559425887244,0,0.49955804549631466,0.0353634161735954,0.35326372817166884,1.001075700584579,5.520242029424253
30,24,female,106,105,105,same,valid,clock,5,1,1,0.4693450991157988,0,j,change,1.310427496369357,0.17330166889862123,0.500933941592848,0.03530344121554663,0.35333107972883226,1.0010667203769117,5.463247858861905
30,24,female,107,105,155,change,valid,clock,5,0,1,0.11151814258528248,0,j,change,1.3357930549641424,0.11435879240629132,0.5000137910330977,0.03536501978214801,0.35330157333237366,1.0010805114100094,5.084876753064918
30,24,female,108,75,125,change,valid,clock,2,1,2,0.05699160478889098,1,j,change,1.050617260985291,0.18023591090851446,0.5000166775284924,0.03529895111182668,0.353258917346011,1.001121243066109,4.696220102322968
30,24,female,109,15,325,change,valid,anti,3,2,2,0.39478660460918036,1,j,change,0.6672900427458899,0.15531013010787925,0.5000439388729774,0.035298309668405636,0.35332787251172704,1.0010635131598065,4.6612810009596615
30,24,female,110,135,135,same,valid,clock,2,2,2,0.3039052998619809,1,f,same,1.0130103965145736,0.1487908277321373,0.5000981408404641,0.03532236379601272,0.3533179301391556,1.0010744176975095,4.92072368927461
30,24,female,111,75,75,same,valid,anti,2,2,2,0.17488312901218706,1,f,same,0.7593692430455121,0.14232274528409627,0.49978351285199096,0.03530504482409924,0.3533381356062364,1.001068965428658,4.543630018011754
30,24,female,112,105,105,same,valid,anti,3,2,2,0.06253431722211644,1,f,same,0.7565122541348046,0.13578434313063262,0.49993874215510914,0.03535411524421761,0.3532820093087139,1.0011125835801522,4.496923637445889
30,24,female,113,105,105,same,catch,clock,5,0,1,0.03113181405319665,0,j,change,0.5517160535323455,0,0.4994015333063544,0.035317873692065405,0.35335769963012353,1.0010365725368047,5.7326871218690485
30,24,female,114,75,25,change,catch,anti,4,1,1,0.07160272331202577,0,j,change,0.34879126405394345,0,0.4997219342853896,0.03535507740957655,0.3533188923040598,1.0010686447071748,5.544685833850735
30,24,female,115,15,325,change,catch,anti,4,0,1,0.0351408353133138,0,j,change,0.3362013336891323,0,0.5000134703113872,0.03535411524421761,0.35332049591283976,1.0010641546032275,5.49703043777231
30,24,female,116,165,215,change,catch,clock,2,0,1,0.03219725154326625,0,j,change,0.3123592031731732,0,0.50089417210188,0.03531851513548645,0.3533317211722533,1.0010452320229888,5.498118005059723
30,24,female,117,45,355,change,valid,anti,3,0,2,0.1200621686946306,1,j,change,0.8330932196865888,0.12119241695789633,0.5000744074345675,0.035312742144924414,0.35332113735603343,1.0010766627497105,4.579444048174992
30,24,female,118,135,185,change,catch,clock,4,1,1,0.06618637522888093,0,j,change,0.6814566409918825,0,0.49902372314272725,0.03529542317301093,0.3533512851959131,1.0010657582117801,5.873249180235462
30,24,female,119,75,125,change,valid,clock,1,1,2,0.09950230406457194,1,j,change,1.1655459581368177,0.1762526758728772,0.5000695966091371,0.03531210070150337,0.35332530673827023,1.001052287900393,4.861623980746344
30,24,female,120,15,15,same,valid,clock,4,1,2,0.08888577432480815,1,f,same,1.4374868504103233,0.17249662309907884,0.4997543271770155,0.03536501978214801,0.3532820093087139,1.001065116768359,5.143487040277478
30,24,female,121,15,325,change,valid,anti,2,0,2,0.04222589840560431,1,j,change,1.190503558727869,0.11388247418041524,0.4999906990706222,0.03530600698923081,0.3533304382854112,1.0010628717166128,4.850187365617558
30,24,female,122,165,215,change,valid,clock,3,1,2,0.07210753926915459,1,j,change,1.3937041688691352,0.1686521556010977,0.4994627911510179,0.03531562864031912,0.3532733498225298,1.0010795492448779,5.025566651101144
30,24,female,123,15,65,change,catch,clock,1,2,1,0.14965612219248214,0,j,change,0.9267997618962909,0,0.5004797996643902,0.035338720602567264,0.3533086292097778,1.001102961929064,6.145972312737058
30,24,female,124,135,185,change,valid,clock,5,0,1,0.6158254350268635,0,j,change,0.536696014840345,0.10693862838398849,0.4997799849131752,0.035338399881084115,0.35330830848806727,1.001068965428658,4.802631713987921
30,24,female,125,165,165,same,valid,anti,1,0,1,0.05040398105438726,0,j,change,0.8350207571083956,0.11326929658647371,0.4994166072262942,0.03531594936180227,0.353311836426883,1.0010914159477124,4.49631266260576
30,24,female,126,45,355,change,catch,anti,5,2,1,0.07120823562013356,0,j,change,0.7689559354039375,0,0.4990618890251426,0.035348342253655574,0.35329451745496954,1.0010862844005715,5.9672870279616745
30,24,female,127,135,185,change,catch,clock,2,0,1,0.05139116244959041,0,j,change,0.3519391475474549,0,0.5007363770250777,0.03531530791838122,0.35332274096458605,1.0010660789334906,5.544979935650417
30,24,female,128,165,215,change,valid,clock,5,2,1,0.05964140748073987,0,j,change,0.36223399342134144,0.129715395582293,0.5008483088986395,0.035293178121264646,0.35335096447420256,1.0010647960466486,4.050172419986438
30,24,female,129,165,165,same,valid,clock,1,0,1,0.2694626756913294,0,f,same,0.8933045496296472,0.1191726809475573,0.49916580285616874,0.035295423173238305,0.35330542199267256,1.0010670410986222,4.813264600534694
30,24,female,130,75,75,same,valid,clock,1,1,1,0.07025954082928365,0,j,change,0.4480645728244781,0.16501306125740545,0.499892878952096,0.035302158328704536,0.35330638415780413,1.0011045655376165,4.131223604603974
30,24,female,131,15,15,same,valid,clock,1,2,1,1.0145697454238416,0,f,same,1.8716269698725227,0.1505633436927712,0.49980596337104544,0.03531819441377593,0.35328233003019704,1.001064475324938,6.616588752674943
30,24,female,132,165,165,same,valid,anti,1,1,1,0.2757398408193694,0,j,change,0.16676502132168025,0.17146039996795143,0.4994178901131363,0.03532300523943377,0.3533147229222777,1.0010667203769117,4.036473754701774
30,24,female,133,165,165,same,catch,anti,4,0,1,0.07272909792527571,0,f,same,0.9261579977730889,0,0.5003300226301235,0.03535379452250709,0.3532775192047666,1.001058702334376,6.203982850369357
30,24,female,134,45,45,same,valid,anti,2,2,1,0.5802548326346368,0,f,same,0.8935258476033141,0.1669977558540801,0.5003550389228621,0.03530279977212558,0.35329868683697896,1.0010901330610977,5.226572883364952
30,24,female,135,45,45,same,valid,clock,3,1,1,0.08759262442731597,0,f,same,0.8084746219333283,0.17729934345289994,0.5000532398023552,0.035344493593356674,0.3533041391058305,1.0010564572826297,4.567345142733984
30,24,female,136,135,185,change,valid,clock,1,0,1,0.11701114315474115,0,j,change,0.9672511071312329,0.12524902025245943,0.4999660034995941,0.03532941967341685,0.35332530673827023,1.0010558158389813,4.696843906031063
30,24,female,137,135,135,same,valid,clock,3,2,2,0.283207204179007,1,f,same,0.7207315790283246,0.18256919320354253,0.4995371985858128,0.035326533178022146,0.35331728869550716,1.0010580608907276,4.69639746142343
30,24,female,138,105,105,same,catch,anti,5,1,2,0.11359545704135598,1,f,same,0.7956791089579838,0,0.49975111996036503,0.03534481431483982,0.35329612106352215,1.0010997547119587,6.09774955996977
30,24,female,139,135,135,same,valid,anti,2,0,2,0.2538120981357679,1,f,same,0.6679455979021895,0.13143485034563612,0.5006911552652582,0.03529670605985302,0.3533259481816913,1.001063192438096,4.591161294792073
30,24,female,140,165,215,change,valid,clock,3,2,1,0.8988988982569026,0,j,change,6.379648861053283,0.178367896829063,0.4997212928421959,0.03530889348439814,0.3533477572573247,1.0010946231648177,10.997529801460587
30,24,female,141,165,165,same,valid,clock,1,1,2,0.4521611511086121,1,f,same,2.0433644604433994,0.18321303857956453,0.4998014732670981,0.035328778229995805,0.3533150436437609,1.0010686447069475,6.286802494445055
30,24,female,142,15,15,same,valid,anti,4,0,2,0.42927733703481863,1,f,same,1.116133327859643,0.12522724544928,0.4993037131876008,0.035373358546166855,0.3532778399267045,1.0010792285231673,5.273428720243373
30,24,female,143,105,105,same,catch,anti,4,0,1,0.07383654995828692,0,j,change,0.5916273034233654,0,0.4998412427580661,0.03537143421613109,0.3533057427143831,1.0010712104806316,5.791975735479127
30,24,female,144,165,115,change,valid,anti,4,0,1,0.5734985092856277,0,f,same,0.8633706311288734,0.11945542321322132,0.50031719376193,0.03532941967341685,0.35328136786529285,1.0011048862590997,5.18013751263652
30,24,female,145,15,325,change,valid,anti,5,2,2,0.26777632098855975,1,j,change,0.906147850138268,0.1924112428358396,0.4991491253276763,0.035336154829110455,0.35328906518589065,1.0010955853299492,4.778146857184083
30,24,female,146,15,325,change,valid,anti,2,2,2,0.2312406669984739,1,j,change,0.845708166344366,0.18857201754538952,0.4997075018088708,0.03535796390474388,0.3532829714736181,1.0010490806832877,4.649287292236295
30,24,female,147,135,135,same,valid,anti,5,2,2,0.12385823074509972,1,f,same,0.49315162952279934,0.18504642399309293,0.5001889050818136,0.03532717462144319,0.35331632653060296,1.00103977975391,4.248915639929692
30,24,female,148,135,185,change,valid,clock,4,0,2,0.1596494896675722,1,j,change,0.7361034494260821,0.12478350850211622,0.5000529190806446,0.03535026658391871,0.3532938760115485,1.0010452320229888,4.473327500474625
30,24,female,149,45,95,change,valid,clock,5,1,2,0.08484147367789774,1,j,change,0.8064694698598487,0.1798997060735621,0.49985824100826903,0.0353553981310597,0.3532794435350297,1.0010548536738497,4.48493473954818
30,24,female,150,15,15,same,valid,anti,5,0,2,0.2205061116728757,1,f,same,0.6320019961717662,0.11918938409678159,0.4995407265244012,0.03532332596114429,0.3533144022003398,1.0010680032637538,4.531621876812096
30,24,female,151,105,105,same,catch,clock,3,2,1,0.013550812580433558,0,j,change,2.0404968877166993,0,0.5020173394980247,0.035303120493836104,0.35334390859679843,1.0010667203769117,7.242187219368589
30,24,female,152,15,65,change,valid,clock,5,2,2,0.018462665428160108,1,j,change,2.0240198103381317,0.18174961031329487,0.5002322025115973,0.035323967404337964,0.35332691034682284,1.001047477074735,5.733566540772699
30,24,female,153,165,165,same,valid,clock,3,1,2,0.10201964869429503,1,f,same,0.6183851149210113,0.17672627873431349,0.4993640088673601,0.03532941967341685,0.3532871408558549,1.001062550994675,4.448314094307534
30,24,female,154,75,25,change,valid,anti,5,2,2,0.026285388432597756,1,j,change,1.3264494696545626,0.17837093246980423,0.5004198247063414,0.03530504482409924,0.35332145807774396,1.0010686447071748,4.944692184140649
30,24,female,155,15,15,same,valid,clock,2,1,2,0.07759220107436704,1,f,same,0.5597947124538223,0.17372571175815643,0.49989191678673706,0.035358284626454406,0.3533217787994545,1.0010407419190415,4.31991861366123
30,24,female,156,45,45,same,valid,anti,1,0,2,0.111625584354897,1,f,same,0.5673531607765199,0.11401136337199583,0.5000599749580488,0.03528451863508053,0.35335353024788674,1.0010510050135508,4.307930357207169
30,24,female,157,75,75,same,valid,clock,3,1,2,0.09313661974715615,1,f,same,0.7869025596155552,0.17065724818337652,0.5000420145427142,0.03532909895170633,0.353294196733259,1.001047477074735,4.5196012274661825
30,24,female,158,15,15,same,valid,anti,1,0,2,0.06758824978305711,1,f,same,0.5118096144667561,0.1089382930149077,0.5003521524274674,0.035315628640091745,0.353311836426883,1.0010538915087182,4.2495833825105365
30,24,female,159,135,185,change,valid,clock,4,1,2,0.04651266465862136,1,j,change,0.6643278571170868,0.16765994601685213,0.4998361112109251,0.035341286376251446,0.3532951588983906,1.0010747384194474,4.354617494470858
30,24,female,160,135,185,change,catch,clock,5,2,1,0.029316849948372692,0,j,change,0.4644489616314331,0,0.500609371231576,0.0352816321399132,0.3533217787994545,1.0011036033722576,5.615983230103666
30,24,female,161,165,115,change,valid,anti,1,1,2,0.6476721377512149,1,j,change,0.8866463671213296,0.16483258829285674,0.4998313003854946,0.03526591677655233,0.35335641674328144,1.0010577401692444,5.179608642551784
30,24,female,162,75,125,change,valid,clock,2,0,1,0.063911816926975,0,j,change,0.30161566763990777,0.10422438060441341,0.49934989711255184,0.03529221595613308,0.35333332478057855,1.0010734555326053,3.977282961210676
30,24,female,163,15,325,change,valid,anti,4,2,2,0.05967668686798788,1,j,change,0.7214496749163573,0.175254201489816,0.5003258532481141,0.03530921420610866,0.35330830848806727,1.001093019556265,4.449681330918111
30,24,female,164,105,155,change,valid,clock,3,2,2,0.03452986047318518,1,j,change,0.680443801860747,0.17232559746559642,0.49996824855156774,0.03531979802232854,0.35333204189396383,1.0010320824330847,4.378679640073415
30,24,female,165,45,45,same,valid,clock,5,2,2,0.12304712556374398,1,f,same,0.48323138659543474,0.1692890381946092,0.4999634377259099,0.035342248541383015,0.35330670487974203,1.0010551743955602,4.260668807377215
30,24,female,166,75,75,same,catch,anti,4,2,1,0.04403252374618205,0,j,change,0.3450901356268332,0,0.5004307292442718,0.03532108090894326,0.35332338240823447,1.0010445905793404,5.521987076198229
30,24,female,167,135,135,same,valid,anti,5,0,2,0.09267061111586372,1,f,same,0.8421391752578984,0.10839405192210176,0.49996472061297936,0.03532076018746011,0.3533182508606387,1.0010625509949023,4.567089206816718
30,24,female,168,105,155,change,catch,clock,3,2,1,0.028118954395949913,0,j,change,0.3843083059223318,0,0.49950288136392373,0.035336475550593605,0.35333396622422697,1.0010317617113742,5.567293827261892
30,24,female,169,165,165,same,valid,anti,3,0,2,0.2234541855466432,1,f,same,0.4651907909253623,0.1039241978211477,0.5001465698171614,0.03533647555082098,0.35329612106352215,1.0010471563530245,4.355390433769799
30,24,female,170,165,115,change,catch,anti,1,1,1,0.06841891898829999,0,j,change,0.6831221487841503,0,0.49967190170013964,0.035328136786347386,0.35330670487974203,1.001085963678861,5.862510455527399
30,24,female,171,135,135,same,valid,anti,4,1,2,0.052686557399056255,1,f,same,0.527074043094899,0.16196243429963517,0.4996295664354875,0.035312742144924414,0.35330830848806727,1.0010856429571504,4.22554240454042
30,24,female,172,105,105,same,valid,anti,4,1,1,0.072892986714578,0,j,change,0.2878201444016213,0.15911488285717637,0.49918664976689797,0.03535892606964808,0.3532804057001613,1.0010943024431072,3.9542086384465165
30,24,female,173,165,215,change,valid,clock,2,0,2,0.11060633078977844,1,j,change,0.6107990845318909,0.09949381976245368,0.4999114808106242,0.03537752792840365,0.3533246652948492,1.0010724933674737,4.342978183226933
30,24,female,174,105,155,change,valid,clock,1,1,2,0.06004744115398353,1,j,change,0.7722263345872307,0.16388560462158352,0.5005971838068035,0.035278424923035345,0.35335064375249203,1.0010670410986222,4.46192712689799
30,24,female,175,135,135,same,valid,clock,4,2,2,0.07494785065136966,1,f,same,0.4079692286770751,0.16645577270673012,0.5000115459811241,0.03530825204120447,0.35331183642665565,1.0010676825418159,4.130900637851255
30,24,female,176,45,45,same,catch,clock,2,1,1,0.06209653210044053,0,j,change,0.2729133204702521,0,0.5002338061199225,0.03529830966817826,0.3533249860165597,1.0010439491361467,5.4744689490078144
30,24,female,177,45,355,change,catch,anti,1,1,1,0.013827274686718738,0,j,change,0.2859096052300174,0,0.49988774740472763,0.03535892606964808,0.3533102328183304,1.001070569037438,5.437923031923447
30,24,female,178,75,75,same,catch,clock,3,2,1,0.00158372375858562,0,j,change,0.3336977800927343,0,0.5004971186360763,0.0353258917346011,0.35329387601177586,1.0010805114100094,5.486608265383211
30,24,female,179,105,55,change,valid,anti,4,0,1,0.034667450082906726,0,j,change,0.3378139224007555,0.09533767305609464,0.499499353425108,0.035359888234779646,0.3532848958038812,1.0010984718251166,4.036559387395982
30,24,female,180,75,75,same,catch,anti,3,2,1,0.06544550810008332,0,j,change,0.48506046245506695,0,0.5003508695406254,0.03532717462144319,0.35328521652559175,1.0010737762543158,5.685968874600576
30,24,female,181,75,125,change,valid,clock,5,0,2,0.09779702678156355,1,j,change,0.5839290204389727,0.09928940025957232,0.5001661338410486,0.03529510245130041,0.35333524911106906,1.0010705690372106,4.331530342838732
30,24,female,182,15,15,same,valid,anti,3,0,2,0.12278381304736286,1,f,same,0.5015445957110387,0.09532019296535772,0.5000933300150336,0.03535283235737552,0.3532913102380917,1.0010426662493046,4.28455263171395
30,24,female,183,45,355,change,valid,anti,5,1,2,0.04391610176890026,1,j,change,0.6800409754043812,0.16119419093497273,0.4991481631627721,0.03535219091418185,0.35329612106352215,1.0010115562442934,4.365838905338478
30,24,female,184,75,125,change,valid,clock,5,2,2,0.07156487815132095,1,j,change,0.6464463394108861,0.16379749770769264,0.49989576544726333,0.03532332596091692,0.35330574271461046,1.0010776249146147,4.378345127339344
30,24,female,185,165,115,change,catch,anti,4,1,1,0.085447316970658,0,j,change,0.3260161746366066,0,0.5001667752844696,0.03532845750828528,0.35329163095957483,1.001075059141158,5.556655167724557
30,24,female,186,165,165,same,valid,clock,4,2,2,0.14704737187821593,1,f,same,0.5542558486808957,0.16104423333484735,0.5000891606327968,0.03534834225388295,0.35331344003543563,1.001046835631314,4.307864288536621
30,24,female,187,75,75,same,valid,clock,2,2,2,0.045376668394283115,1,f,same,0.5430244954407044,0.1583889353617819,0.4999002555509833,0.035307931319493946,0.35332530673827023,1.0010702483155,4.296321835246545
30,24,female,188,15,325,change,catch,anti,2,2,1,0.028501575385007527,0,j,change,0.5060241157061682,0,0.500016036084844,0.035334871942268364,0.35331504364398825,1.0010452320227614,5.6859586115060665
30,24,female,189,15,65,change,valid,clock,2,1,1,0.6748475289034559,0,j,change,0.34218279340916524,0.1585249060667056,0.5003300226301235,0.035321722352364304,0.35328393363897703,1.0010830771834662,4.697003625438128
30,24,female,190,135,185,change,valid,clock,2,0,1,0.44576243245592195,0,f,same,0.699571964818233,0.09153754210085077,0.4995891555013259,0.035342248541383015,0.3533009318889526,1.0010401004756204,4.719249524049019
30,24,female,191,135,135,same,valid,clock,2,0,1,0.07321595346707,0,j,change,1.4782040739353306,0.09502298088003015,0.5007783915677919,0.03533904132427779,0.3533002904455316,1.0010840393488252,5.168989867760047
30,24,female,192,45,95,change,catch,clock,5,1,1,0.06785380735163926,0,j,change,0.4910913133169288,0,0.499613851072354,0.03532557101289058,0.3532874615775654,1.0010891708959662,5.696788100455251
30,24,female,193,15,325,change,valid,anti,5,1,1,0.0949971263335101,0,j,change,0.3901460823203706,0.16304426682593012,0.5008819846771075,0.03534288998480406,0.3533006111672421,1.0010538915089455,4.108963914959986
30,24,female,194,165,215,change,catch,clock,1,0,1,0.0540005542070503,0,f,same,1.8141097022164558,0,0.4993210321592869,0.035348342253655574,0.35331632653060296,1.0010426662493046,7.063438110974857
30,24,female,195,45,95,change,catch,clock,4,2,1,0.06925953056611434,0,j,change,0.37336464004761183,0,0.4994887696088881,0.035308252040977095,0.35334968158758784,1.001059985221218,5.556391213764982
30,24,female,196,165,115,change,valid,anti,3,1,1,0.07436574076450597,0,j,change,0.3739987068499886,0.16720157491951962,0.49998203958466547,0.035328778229995805,0.3533009318889526,1.0010635131598065,4.037130592745143
30,24,female,197,135,85,change,valid,anti,5,2,2,0.13011005885869054,1,j,change,0.6073436289275378,0.15590267419223278,0.49956734642569245,0.035346097201681914,0.35331728869573453,1.0010384968672952,4.425296539284545
30,24,female,198,105,155,change,valid,clock,2,2,2,0.025347277457512973,1,j,change,0.6416268544128343,0.15354425863128954,0.49974566769128614,0.035370472050999524,0.35328265075190757,1.0010667203769117,4.319372745326291
30,24,female,199,15,65,change,valid,clock,5,0,1,0.06010260528660183,0,f,same,2.835788564860195,0.09865294226183965,0.5004528590413884,0.0353367962725315,0.3533070256012252,1.001053570787235,6.617014991815267
30,24,female,200,75,25,change,valid,anti,3,0,1,0.07767975809883865,0,j,change,0.9455000821046724,0.10223653887281327,0.4998931996738065,0.03529061234735309,0.3533368527196217,1.0010570987258234,4.613796549547715
30,24,female,201,15,15,same,valid,anti,4,2,2,0.21353811200128803,1,f,same,1.2624449641562023,0.1510784723597038,0.5028569889107075,0.03531723224864436,0.35329195168151273,1.0010827564617557,5.2292791330764885
30,24,female,202,45,45,same,valid,anti,4,0,2,0.370167686133982,1,f,same,1.197460333140043,0.1056268836698669,0.5003806966587945,0.03532428812627586,0.35327206693591506,1.0010965474948534,5.179877728058727
30,24,female,203,45,45,same,valid,anti,2,0,2,0.10151611562400831,1,f,same,0.4865373858872317,0.10206581288918873,0.49959140055307216,0.035355718852770224,0.3532630867282478,1.0010853222356673,4.22524509552386
30,24,female,204,75,75,same,catch,clock,5,1,2,0.4376247607417554,1,j,change,1.987171773411319,0,0.5001003858924378,0.03531530791838122,0.3533464743704826,1.0010218193388027,7.523008895537032
30,24,female,205,15,325,change,valid,anti,5,0,2,0.17325674926746615,1,j,change,0.5492080098320002,0.0984742988946034,0.5005798648351174,0.035278745644518494,0.3533301175637007,1.0010920573913609,4.331902700733281
30,24,female,206,75,75,same,valid,anti,3,1,2,0.10533238314178561,1,f,same,0.7413963196543136,0.17156700127824318,0.49991340514065996,0.03533936204598831,0.3532784813701255,1.0010731348106674,4.449367023651348
30,24,female,207,105,105,same,valid,anti,2,0,1,0.044258311823568874,0,j,change,0.3943250860816079,0.09511460581230866,0.500063823618575,0.035310497092950754,0.35327976425674024,1.0011007168770902,4.06081781467924
30,24,female,208,165,165,same,valid,anti,3,2,2,0.21116316780671696,1,f,same,0.7345691168093254,0.1486718685547066,0.5000898020762179,0.035317873692065405,0.35331504364398825,1.001045552744472,4.5788224895188705
30,24,female,209,105,55,change,valid,anti,1,0,1,0.06193071898110247,0,j,change,1.4086562145603239,0.09834185498301963,0.5003823002673471,0.0353258917346011,0.3532871408558549,1.0010843600703083,5.073981195445413
30,24,female,210,45,355,change,valid,anti,5,0,2,0.05428856229423218,1,j,change,0.8102700220142651,0.10155351019549874,0.4998191129607221,0.03535860534816493,0.3532929138464169,1.0010740969760263,4.484598623205784
30,24,female,211,135,135,same,catch,clock,4,2,1,0.05499126354084183,0,j,change,0.4120343762347147,0,0.5001763969355579,0.03533743771572517,0.3532964417852327,1.001085963678861,5.579956240731008
30,24,female,212,135,135,same,catch,anti,5,2,1,0.05944993662524212,0,j,change,0.43153521780868687,0,0.5002908945825766,0.03534513503677772,0.35328906518589065,1.001048439240094,5.626874618341162
30,24,female,213,15,15,same,valid,anti,3,1,2,0.09046564942309487,1,f,same,0.5887353558471204,0.16910830287150264,0.5003226460310088,0.03530825204120447,0.3533034976626368,1.0010776249146147,4.3204968748877945
30,24,female,214,135,185,change,valid,clock,2,2,2,0.06631594679606678,1,j,change,0.62423347513527,0.1463989120668931,0.49912763697398077,0.035303120493836104,0.35334038065821005,1.001053250065297,4.283179301391101
30,24,female,215,165,165,same,valid,anti,2,2,2,0.0395353640576559,1,f,same,0.5492599667475133,0.14423671069520852,0.5006193136043748,0.03531017637124023,0.353327231068306,1.0010388175890057,4.272884134795504
30,24,female,216,135,85,change,valid,anti,4,1,2,0.04373489400791186,1,j,change,0.5810838982310997,0.16676945918789432,0.5004506139896421,0.03531755297035488,0.35331985446919134,1.0010946231648177,4.225725215909733
30,24,female,217,75,75,same,valid,anti,2,1,2,0.09663248628589827,1,f,same,0.6395729526409468,0.16453787654738333,0.5004236733668677,0.035308252040977095,0.353306063436321,1.0011103385281785,4.390790091495546
30,24,female,218,45,45,same,valid,anti,5,2,2,0.09672453341408982,1,f,same,0.5724552015929021,0.14197398363754737,0.5002771035494789,0.03533839988085674,0.35329195168128535,1.0010599852209907,4.3198669774672
30,24,female,219,75,75,same,valid,anti,1,2,2,0.04693665874697217,1,j,change,0.6667643798782592,0.13974809338469563,0.500022771240765,0.03532685389973267,0.3533275517900165,1.0010526086221034,4.296544416107054
30,24,female,220,75,75,same,catch,clock,1,0,1,0.04055493834448498,0,j,change,0.23945531192111957,0,0.4995930041616248,0.03535219091395447,0.35331921302599767,1.0010545329523666,5.438571851924053
30,24,female,221,105,55,change,valid,anti,1,2,1,0.0649852724595803,0,j,change,0.3812409235758878,0.1375931059719249,0.4997661938800775,0.03537464143323632,0.35329996972382105,1.0010734555326053,4.095794119760058
30,24,female,222,135,85,change,valid,anti,2,1,2,0.09333675008861064,1,j,change,0.5695638954600781,0.16225358879298263,0.4994945425996775,0.03534256926309354,0.35327687776134553,1.001063192438096,4.2601598220380765
30,24,female,223,135,85,change,catch,anti,3,1,1,0.05655157461524141,0,j,change,0.372051605404522,0,0.499715199129696,0.03534160709796197,0.3532900273510222,1.0010667203769117,5.591217100368112
30,24,female,224,135,185,change,catch,clock,2,2,1,0.0497320690910783,0,j,change,0.28627009642173107,0,0.5007261139305683,0.03533968276769883,0.35325603085084367,1.0010846807920188,5.510217231222441
30,24,female,225,135,85,change,valid,anti,1,2,2,0.1549615005671967,1,j,change,0.5519110523264317,0.14525239876897542,0.5002046204451744,0.03534770081023453,0.353311194983462,1.001062550994675,4.391050196794822
30,24,female,226,135,135,same,valid,anti,2,1,3,2.4365307790201314,1,f,same,1.6486381515142057,0.1599740794885423,0.49917285873380024,0.03534096565454092,0.35330638415780413,1.0010471563530245,7.781413086984912
30,24,female,227,135,135,same,catch,anti,4,1,1,0.09545704125230259,0,j,change,1.0480822766621714,0,0.4996481682942431,0.03536149184333226,0.35330445982776837,1.001036572537032,6.309315874954336
30,24,female,228,45,355,change,catch,anti,3,2,3,0.14257683209075367,1,j,change,0.7395855249314991,0,0.5003059685025164,0.0353329476122326,0.35333332478057855,1.0010789078016842,6.016573614610479
30,24,female,229,105,155,change,valid,clock,5,1,2,0.12540859944670046,1,j,change,2.1666197343911335,0.15775271003115485,0.4998845401876224,0.03528419791359738,0.3533301175637007,1.001087888009124,5.862125910208306
30,24,female,230,75,75,same,valid,clock,5,0,1,0.05940760136081735,0,j,change,0.25660526342790035,0.09821843175208858,0.49987395637140253,0.035264954611648136,0.3533503230307815,1.0010728140891842,3.919151832219086
30,24,female,231,15,65,change,valid,clock,3,0,2,0.0318598523140281,1,j,change,1.8653382587633587,0.10132225972030527,0.4996295664357149,0.035358284626454406,0.3532762363179245,1.0010747384194474,5.462312955104153
30,24,female,232,15,15,same,valid,anti,5,1,3,0.03959854623258252,1,f,same,0.8420189046200903,0.1556462342572515,0.499357594433377,0.03530857276268762,0.35331247787030406,1.0010805114100094,4.6015010417040685
30,24,female,233,45,95,change,valid,clock,1,0,2,0.044363829263147636,1,j,change,1.2831671139663285,0.09810314782037258,0.5003200802573247,0.035325250291180055,0.35331247787030406,1.001087246565703,4.967720964422824
30,24,female,234,135,185,change,valid,clock,3,2,2,0.2332711560864027,1,j,change,1.1798870289881052,0.14337001006617436,0.5001776798224,0.03532557101289058,0.3533330040590954,1.0010394590321994,5.061761377923176
30,24,female,235,15,325,change,valid,anti,1,2,2,0.5446730049827693,1,j,change,0.7753039800279566,0.14137880513946519,0.4997424604741809,0.03530985564952971,0.3533451914836405,1.0010513257352613,4.955292036351921
30,24,female,236,165,165,same,valid,anti,2,1,3,0.06319821114266233,1,f,same,1.0629958357494615,0.15360873767252986,0.5004300878006234,0.035316270083740164,0.3532925931247064,1.0010882087308346,4.873830007235483
30,24,female,237,15,15,same,catch,anti,1,0,1,0.0012540218501726486,0,j,change,0.45869906297934904,0,0.5000663893920319,0.0353258917346011,0.3533192130257703,1.0010702483155,5.591924291718215
30,24,female,238,15,15,same,valid,clock,1,0,3,0.06204425446321693,1,f,same,1.105064901243395,0.09509036735019555,0.5003357956209129,0.03532011874381169,0.35330093188918,1.0011048862590997,4.815173215376262
30,24,female,239,165,215,change,valid,clock,2,2,1,0.015420940817875817,0,j,change,0.3284369820344182,0.13940627060453348,0.49975881728096283,0.03535732246132284,0.3532951588983906,1.001063192438096,3.9898186896080006
30,24,female,240,75,75,same,valid,clock,1,0,1,0.05970009955194655,0,j,change,1.2094476274291992,0.0921845898186423,0.49945028300476224,0.03533166472539051,0.3532672561102572,1.0010401004756204,4.849148227307069
30,24,female,241,45,45,same,valid,anti,4,2,3,0.7057984559173747,1,f,same,1.077605350664271,0.14620380595767699,0.49999807566973686,0.03534673864510296,0.35326020023308047,1.0010891708959662,5.426676284041378
30,24,female,242,15,15,same,valid,anti,4,1,2,0.007644722460099729,1,f,same,1.059505421479571,0.15149681736264123,0.5003428514980897,0.03531979802232854,0.35331344003543563,1.0010724933674737,4.602835243979371
30,24,female,243,15,15,same,valid,clock,5,2,2,0.29569257926959835,1,f,same,0.7315844806616951,0.1444823586915702,0.5000307892833007,0.03531947730061802,0.35332691034682284,1.0010317617113742,4.672776308159655
30,24,female,244,165,115,change,valid,anti,4,2,2,0.053930316154492175,1,j,change,1.1332473585359821,0.14267182964164135,0.5003951291353133,0.035317552970582256,0.35332787251172704,1.0010461941881204,4.779711979083686
30,24,female,245,165,215,change,valid,clock,4,0,2,0.0507975065811479,1,j,change,0.7544326946267574,0.09486586266084422,0.500016998250203,0.03534417287141878,0.3533246652948492,1.0010782663580358,4.413940746024309
30,24,female,246,135,85,change,valid,anti,3,2,2,0.18163496225747622,1,j,change,0.9290374372028509,0.14088918159256056,0.500113856203825,0.03528772585218576,0.3533182508608661,1.0010702483155,4.673696458719178
30,24,female,247,105,55,change,valid,anti,5,1,3,0.020082630739125307,1,j,change,0.7631094995201693,0.14937325689007735,0.4995692707559556,0.03533455122055784,0.3533060634360936,1.0010817942968515,4.401753962837347
30,24,female,248,135,135,same,valid,anti,5,1,3,0.12879958998928487,1,f,same,0.9755533090781228,0.14732991363432127,0.5002427863275898,0.035362133286753306,0.3532794435350297,1.0010830771836936,4.8268872547762385
30,24,female,249,75,75,same,catch,clock,4,2,1,0.04305207750689988,0,j,change,0.24991629163605467,0,0.4994579803255874,0.03529606461643198,0.3533249860165597,1.001082756461983,5.402558974306203
30,24,female,250,165,165,same,valid,clock,5,1,3,0.08480908078581706,1,f,same,0.9221002268143366,0.1453793902177991,0.5006295766986568,0.03532364668262744,0.35333204189396383,1.0010439491361467,4.685160335192677
30,24,female,251,45,355,change,valid,anti,1,0,1,0.25442884596623117,0,f,same,1.9502756282295195,0.09196289480294864,0.5083220866924876,0.03530857276268762,0.35334166354505214,1.0010307995462426,5.777087513406059
30,24,female,252,105,55,change,valid,anti,3,0,2,0.19534773929694893,1,j,change,1.2295087698141742,0.09457051958242096,0.4992786968950895,0.03535796390451651,0.3532618038416331,1.001091095226002,5.002336457590445
30,24,female,253,75,25,change,valid,anti,1,1,2,0.04563549080694429,1,f,same,3.708084239479149,0.1434828580648097,0.4994015333063544,0.03532076018746011,0.35332530673827023,1.0010340067633479,7.463381920532811
30,24,female,254,105,55,change,valid,anti,2,1,2,0.04787669405186534,1,j,change,0.6324195758263613,0.14150918701413587,0.5005016087400236,0.03530183760699401,0.35333204189396383,1.0010561365609192,4.355862215391426
30,24,female,255,165,115,change,catch,anti,1,1,1,0.031502247617709145,0,j,change,0.2282727083793361,0,0.5000009621649042,0.03533134400367999,0.3532871408558549,1.001098792546827,5.391926408481595
30,24,female,256,105,105,same,valid,clock,3,0,2,1.5556718349898802,1,j,change,3.9874132768520667,0.09175355769181934,0.49964399891223366,0.03535956751306912,0.3532993282804,1.0010516464567445,9.253944876919832
30,24,female,257,75,75,same,valid,anti,5,0,1,0.078810302094098,0,j,change,0.2558323241291873,0.08895260831572346,0.5002020546714903,0.035334871942268364,0.3532695011622309,1.001092378112844,3.9426536770101848
30,24,female,258,15,15,same,valid,anti,2,0,1,0.13788788082501924,0,j,change,0.7001341899597264,0.09155550320320172,0.5005340016318769,0.03530761059778342,0.35332434457313866,1.0010609473861223,4.473742514355536
30,24,female,259,75,75,same,catch,anti,5,2,1,0.10352768213147101,0,j,change,0.31391245837039605,0,0.4995102579630384,0.03536117112184911,0.3532871408558549,1.0011019997639323,5.55561731230091
30,24,female,260,165,165,same,catch,clock,3,2,1,0.0804421341078978,0,j,change,0.46409648848225515,0,0.5006632524771248,0.03529478172981726,0.35331600580889244,1.0010824357400452,5.675008531197136
30,24,female,261,165,115,change,valid,anti,3,0,2,0.08440208494766921,1,j,change,2.1132914128688753,0.0940296236038736,0.49980371831929915,0.035321722352364304,0.3533291553987965,1.0010619095512538,5.850713669928609
30,24,female,262,45,45,same,catch,clock,1,1,1,0.07930517567865536,0,j,change,0.28430022373549946,0,0.499533029203576,0.03532492956946953,0.35331857158234925,1.0010333653201542,5.497344103595651
30,24,female,263,135,135,same,valid,clock,3,0,3,0.011362528415929773,1,f,same,2.123219673839003,0.09136777644211629,0.4998066048144665,0.03533807915937359,0.35332787251172704,1.0010680032637538,5.744846964433236
30,24,female,264,15,65,change,catch,clock,4,2,1,0.008078979643187267,0,j,change,1.1834544164660201,0,0.4991949885309168,0.03532621245631162,0.3533185715825766,1.0010647960466486,6.368127896116903
30,24,female,265,15,15,same,catch,clock,2,2,1,0.13218480754130724,0,j,change,0.3304052511120972,0,0.4998871059613066,0.03536534050385853,0.35330959137490936,1.0010301581028216,5.638539908042503
30,24,female,266,45,95,change,catch,clock,5,0,1,0.06154841871375538,0,j,change,0.3209994457927223,0,0.5002123177659996,0.03531210070150337,0.3533089499314883,1.0010830771834662,5.568671968410172
30,24,female,267,105,105,same,valid,clock,2,0,2,0.024168945928977337,1,f,same,1.3086231160807529,0.08872201941002478,0.49950159847708164,0.035355718852770224,0.3533018940540842,1.0010731348108948,5.096530817506846
30,24,female,268,135,135,same,catch,anti,1,1,2,0.050590961805937695,1,j,change,1.1094671273087897,0,0.49974181903075987,0.03534256926309354,0.3532630867282478,1.0011039240941955,6.310437438741928
30,24,female,269,135,135,same,valid,anti,4,0,2,0.09317189913463153,1,f,same,0.5998547772137499,0.08623448836571405,0.4997658731581396,0.03531017637124023,0.3533275517902439,1.0010734555326053,4.40196050761233
30,24,female,270,135,135,same,valid,anti,3,0,1,0.09914373720357617,0,j,change,0.3268102815677594,0.08385233096290103,0.4996488097376641,0.035378810815473116,0.35322652445438507,1.0010914159479398,4.0842920774043705
30,24,female,271,135,185,change,valid,clock,1,1,2,0.05176512395246391,1,j,change,0.9580617889600944,0.139516038822419,0.499270999574037,0.035323005239206395,0.35328393363897703,1.0010843600703083,4.637348426924291
30,24,female,272,45,95,change,valid,clock,4,0,3,0.8347901582055783,1,j,change,1.4112591918838007,0.08602024392246592,0.49970397387005505,0.03535379452250709,0.3533022147757947,1.0010856429571504,5.897765467766021
30,24,female,273,165,115,change,valid,anti,1,2,1,0.44736026796908845,0,j,change,0.8574055282160771,0.13911839839512063,0.5000205261890187,0.03534930441855977,0.3532826507516802,1.0010776249150695,5.002848329424978
30,24,female,274,75,125,change,valid,clock,4,2,2,0.1713949597942701,1,j,change,0.8654979781704242,0.14526663141732607,0.5002639539598022,0.03531659080545069,0.35330542199289994,1.0010840393488252,4.602881427904322
30,24,female,275,15,15,same,catch,clock,1,1,1,0.046695155306679226,0,j,change,1.220429779908045,0,0.5000189225802387,0.03534577647997139,0.3533179301389282,1.0010619095514812,6.43994133358683
30,24,female,276,165,115,change,valid,anti,5,1,3,0.06102307656783523,1,j,change,0.8539645050882427,0.13758388890468512,0.4997694010971827,0.035365661225569056,0.35328714085608226,1.001092378112844,4.566701133559036
30,24,female,277,15,65,change,catch,clock,1,1,1,0.02956284349284033,0,j,change,0.4480834954047168,0,0.5002216186953774,0.03531338358834546,0.35333204189373646,1.0010449113010509,5.685753349617698
30,24,female,278,135,135,same,valid,clock,5,1,1,0.04035705305477677,0,j,change,0.3107568775562868,0.13573938171786837,0.5001164219775092,0.03530761059755605,0.3533127985920146,1.0010785870799737,4.025348560344355
30,24,female,279,135,85,change,catch,anti,1,0,1,0.12032997131473167,0,j,change,0.2846671293614236,0,0.500306930667648,0.035327495343153714,0.3533124778700767,1.0010551743957876,5.532914385266395
30,24,female,280,135,85,change,valid,anti,2,2,3,0.02329113063387922,1,j,change,4.4143974537259965,0.14372854219563636,0.5000686344437781,0.03536694411241115,0.35327880209160867,1.0011058484242312,8.147672779194636
30,24,female,281,105,105,same,catch,anti,3,0,1,0.07652708430623534,0,j,change,0.31871590728314914,0,0.4993742719616421,0.03533102328174209,0.3533150436437609,1.0010295166594005,5.579268613404565
30,24,female,282,45,45,same,valid,anti,5,1,1,6.01217619937097,0,j,change,2.0952601181279533,0.13906669463213367,0.500057409184592,0.03531049709317813,0.3533012526108905,1.001081473575141,11.739947619731993
30,24,female,283,135,135,same,valid,clock,2,1,3,0.15376392573625708,1,f,same,1.0751386800634464,0.14231200826849535,0.4992620193665971,0.03534160709796197,0.35327719848328343,1.0010850015137294,4.860338207447967
30,24,female,284,165,165,same,valid,clock,4,1,3,0.1712859144158756,1,f,same,0.6177122407930256,0.14048523438606547,0.4998970483343328,0.035300875441862445,0.3533400599367269,1.0010670410988496,4.473113899821783
30,24,female,285,75,25,change,valid,anti,2,0,3,0.10882408029829094,1,f,same,1.8554529745015316,0.0837021135966256,0.4997671560449817,0.035346417923847184,0.3533320418941912,1.0010676825418159,5.591865599647008
30,24,female,286,75,25,change,valid,anti,2,2,3,0.42338022712237944,1,j,change,0.6741198113641076,0.14209674818154605,0.49951250301501204,0.03536950988564058,0.35329708322842635,1.0010676825418159,4.68452434405981
30,24,female,287,45,95,change,valid,clock,3,2,3,0.09563375891002579,1,j,change,0.9792268554392649,0.14047916849618444,0.5001276472371501,0.0353149871966707,0.35332017519112924,1.0010875672874135,4.649941243784269
30,24,female,288,15,15,same,valid,anti,3,2,3,0.08069742858151585,1,f,same,0.9339739856213782,0.13887445641216603,0.49995092957988163,0.035303761937029776,0.353329476120507,1.0010753798628684,4.7088809121837585
30,24,female,289,75,25,change,valid,anti,1,0,3,0.04781479476378081,1,f,same,0.6821840378092929,0.08134112937391672,0.49972610366785375,0.03531819441377593,0.35330862921000517,1.001082756461983,4.436906344131785
30,24,female,290,105,55,change,catch,anti,4,1,2,0.09541759248304515,1,f,same,3.488023930970485,0,0.4999842846368665,0.03533904132427779,0.353315364365244,1.001049080683515,8.724490116640027
30,24,female,291,105,55,change,valid,anti,5,0,1,0.1067291261488208,0,j,change,0.3339347934293073,0.07897679585567935,0.5003043648944185,0.03533872060279464,0.35324737136488693,1.001093660999686,4.107921569432165
30,24,female,292,135,185,change,catch,clock,4,1,1,0.09116963355609187,0,j,change,0.2480609165968417,0,0.5000272613447123,0.03535379452250709,0.3532951588981632,1.0010436284146635,5.485581955940688
30,24,female,293,45,45,same,valid,clock,4,1,3,0.10388400394094788,1,f,same,1.7067208515286438,0.13865584597597808,0.49996055123074257,0.03532108090894326,0.35331760941744506,1.0010429869707878,5.497507350941305
30,24,female,294,165,115,change,valid,anti,5,0,1,0.07342506401619175,0,j,change,0.23790173600218623,0.08118336418211596,0.5000618992880845,0.03532460884798638,0.3533031769406989,1.0010182913997596,3.8957327336265735
30,24,female,295,15,65,change,valid,clock,2,2,2,0.2738623359828125,1,j,change,0.7879041734877319,0.13734399285631882,0.4997912101730435,0.03533872060279464,0.35327399126572345,1.0010859636790883,4.69634261801275
30,24,female,296,45,45,same,valid,clock,2,2,2,0.0942719745676186,1,f,same,0.6380540146660678,0.13587736782515303,0.5000788975385149,0.035306648432651855,0.3533208166345503,1.0010747384189926,4.4256573511979695
30,24,female,297,45,45,same,valid,clock,2,0,2,0.09751447096323318,1,f,same,0.5295083208038704,0.08328762891121158,0.49982360306466944,0.03534000348963673,0.35328233003019704,1.0010494014049982,4.284278414660093
30,24,female,298,75,75,same,valid,clock,1,2,3,0.05871131454841816,1,f,same,0.9894857804824824,0.13445784017836462,0.5001728689967422,0.03532460884798638,0.3533144022003398,1.0010057832537314,4.7908365319981385
30,24,female,299,15,65,change,valid,clock,2,0,3,0.17298221149167148,1,j,change,1.041306710011213,0.08103242247330912,0.5003919219184354,0.03532108090894326,0.3533275517902439,1.0010449113015056,4.814906374921065
30,24,female,300,75,75,same,valid,anti,3,0,3,0.09583517213786763,1,j,change,2.056492882544262,0.07877930007192391,0.49960519158639727,0.035377848650114174,0.35331825086041135,1.0010545329523666,5.721522478742372
30,24,female,301,105,155,change,catch,clock,5,1,1,0.07509249613849533,0,j,change,0.28950681982632887,0,0.512340088160272,0.03532781606463686,0.3532916309600296,1.0010769834711937,5.544960050905047
30,24,female,302,45,355,change,valid,anti,2,0,2,0.21516256741597317,1,j,change,0.6672541219154482,0.07665752895448445,0.5000628614534435,0.0353297403949,0.3533317211722533,1.0010449113015056,4.543561704289459
30,24,female,303,45,95,change,catch,clock,1,2,1,2.4649925849143983,0,j,change,0.2461006655616984,0,0.4996433574688126,0.035337758437435696,0.3532913102380917,1.0010878880093514,7.805395693605533
30,24,female,304,135,135,same,valid,clock,1,2,3,2.682458896306798,1,f,same,0.6716922688110571,0.13295448483134237,0.5005394539007284,0.03533551338568941,0.3532855372473023,1.0010888501742556,7.12319209177258
30,24,female,305,165,165,same,valid,anti,4,0,2,0.23467238919693045,1,j,change,0.6726598861823732,0.07462715317078764,0.5001440040437046,0.035314345753249654,0.3532945174551969,1.0010785870799737,4.5316834553786975
30,24,female,306,15,15,same,valid,anti,1,1,3,0.07904186316227424,1,f,same,0.5546163398726094,0.13691548163434725,0.4998999348290454,0.035291895234422554,0.35333492838935854,1.0010503635699024,4.378340316513913
30,24,female,307,15,15,same,catch,clock,5,2,2,0.0658871418822855,1,f,same,1.0607648955988225,0,0.5002601052992759,0.03535219091418185,0.35328585796924017,1.0010805114102368,6.333729531540939
30,24,female,308,45,355,change,valid,anti,2,1,3,0.03390509459995883,1,j,change,1.1630295756722262,0.13524185278221496,0.5005724882357754,0.03535122874927765,0.35330542199289994,1.001043307692271,4.780112881209789
30,24,female,309,165,165,same,catch,anti,2,0,1,0.26542350659156,0,j,change,1.32488274414618,0,0.49917221728992445,0.03531306286686231,0.35331183642665565,1.0010644753251654,6.721335177269339
30,24,female,310,105,105,same,valid,clock,1,1,1,0.9012408081157446,0,j,change,0.7460429356556233,0.1336066307160827,0.49997658731581396,0.035327495343153714,0.3533134400349809,1.0010404211975583,5.273487412314353
30,24,female,311,165,215,change,valid,clock,5,0,2,0.09499199478659648,1,j,change,0.8964328690994989,0.07257515621023433,0.4997001252099835,0.03535443596592813,0.3532980453937853,1.0010641546032275,4.555191714604007
30,24,female,312,45,45,same,valid,anti,4,1,3,0.02711285042050804,1,f,same,0.6599291589905079,0.1363974866715667,0.5000737659911465,0.03531883585719697,0.35327591559644134,1.001103603372485,4.413866338589742
30,24,female,313,135,185,change,catch,clock,1,0,1,0.05149924566239861,0,j,change,0.26235035125455397,0,0.5004018642907795,0.035351228748822905,0.3533038183845747,1.0010349689287068,5.450921882456896
30,24,female,314,165,215,change,catch,clock,3,0,1,0.1302980017758273,0,j,change,0.2721217793123287,0,0.5002758206624094,0.03529895111159931,0.35331632653060296,1.001072493367701,5.498092347324018
30,24,female,315,15,15,same,valid,clock,5,0,1,0.09418730403922382,0,j,change,0.24995189174478583,0.07051252407779371,0.49956991219914926,0.03531915657913487,0.353350002309071,1.0010846807922462,3.965546792013356
30,24,female,316,165,165,same,valid,clock,4,0,1,0.07575254139874232,0,j,change,0.27236809357873426,0.07241404086149167,0.5000744074345675,0.03530889348485289,0.35331279859155984,1.0010894916176767,3.9662565491371424
30,24,female,317,105,105,same,valid,anti,2,1,2,0.5750867231477059,1,f,same,0.5995856917070341,0.13479916510114026,0.49978447501689516,0.035317232248416985,0.3532537857990974,1.0011302232733215,5.085169892699014
30,24,female,318,45,355,change,valid,anti,2,2,2,0.014921256407887995,1,j,change,1.561591074700118,0.13146793243173419,0.499588834779388,0.03534898369707662,0.35330510127096204,1.0010548536738497,5.167403898949942
30,24,female,319,45,45,same,catch,clock,5,0,1,0.025483263458681904,0,j,change,0.593209744295109,0,0.49976426954981434,0.035357322461095464,0.353258917346011,1.001105848424686,5.768535469254402
30,24,female,320,105,155,change,valid,clock,3,1,2,0.04866823520978869,1,j,change,0.9976956145801523,0.1331515465846541,0.49998813329693803,0.035313704310283356,0.3533031769406989,1.001091415947485,4.708045752875023
30,24,female,321,105,105,same,valid,clock,1,0,1,0.04763166267275665,0,j,change,0.8910466688562337,0.07422686034616433,0.5005558107072829,0.035306648432651855,0.3533246652946218,1.001079869966361,4.555871644609397
30,24,female,322,135,135,same,valid,anti,3,1,2,0.10684907606491834,1,f,same,0.6780852144729579,0.1315061132907671,0.5001584365204508,0.03533807915937359,0.35326789755390564,1.0010766627497105,4.472774896983992
30,24,female,323,165,165,same,valid,anti,1,2,2,0.11387256059106221,1,f,same,1.0602626454151505,0.1299819724056892,0.5000962165104283,0.03529093306906361,0.353318571582804,1.0010898123391598,4.8265383095654215
30,24,female,324,105,55,change,catch,anti,3,0,1,1.3261149569207191,0,j,change,0.3853323703128808,0,0.49941051351424903,0.03529606461643198,0.35333781488452587,1.0010676825418159,6.839439660702283
30,24,female,325,45,45,same,catch,anti,3,0,1,1.1190057114117735,0,j,change,0.3365865204518741,0,0.5003787723285313,0.035342248541383015,0.35326629394512565,1.0010773041926768,6.675013983466215
30,24,female,326,45,95,change,valid,clock,3,0,2,0.08550921625919727,1,j,change,0.7358818307307047,0.07598933528754741,0.501025026555908,0.035306969154135004,0.3533057427143831,1.001034648206769,4.486089658392757
30,24,female,327,15,325,change,valid,anti,3,1,2,0.126058702334376,1,j,change,0.681317447773381,0.1298355888088373,0.499246624724492,0.03531338358834546,0.3533118364271104,1.0010731348111221,4.4603257634457805
30,24,female,328,135,85,change,catch,anti,3,2,1,0.2551783725812129,0,j,change,2.3867541296126547,0,0.4994275117642246,0.03532204307384745,0.35329483817668006,1.0010548536738497,7.817230965808449
30,24,female,329,105,155,change,catch,clock,2,1,1,0.10932280254337456,0,j,change,0.29201967435210463,0,0.4998486193571807,0.0353149871966707,0.3533217787994545,1.0010740969760263,5.520718301150282
30,24,female,330,165,165,same,valid,anti,2,0,1,0.07469608411656736,0,j,change,0.2570385584458563,0.07409678355773153,0.5000327136135638,0.03535347380056919,0.3533047805494789,1.001047477074735,4.0375231561069995
30,24,female,331,135,135,same,valid,anti,3,2,1,0.07843826492126027,0,j,change,0.21625943563230976,0.1285130586728037,0.4992726031823622,0.03535219091418185,0.35330413910605785,1.0010532500655245,3.9072530571193056
30,24,female,332,15,65,change,valid,clock,1,0,1,0.6061617694604138,0,j,change,0.9649518532582988,0.07582343071430665,0.4992119867811198,0.03531370430982861,0.35329612106352215,1.0010795492448779,5.225319823679911
30,24,female,333,45,95,change,valid,clock,2,0,2,0.1237870305276374,1,j,change,0.6611443735150715,0.07767430520004376,0.5006266902037169,0.03527201048882489,0.35332434457313866,1.0010769834711937,4.402750765883411
30,24,female,334,15,15,same,valid,anti,5,2,2,0.09886887870561623,1,f,same,0.5493388642862556,0.13372650458904528,0.5001517013643024,0.035350908027339756,0.3532428812609396,1.0011023204856428,4.272722491058175
30,24,female,335,105,55,change,valid,anti,3,2,2,0.03593301791397607,1,j,change,0.9782842543609149,0.13234787361876663,0.5001244400200449,0.03532043946597696,0.3533102328183304,1.0010744176975095,4.649718983645926
30,24,female,336,135,135,same,valid,clock,3,1,2,0.07859830505003629,1,f,same,0.49281519245869276,0.12819201780387188,0.4998322625506262,0.035315628640091745,0.35333107972883226,1.0010542122304287,4.213538432722544
30,24,female,337,75,25,change,valid,anti,2,1,2,0.07140644163109755,1,j,change,1.0553235312227116,0.1266261131930705,0.5000224505192818,0.03536245400846383,0.3532932345683548,1.001047156353252,4.731673320573009
30,24,female,338,105,155,change,catch,clock,1,0,1,0.08310123772935185,0,j,change,0.28943369527814866,0,0.5005513206037904,0.03529381956468569,0.3533208166345503,1.001049080683515,5.485881189287284
30,24,female,339,15,15,same,valid,anti,2,1,2,0.09097912486595305,1,f,same,0.5127313686348316,0.12511256555803482,0.5002655575685822,0.03529863039011616,0.35333107972883226,1.0010516464567445,4.225543045983613
30,24,female,340,75,125,change,catch,clock,5,1,1,0.08798101840693562,0,j,change,0.22389229138980227,0,0.5000618992880845,0.035323005239206395,0.3533204959126124,1.00103689325897,5.40347720053569
30,24,female,341,105,105,same,catch,anti,4,1,1,0.04313193721054631,0,j,change,0.2572794204429556,0,0.499784154295412,0.03533872060233989,0.3533031769406989,1.0010747384194474,5.414608488605154
30,24,female,342,15,325,change,catch,anti,3,2,1,0.06498270668589612,0,j,change,0.3017057904376088,0,0.5005654323581439,0.0353367962725315,0.3533195337477082,1.0010692861501411,5.475075433744223
30,24,female,343,105,155,change,valid,clock,4,1,2,0.0580615323829079,1,j,change,0.6335786640529477,0.12362837992054408,0.4994012125844165,0.03532332596114429,0.3532778399262497,1.0010872465659304,4.377572829484052
30,24,female,344,135,85,change,catch,anti,1,1,1,0.05094118990291463,0,j,change,0.31595481416115945,0,0.5000218090758608,0.035302158328704536,0.3533307590073491,1.0010433076927256,5.497249490693775
30,24,female,345,105,105,same,valid,clock,1,2,2,0.08412818861506821,1,f,same,0.6574794866401135,0.1309764161647125,0.5002613881865727,0.035314345753249654,0.3533144022007946,1.0010657582115527,4.41465306892178
30,24,female,346,105,105,same,catch,anti,1,0,1,0.2774294027394717,0,j,change,0.3136722378162631,0,0.4997863993471583,0.03529638533836987,0.35333781488452587,1.0010625509949023,5.6739167945279405
30,24,female,347,135,85,change,valid,anti,2,0,1,0.3175019756454276,0,j,change,0.31570112329563926,0.07580315039454306,0.49990121771588747,0.03533519266420626,0.3532771984828287,1.001069927594017,4.319499109676599
30,24,female,348,165,115,change,catch,anti,4,1,1,0.0751723558419144,0,j,change,0.2901104180668881,0,0.499682164794649,0.035336475550593605,0.3533073463231631,1.0010535707870076,5.509275271587285
30,24,female,349,105,55,change,valid,anti,1,1,2,0.8176434139159028,1,j,change,0.5939320095653784,0.12207690159134588,0.5001250814634659,0.03533358905588102,0.35332113735603343,1.001055815838754,5.109080978380462
30,24,female,350,165,115,change,catch,anti,2,1,1,0.08905736043470824,0,j,change,0.3413181277037438,0,0.49919979935657466,0.03535764318303336,0.353315364365244,1.0010484392396393,5.567048154439362
30,24,female,351,15,15,same,valid,clock,4,2,1,0.021359423829835578,0,j,change,0.41484774699438276,0.12959781730684405,0.5004823654380743,0.03535732246155021,0.35328233003019704,1.001103924093968,4.08445885268884
30,24,female,352,75,75,same,catch,anti,1,2,1,0.07631348365339363,0,j,change,0.2356512318278874,0,0.4998749185365341,0.03531883585719697,0.3532852165258191,1.001068323985237,5.403295351331508
30,24,female,353,105,105,same,valid,anti,5,0,1,0.053858795215546706,0,j,change,0.23978052372558523,0.07761479681620638,0.5002908945825766,0.03533519266420626,0.3532913102380917,1.0010866051225094,3.896046720171853
30,24,female,354,45,95,change,valid,clock,1,1,2,0.05923633597240041,1,j,change,0.9416222360205211,0.120508156783944,0.49961000241182774,0.03531723224887173,0.3532996490021105,1.001059023056314,4.578272772523633
30,24,female,355,75,75,same,catch,anti,4,2,1,0.05294056898628696,0,j,change,0.25711873887075853,0,0.4999233475132314,0.03534192781944512,0.3533079877665841,1.0010721726457632,5.462422000482093
30,24,female,356,15,325,change,valid,anti,4,1,3,0.6409943912190101,1,j,change,1.0876035289647916,0.11891914697183191,0.49989640689091175,0.03536052967865544,0.3533073463231631,1.0010702483155,5.355918983132597
30,24,female,357,15,65,change,valid,clock,4,1,3,0.2099290307019146,1,j,change,0.7549676584235385,0.11739896046800702,0.5004076372815689,0.03532332596114429,0.3533012526108905,1.001071210480859,4.567908650762092
30,24,female,358,165,215,change,valid,clock,3,0,1,0.09306125014745703,0,j,change,0.3159057437410411,0.0794453614687922,0.4991391829553322,0.035317232248416985,0.3532983661157232,1.0010792285233947,4.119211614744017
30,24,female,359,45,95,change,valid,clock,4,2,3,0.0334137489544446,1,j,change,1.7609747758797312,0.13438792883756753,0.4996090402464688,0.03529446100765199,0.35332594818191865,1.0010734555321505,5.355813786414728
30,24,female,360,105,55,change,valid,anti,5,2,1,0.23818781975933234,0,j,change,0.8368392491520353,0.13309990438894642,0.4999839639149286,0.035308252040977095,0.35327463270959925,1.0010949438865282,4.7556748497740955
30,24,female,361,15,65,change,valid,clock,1,2,2,0.2395762240021213,1,j,change,0.6023185613194073,0.13747598320548537,0.5000372037175111,0.0352999132765035,0.3533474365353868,1.0010564572826297,4.425876724841146
30,24,female,362,105,105,same,valid,anti,1,0,1,0.0920224325586787,0,j,change,0.2588977821451408,0.08129357304902173,0.4998322625506262,0.03533262689006733,0.35328938590782855,1.0010660789334906,3.9895877699837
30,24,female,363,15,15,same,valid,clock,4,0,2,0.10578011063580561,1,f,same,0.802050566266189,0.08305044234023233,0.5003255325264035,0.0353367962725315,0.35330253549727786,1.0010609473861223,4.543705708333164
30,24,female,364,165,215,change,valid,clock,1,0,1,0.07716307543887524,0,j,change,0.47736474524435835,0.081164967802514,0.4999493259715564,0.03530408265896767,0.3532996490021105,1.001093660999686,4.202447555587696
30,24,female,365,135,85,change,catch,anti,2,0,1,0.12171901700048693,0,j,change,0.26132564542012915,0,0.4993992882546081,0.035302479050187685,0.3532967625069432,1.0011061691461691,5.543603718832401
30,24,female,366,105,55,change,valid,anti,4,1,2,0.05489697136090399,1,j,change,0.4748265537041334,0.11593772467085176,0.5007921826008896,0.03531787369183803,0.353306063436321,1.0010663996549738,4.1320292575164785
30,24,female,367,45,95,change,catch,clock,4,2,1,0.04824584472953575,0,j,change,0.29627757565185675,0,0.49967350530869226,0.03533390977690942,0.3533086292095504,1.0010410626409794,5.520308739537995
30,24,female,368,165,115,change,valid,anti,2,1,2,0.07497350838775674,1,j,change,0.7148113771531825,0.11451379064753917,0.5008688350872035,0.03535443596592813,0.353283292195556,1.0010625509944475,4.4621346338381045
30,24,female,369,135,85,change,catch,anti,5,0,1,0.10124703011706515,0,j,change,0.28177454034175753,0,0.49912635408736605,0.035558094245971006,0.35331311931349774,1.0010888501742556,5.579216977210763
30,24,female,370,45,45,same,valid,anti,5,0,2,0.05856795194813458,1,f,same,0.4248472081817454,0.08289311442377914,0.49982745172474097,0.03532043946552221,0.3533127985920146,1.0010744176979642,4.201383400984469
30,24,female,371,75,75,same,valid,anti,2,0,2,0.5084769952741226,1,j,change,0.93194381725516,0.08104087314942805,0.5006558758782376,0.035324608847531636,0.35330189405431156,1.0010670410983948,5.038906108080482
30,24,female,372,165,115,change,valid,anti,1,0,2,0.08188121237935775,1,f,same,0.4948062327775915,0.07916993436479419,0.49943841630192765,0.03536758555583219,0.35330317694115365,1.0010651167685864,4.201180063425909
30,24,female,373,105,105,same,catch,anti,2,0,1,0.07008250245053205,0,j,change,0.2849570617786412,0,0.5005003258529541,0.03532043946552221,0.3533147229222777,1.0010388175887783,5.521908178659942
30,24,female,374,75,75,same,catch,anti,2,0,1,0.10985904922699774,0,j,change,0.7196145053444525,0,0.5000795389819359,0.0353515494707608,0.35330927065297146,1.0010554951172708,5.968213913677118
30,24,female,375,75,75,same,valid,anti,5,2,1,0.15520749411143697,0,j,change,0.9201037342272684,0.13629428179332553,0.5005128339994371,0.03532140163042641,0.3533079877665841,1.001092378112844,4.7446776233750825
30,24,female,376,45,45,same,valid,clock,1,0,2,0.09854815700464314,1,f,same,0.40856031877137866,0.07739917994818585,0.49905451242602794,0.035422108244802075,0.353350002309071,1.0010551743957876,4.095241195547715
30,24,female,377,135,185,change,valid,clock,5,1,2,0.013326307389888825,1,j,change,0.5372755589537519,0.1130363276266271,0.5001080832130356,0.03530889348439814,0.35330638415780413,1.0010728140891842,4.190819469603412
30,24,female,378,165,165,same,valid,clock,2,2,2,0.014771479373393959,1,j,change,0.7866491894719729,0.140854178138644,0.4996237934446981,0.03531498719712545,0.3533140814788567,1.001093660999686,4.354781703981644
30,24,female,379,15,325,change,valid,anti,3,0,1,0.006840673156602861,0,j,change,0.25449972546221034,0.07571272963260146,0.5001735104401632,0.035315628640091745,0.3532954796201011,1.0010708897589211,3.930832837284015
30,24,female,380,135,185,change,valid,clock,1,2,2,0.10453474827227183,1,j,change,0.5039060695939952,0.13962955461603235,0.5006876273264425,0.03533390977736417,0.3532980453937853,1.001047797796673,4.319932083972617
30,24,female,381,15,15,same,valid,clock,3,2,2,0.0818440086618466,1,f,same,0.3946316960277727,0.1384416251008858,0.5007758257943351,0.03532492956946953,0.3532874615775654,1.0010506842918403,4.155898970098406
30,24,female,382,105,155,change,valid,clock,1,2,2,0.03495353384005284,1,j,change,0.6436474011279643,0.1373047760032271,0.4993742719620968,0.03535058730540186,0.3533208166345503,1.0010628717163854,4.272281177997684
30,24,female,383,15,15,same,valid,clock,5,1,2,0.057865250701979676,1,f,same,0.4436790242875759,0.11155393445272938,0.500022771240765,0.03535026658391871,0.3533182508608661,1.0010529293440413,4.154892545401253
30,24,female,384,45,95,change,valid,clock,2,2,2,0.02774884155314794,1,j,change,0.4917208900155856,0.13620870168686844,0.5001497770340393,0.03533230616858418,0.35326436961531726,1.001116752962389,4.1077987330209
30,24,female,385,105,155,change,catch,clock,3,0,1,0.06763443370800815,0,j,change,0.2556735668872534,0,0.5002908945825766,0.035321401630881155,0.35331985446919134,1.001070569037438,5.497872332236511
30,24,female,386,15,15,same,catch,anti,2,1,2,0.6987348811790071,1,f,same,1.0186124424626541,0,0.5003393235592739,0.03534705936681348,0.35331183642665565,1.0010599852207633,6.958184304649421
30,24,female,387,135,85,change,valid,anti,3,0,1,0.1603444935931293,0,j,change,0.47666974131880124,0.07735026408506893,0.5004384265648696,0.03532492956946953,0.3533073463231631,1.0010715312023422,4.332042856116914
30,24,female,388,165,215,change,valid,clock,2,1,1,0.041499463753552845,0,j,change,0.23187601668769275,0.11004517603808806,0.49957119508599135,0.035316911526933836,0.3533118364271104,1.0010288752164342,3.9302308426513264
30,24,female,389,165,165,same,valid,clock,3,2,2,0.00487047974820598,1,f,same,0.45209315810780026,0.13514409369306626,0.500604239684435,0.03529285739932675,0.3533220995213924,1.0010949438865282,4.190816903829727
30,24,female,390,75,125,change,valid,clock,3,1,2,0.05852465451835087,1,j,change,0.5796265388225947,0.11259234857605047,0.5001873014734883,0.035319798022555915,0.353283292195556,1.001080190688299,4.237845930426374
30,24,female,391,135,135,same,valid,clock,5,0,2,0.444760177140779,1,f,same,0.4184523381895815,0.07900343159309053,0.49983514904533877,0.035343210706741957,0.35329323456790007,1.0011068105895902,4.543856447532562
30,24,female,392,15,15,same,valid,clock,2,0,2,0.07414187701760966,1,f,same,0.5496413048499562,0.07730312811728621,0.4996661287095776,0.035327495343153714,0.35330189405431156,1.0010805114102368,4.3077921261537995
30,24,female,393,15,15,same,valid,clock,3,0,2,0.08647619218663749,1,f,same,0.48391837247845615,0.07568099242354309,0.49937715845726416,0.03533423049884732,0.3533224202428755,1.0010259887208122,4.260141220179321
30,24,female,394,165,165,same,valid,anti,3,1,2,0.32798412299280244,1,f,same,0.6761053994137001,0.11115059195792969,0.5001202706375807,0.035360208956262795,0.3532646903368004,1.0010532500655245,4.7316916017098265
30,24,female,395,75,75,same,valid,clock,2,0,1,0.12322256033394297,0,j,change,0.34982751586949234,0.07410381196898264,0.5006292559769463,0.03533166472516314,0.3532749534310824,1.0010901330610977,4.096883611377507
30,24,female,396,75,75,same,catch,anti,1,1,1,0.12159970852826518,0,j,change,0.29772435124414187,0,0.49980179398880864,0.03532685389973267,0.35331344003543563,1.0010776249150695,5.532763004623575
30,24,female,397,165,215,change,valid,clock,1,2,1,0.07256392624958607,0,j,change,0.30843132450399935,0.13410244731894463,0.5003569632531253,0.03532043946552221,0.353294196733259,1.0010805114102368,4.037095634079833
30,24,female,398,15,15,same,catch,clock,1,1,1,0.10181502824934796,0,j,change,0.29598187024339495,0,0.49987555997995514,0.03531915657868012,0.3533362112757459,1.0010426662493046,5.509222031785157
30,24,female,399,45,45,same,valid,clock,3,0,1,0.12091079831498064,0,j,change,0.2526963073382831,0.0755474281450103,0.49972578294591585,0.03532717462121582,0.353270784049073,1.0011135457452838,4.001424325073458
30,24,female,400,105,105,same,valid,clock,3,2,1,0.08446109774058641,0,j,change,0.5408224202428755,0.13791808328078653,0.4996558656148409,0.03531017637169498,0.35328714085608226,1.0010808321312652,4.260230060090635
30,24,female,401,165,165,same,valid,clock,1,2,1,0.0668560421404436,0,j,change,0.31908345435203955,0.1419871452449071,0.5088618613149265,0.0352784249225806,0.35333140045077016,1.0010757005843516,4.022150323544338
30,24,female,402,135,85,change,valid,anti,5,1,2,0.1349555223146126,1,j,change,0.5926135226532097,0.10967565010999886,0.4999743422636129,0.03531787369183803,0.3533057427143831,1.0010757005843516,4.331364850441332
30,24,female,403,15,325,change,valid,anti,1,0,1,0.13787537267853622,0,j,change,0.6936754963489875,0.07709534952919399,0.4997071810871603,0.035342569262866164,0.35329066879467064,1.0010259887208122,4.4372418190305325
30,24,female,404,135,135,same,catch,clock,5,2,1,0.1244672812549652,0,j,change,0.23843092680863265,0,0.5002421448843961,0.03533904132427779,0.3532871408556275,1.001059664499735,5.450921561734958
30,24,female,405,75,25,change,valid,anti,4,0,1,0.1395046389188792,0,j,change,0.23747004459301024,0.07865518216107244,0.4999608719522257,0.03535122874927765,0.35331857158234925,1.0010577401694718,3.966890615939519
30,24,female,406,45,95,change,valid,clock,5,2,2,0.06078125240537702,1,j,change,0.5832862941506392,0.14568760797190491,0.4995990978741247,0.03531787369229278,0.3532874615775654,1.0010529293435866,4.260721085014211
30,24,female,407,75,25,change,catch,anti,4,1,1,0.09908953523563468,0,j,change,0.2724267856501683,0,0.49929505370164406,0.0353595675132965,0.35331087426175145,1.0010615888295433,5.46126996813291
30,24,female,408,45,45,same,valid,clock,1,1,3,0.21241013377948548,1,j,change,1.3871373920446786,0.10822648758128256,0.5005654323581439,0.03531498719712545,0.353316967974024,1.0010673618203327,5.286028592981438
30,24,female,409,105,105,same,valid,clock,4,1,2,0.07929619547076072,1,j,change,0.8330358105022242,0.10684165044517954,0.49975881728096283,0.035345135036550346,0.35323101455787764,1.0011003961558345,4.531374600380786
30,24,female,410,135,85,change,valid,anti,5,0,1,0.07586864265476834,0,j,change,0.26731384029608307,0.08025438748738944,0.4997315559362505,0.035343852150163,0.3533111949832346,1.0010336860418647,3.942267207360601
30,24,female,411,135,135,same,valid,clock,4,0,3,0.7866620183399391,1,f,same,0.669368960810516,0.0818198574620619,0.5006446506185966,0.035306969154135004,0.3533105535402683,1.00102470583397,5.167920902331389
30,24,female,412,75,125,change,valid,clock,4,0,2,0.07839336388315132,1,j,change,0.7679472656550388,0.08015700331142983,0.5006318217506305,0.03534641792339244,0.35330189405431156,1.0010577401694718,4.449872481051898
30,24,female,413,165,165,same,valid,anti,5,1,1,0.0885163029256546,0,j,change,0.34280659711703265,0.10550148285760232,0.5003694713991536,0.03531594936202964,0.3532990075586895,1.0010766627497105,4.060926218613986
30,24,female,414,105,155,change,valid,clock,3,0,1,0.0814363713802777,0,j,change,0.21601697002688525,0.07852068258306402,0.5002463142664055,0.03533904132427779,0.3532659732236425,1.001081473575141,3.907754665859102
30,24,female,415,75,75,same,valid,clock,4,0,2,0.5694224571898303,1,f,same,1.6058740820944877,0.08006241784958328,0.500033034335047,0.03534256926332091,0.35325282363373844,1.001093019556265,5.968725785511651
30,24,female,416,15,325,change,valid,anti,1,1,1,0.44436023718026263,0,j,change,0.7793861258355719,0.10794095859731677,0.5001228364117196,0.03533326833348838,0.3533432671533774,1.001023422947128,4.837895064991244
30,24,female,417,45,45,same,valid,anti,2,1,2,0.03650422326336411,1,f,same,0.694830735915275,0.1104029036232001,0.5000821047556201,0.03533807915937359,0.35326565250215936,1.0010968682167913,4.43755772990653
30,24,female,418,75,75,same,catch,anti,1,2,1,0.11335908514774928,0,j,change,0.33765933454105834,0,0.5002459935449224,0.03533262689006733,0.35328682013414436,1.0010551743953329,5.5568854459061185
30,24,female,419,105,55,change,valid,anti,2,0,2,0.08565738968445658,1,j,change,0.6196981495641012,0.07845682183706787,0.49981686790897584,0.03531049709317813,0.3533115157051725,1.0010997547124134,4.307699758304352
30,24,female,420,45,355,change,valid,anti,3,1,2,0.10237661194742032,1,j,change,0.5657033683473855,0.10900842249494674,0.5001488148695898,0.035337758437435696,0.35328938590782855,1.0010795492448779,4.2377022471046075
30,24,female,421,105,105,same,valid,anti,4,2,2,0.09327869946037026,1,f,same,1.136313778717522,0.14471929070863365,0.499431039702813,0.035330061116837896,0.3533150436437609,1.001081152853203,4.896353330117563
30,24,female,422,105,105,same,catch,anti,4,2,1,0.11284047815752274,0,j,change,0.26454537057497873,0,0.499943552980767,0.035358605347937555,0.3532662939455804,1.0011087349193986,5.485743278955852
30,24,female,423,165,165,same,valid,clock,3,0,1,0.06267511404894321,0,j,change,0.27054831864825246,0.07694245194758996,0.5003130243799205,0.03537143421590372,0.35331536436569877,1.0010234229475827,3.9200238745233946
30,24,female,424,45,355,change,valid,anti,3,2,2,0.07902101625131763,1,j,change,0.5854274322250603,0.14368949686590698,0.4990955648036106,0.0353595675132965,0.3533317211722533,1.0010615888295433,4.260161425646402
30,24,female,425,75,25,change,valid,anti,4,2,2,0.04860312870459893,1,j,change,0.6887379857648739,0.14267035605845024,0.49933931329633197,0.03526591677655233,0.35338335736605586,1.0010680032637538,4.366114084557466
30,24,female,426,75,75,same,valid,anti,4,0,2,0.10495200720470166,1,f,same,2.105503327808492,0.07839507212093703,0.5003043648944185,0.03532653317824952,0.3532999697235937,1.001093019556265,5.838920412268635
30,24,female,427,105,105,same,valid,clock,2,1,2,0.09815912158182982,1,f,same,0.7604872788947432,0.1076736351758713,0.5005237385371402,0.03529285739932675,0.3533099120963925,1.0010856429576052,4.473755663945212
30,24,female,428,105,155,change,valid,clock,1,0,2,0.0895076537026398,1,j,change,0.7491173738794714,0.0769073205269904,0.49951891744876775,0.035367264833894296,0.35330927065297146,1.0010708897589211,4.401569868581191
30,24,female,429,15,325,change,catch,anti,3,0,1,0.04010240002480714,0,j,change,0.6944872429735369,0,0.5003835831544166,0.035312742144924414,0.3533240238516555,1.001014442739688,5.839953777588562
30,24,female,430,135,85,change,valid,anti,3,1,2,0.3105852914463867,1,j,change,0.6739726001037525,0.10639122029156979,0.49977228759235004,0.03531787369183803,0.3533147229222777,1.0010705690369832,4.648920707332309
30,24,female,431,135,135,same,catch,clock,1,0,1,0.11480329496680497,0,j,change,0.29545749026283374,0,0.5001908294120767,0.03530472410238872,0.3533217787994545,1.001069606872079,5.5214954098310045
30,24,female,432,135,135,same,catch,clock,2,0,1,0.07523650018219996,0,j,change,0.2433052552173649,0,0.4999945477311485,0.03534353142777036,0.35331119498368935,1.00103528965019,5.426973272336454
30,24,female,433,75,125,change,valid,clock,2,2,2,0.04887285565473576,1,j,change,0.6996457308091522,0.14165415415062077,0.4998191129607221,0.035315628640091745,0.3532842543604602,1.001081473575141,4.366601260820971
30,24,female,434,165,165,same,valid,anti,5,2,2,0.11190781945151684,1,f,same,0.4281169659216175,0.14063349306155282,0.4995946077701774,0.035380735145281506,0.35325089930393005,1.0010449113010509,4.154149112498999
30,24,female,435,105,155,change,valid,clock,5,2,2,0.12708725682887234,1,f,same,0.5534678354620155,0.13960340326730195,0.4999759458723929,0.035302158328704536,0.3533464743704826,1.0010567780041129,4.284301185900404
30,24,female,436,15,15,same,catch,anti,1,1,1,0.058272567261610675,0,j,change,0.2573996910805363,0,0.5002857630352082,0.03535507740934918,0.35329708322842635,1.0010429869707878,5.426876093661122
30,24,female,437,105,55,change,catch,anti,5,2,1,0.09801287248637891,0,j,change,0.22846129273966653,0,0.5007822402285456,0.03534064493260303,0.35325731373768576,1.0011061691461691,5.427245885782213
30,24,female,438,135,135,same,valid,clock,4,1,2,0.12059488743943803,1,f,same,0.3738736253872048,0.1051443706582685,0.5002809522097778,0.03532974039535475,0.3532874615775654,1.0010856429571504,4.131536628984122
30,24,female,439,45,45,same,catch,clock,3,1,1,0.05840759109787541,0,j,change,0.22790933069200037,0,0.49963694303460215,0.03535796390451651,0.3532807264218718,1.00108083213172,5.43830597363376
30,24,female,440,45,95,change,valid,clock,3,1,2,0.330667922185512,1,j,change,0.7707125281590379,0.103917539338884,0.5003973741872869,0.035330381838321046,0.3532771984828287,1.0010843600703083,4.791099523792582
30,24,female,441,135,135,same,valid,clock,1,1,1,0.10507676794622967,0,j,change,0.18955358105040432,0.10263406794250368,0.49981975440414317,0.035321080909398006,0.35330606343586624,1.0010718519238253,3.8362504041092507
30,24,female,442,15,65,change,valid,clock,5,1,1,0.07638115593272232,0,j,change,0.2560619608671004,0.10475400356688928,0.49996856927327826,0.0353297403949,0.3533368527196217,1.001059985221218,3.9312128924993885
30,24,female,443,45,45,same,valid,anti,3,2,2,0.09934354682309277,1,f,same,0.4267959132357646,0.1386048615399611,0.5001420797134415,0.035328778229995805,0.3533182508608661,1.0010513257352613,4.154904412104315
30,24,female,444,135,185,change,valid,clock,3,0,2,0.14114256464426944,1,j,change,0.6330494732465013,0.07547886133248242,0.5003271361347288,0.03533326833348838,0.3533002904455316,1.0010407419190415,4.3668568760167545
30,24,female,445,105,55,change,valid,anti,4,2,2,0.06284541727154647,1,j,change,0.6076168838167177,0.1376472750978442,0.49990827359351897,0.03528965018222152,0.3533519266393341,1.0010487599615772,4.261209544164558
30,24,female,446,105,105,same,valid,anti,1,2,2,0.09397819349032943,1,f,same,0.7530131803791846,0.13672331176288005,0.4997617037765849,0.035300554720379296,0.35332915539856913,1.0010317617116016,4.4958264485071595
30,24,female,447,75,125,change,catch,clock,1,1,1,0.0912828483164958,0,j,change,0.25856038291613004,0,0.5005933351462772,0.035296385337915126,0.35330766704510097,1.0010859636790883,5.521951796811209
30,24,female,448,105,105,same,valid,anti,5,1,2,0.10944082812920897,1,f,same,0.7190458657692034,0.10679776216854953,0.49988486090933293,0.035355718852770224,0.3533156850871819,1.0010442698580846,4.519883462562575
30,24,female,449,75,75,same,valid,clock,5,2,2,0.40275429382199945,1,f,same,1.2412423732380375,0.1358262954208447,0.5002787071580315,0.03531659080545069,0.35327527415256554,1.001091736669423,5.356949782679294
30,24,female,450,15,15,same,valid,clock,2,2,2,0.1020828308696764,1,f,same,0.7075281080501554,0.13495009085892695,0.49914527666715003,0.03526399244674394,0.3533692456112476,1.0010744176975095,4.436322951357852
30,24,female,451,45,355,change,valid,anti,4,1,1,0.05409099772668924,0,j,change,0.2167055595182319,0.10560851016406643,0.5078041211454547,0.03532043946552221,0.3532961210630674,1.0010266301642332,3.9039893930921608
30,24,female,452,165,215,change,valid,clock,1,1,1,1.393143868057905,0,f,same,1.3658186998713973,0.10777291708650437,0.4994752992975009,0.0353220430743022,0.353294196733259,1.0010846807917915,6.450666267261113
30,24,female,453,165,215,change,catch,clock,2,1,1,0.08211149056069189,0,j,change,0.33259674249393356,0,0.4999268754518198,0.0352553329607872,0.35323454249692077,1.0012238740100656,5.532331313214399
30,24,female,454,105,105,same,valid,anti,2,2,1,0.46466224156210956,0,j,change,1.0755819174537464,0.13401754200309876,0.5008293863184008,0.03533326833348838,0.35327206693591506,1.0010894916176767,5.169111100562986
30,24,female,455,45,45,same,catch,anti,4,0,1,0.10566016072016282,0,j,change,0.24303456610232388,0,0.4996670908744818,0.035300875441862445,0.3532970832288811,1.0010885294523177,5.4618982619449525
30,24,female,456,105,105,same,valid,clock,5,2,2,0.13243048036429172,1,f,same,0.5349057463063218,0.13718243491723076,0.4997831921305078,0.03535315307954079,0.3533246652946218,1.0010394590321994,4.260519030342948
30,24,female,457,75,75,same,valid,anti,1,1,2,0.07540616196183691,1,j,change,1.5383782001613326,0.10997323028623147,0.5001504184774603,0.03529478173004463,0.3533269103463681,1.001069606872079,5.203673674649508
30,24,female,458,165,165,same,valid,clock,2,1,1,0.09190857635485372,0,j,change,0.22005934634353252,0.10872472591556888,0.49918087677633594,0.03537079277293742,0.35329163095957483,1.0010968682167913,3.930315833902114
30,24,female,459,135,185,change,valid,clock,4,2,2,0.13323741616341067,1,j,change,0.4817009026392043,0.13631793826645172,0.5002992333465954,0.03534032421111988,0.3532271658978061,1.0011202809009774,4.213941259179137
30,24,female,460,105,155,change,valid,clock,4,2,2,0.1371386749319754,1,j,change,1.0858155054834242,0.13547571355726828,0.5002905738610934,0.03533711699401465,0.3532861786907233,1.0010673618203327,4.802859747117054
30,24,female,461,135,185,change,catch,clock,3,1,1,0.06378128319465759,0,j,change,0.3035967655860077,0,0.5003111000496574,0.03532621245631162,0.3533079877665841,1.0010663996549738,5.485915506509173
30,24,female,462,15,15,same,catch,clock,3,1,1,0.07234006250246239,0,j,change,0.2220298604729578,0,0.5005086646174277,0.03533294761200523,0.35330606343586624,1.001060305943156,5.439072498499172
30,24,female,463,165,115,change,valid,anti,5,2,2,0.25856615590691945,1,j,change,0.5277943840346779,0.13465041316749174,0.4999688899947614,0.035320118744039064,0.3532820093087139,1.0010670410983948,4.366548021018843
30,24,female,464,135,135,same,catch,clock,1,2,1,0.0363499561253775,0,j,change,0.17167174262203844,0,0.4999865296886128,0.03534641792339244,0.3533150436437609,1.0010388175887783,5.344441315625772
30,24,female,465,45,95,change,valid,clock,5,0,1,0.04477852242234803,0,j,change,0.2510869258439925,0.07408397528156424,0.5003059685027438,0.0353220430743022,0.3533198544696461,1.001045232022534,3.8959934803692704
30,24,female,466,15,65,change,valid,clock,4,2,2,0.1364795918366326,1,j,change,0.9947581245223773,0.1337692415367766,0.5002886495308303,0.03535026658391871,0.3532678975534509,1.0010853222356673,4.731855811220612
30,24,female,467,135,185,change,valid,clock,2,1,2,0.054609283994977886,1,j,change,0.44560143016224174,0.11089149748640384,0.4999534953535658,0.035343531428225106,0.3532839336385223,1.001083077183921,4.084188805016311
30,24,female,468,75,25,change,valid,anti,4,1,2,0.09714435812065858,1,f,same,0.7966698182917753,0.10966183751449825,0.49961417179383716,0.03531210070150337,0.3533227409643587,1.000969862423517,4.507327849420108
30,24,female,469,165,115,change,valid,anti,4,1,1,0.11564935881324345,0,j,change,0.24138733944664637,0.10845952836344486,0.5007113607325664,0.03534032421111988,0.3533102328183304,1.0010715312023422,3.943864401430801
30,24,female,470,45,45,same,valid,clock,4,0,2,0.33382927598995593,1,j,change,0.9087072093107054,0.0753635950669541,0.4995474616798674,0.03535219091418185,0.3533204959126124,1.0010660789334906,4.884460969451538
30,24,female,471,45,45,same,catch,anti,1,0,1,0.1155525008598488,0,j,change,0.33028177325741126,0,0.5000830669205243,0.035305044824326615,0.3533070256016799,1.0010885294527725,5.520618235979327
30,24,female,472,75,125,change,valid,clock,4,1,1,0.05745504764627185,0,j,change,0.19987985765101257,0.11057200260571894,0.5007703735254836,0.03529542317301093,0.35331183642665565,1.001081473575141,3.8848775869414567
30,24,female,473,15,65,change,catch,clock,4,2,1,0.08565129597218402,0,j,change,0.21374337388942877,0,0.4994942218777396,0.03535507740934918,0.35332915539856913,1.0010349689287068,5.40232645107335
30,24,female,474,165,115,change,valid,anti,2,2,2,0.1064555505381577,1,j,change,0.5869120529782776,0.13289484707471863,0.5008011628087843,0.035458991240375326,0.35334743653584155,1.0010516464571992,4.380137640925113
30,24,female,475,135,85,change,catch,anti,2,0,1,0.09476845176095594,0,j,change,0.28834837304293615,0,0.4996921071669931,0.035314025031766505,0.3532848958038812,1.001059985221218,5.508900668640763
30,24,female,476,165,215,change,catch,clock,4,1,1,0.08673854253765967,0,j,change,0.24487935732531696,0,0.4998264895598368,0.035355718852770224,0.353270784049073,1.0010907745045188,5.450462608981525
30,24,female,477,105,155,change,valid,clock,4,0,1,0.0534906067027805,0,j,change,0.21473761116203605,0.07399130749025254,0.5002132799309038,0.03530857276291499,0.3533034976626368,1.0010943024431072,3.8841306260997044
30,24,female,478,105,155,change,catch,clock,3,2,1,0.11308422665024409,0,j,change,0.2251610664384316,0,0.49949293899089753,0.035335834107627306,0.3532771984828287,1.0010789078014568,5.461080100886193
30,24,female,479,45,45,same,valid,clock,4,2,2,0.09415074176513372,1,f,same,0.43940091752074295,0.1320215603745395,0.5003194388136762,0.03534898369707662,0.35332466529507656,1.0010644753247107,4.190435245005574
30,24,female,480,45,95,change,valid,clock,2,1,2,0.3585392794279869,1,j,change,0.5424237836946304,0.11255314129804043,0.5003749236684598,0.03532236379578535,0.3532829714736181,1.0010667203769117,4.496894451770913
