subject,age,gender,ntrial,memory_ori,test_ori,type,trial_type,which_change,trial,quest,pas,pas_rt,vis,test_key,test,test_rt,contrast,fix_dur,target_dur,mask_dur,retention_dur,trial_dur
31,23,female,1,135,135,same,valid,clock,2,1,1,1.335908482566083,0,j,change,1.248304125038885,0.2,0.5094542764015841,0.03531101758267141,0.3532929849100128,1.0010118643094756,6.225140289935325
31,23,female,2,45,355,change,valid,anti,4,0,1,0.792277246330741,0,j,change,1.8993225480251112,0.2,0.5000976585365606,0.03612692338401757,0.35250562298278965,1.0010346352655688,6.31063689080861
31,23,female,3,165,165,same,catch,clock,3,2,1,0.21293537827205,0,j,change,2.449561530811252,0,0.49962941071021305,0.03531101758267141,0.35333115031494344,1.0010583683745153,7.8527950706973115
31,23,female,4,105,105,same,valid,anti,2,0,1,1.385892975865545,0,j,change,2.7569476271221447,0.3150270229513009,0.49970959013239735,0.03535591805916738,0.35328336337943256,1.0010821014834619,7.864736352419868
31,23,female,5,75,125,change,catch,clock,4,0,1,0.7196725344106198,0,j,change,2.7097392661401045,0,0.4996701418565408,0.035411402219551746,0.35323204854898904,1.0010567647857442,8.629741370048123
31,23,female,6,15,15,same,valid,anti,2,2,1,0.495832113269671,0,j,change,2.6161528822740365,0.2,0.5003670613953091,0.035333788538764566,0.35326828964775814,1.0010833843541604,6.828958369882002
31,23,female,7,15,325,change,catch,anti,5,2,1,0.3430232837836229,0,j,change,1.9945955862190203,0,0.4991736708739154,0.03535303160015246,0.35331254868879114,1.001052916173876,7.546191525548238
31,23,female,8,105,105,same,valid,clock,4,0,1,0.48449859156835373,0,j,change,2.627810649559251,0.3996559747928428,0.49951170731810635,0.03532577059627329,0.35330902079454063,1.0010493882789433,6.792550177084195
31,23,female,9,75,75,same,catch,clock,4,1,1,2.043676617788151,0,j,change,2.987266224867426,0,0.4995290260733327,0.03533186423260304,0.35332601883192183,1.0010333523946429,10.172391210154501
31,23,female,10,105,155,change,valid,clock,1,1,1,0.22432053552165598,0,j,change,1.2788027736949061,0.33948538693435915,0.5004068303887834,0.035365539589975015,0.3532801562023451,1.0010695934936393,5.1559367891090915
31,23,female,11,75,25,change,valid,anti,5,0,1,0.5276068976113493,0,j,change,1.7359204132640116,0.46690619962159796,0.4998872677322197,0.03531807337185455,0.3533022857229753,1.0010160336394165,5.909137792185675
31,23,female,12,75,25,change,catch,anti,5,1,1,1.1956009078876377,0,j,change,1.7148258486911345,0,0.4998426879733415,0.03533795786847804,0.35329490921617435,1.0010407289014438,8.065156364305722
31,23,female,13,45,45,same,catch,clock,2,0,1,0.6648830486910811,0,j,change,4.878501876358769,0,0.49957136080843156,0.035326412031736254,0.3533221702195988,1.0010301452175554,10.749821280067636
31,23,female,14,75,75,same,valid,anti,1,1,1,0.5219314773828501,0,j,change,1.7637949497868703,0.43994886294822894,0.5000931684887746,0.03536297384835052,0.3532907398862335,1.0010744042588158,5.980931088352236
31,23,female,15,45,45,same,valid,anti,5,1,1,1.4815880785388345,0,j,change,0.7553103633185856,0.5219745890327315,0.49892832184150393,0.035307489687966154,0.3533327539034872,1.0010301452175554,5.8850993599437516
31,23,female,16,75,75,same,valid,clock,2,2,1,0.770564338053191,0,j,change,2.8932622665695362,0.3670372117912738,0.49937027081728047,0.03535046585852797,0.3533125486890185,1.0010198822517395,7.34617433508015
31,23,female,17,165,165,same,valid,anti,5,1,2,6.592724775794295,1,j,change,5.586776424812342,0.5923157676589426,0.4992567367551146,0.03533282638545643,0.35332217021982615,1.0010606133982947,15.813524472523568
31,23,female,18,105,105,same,valid,clock,5,1,1,0.9692858290568438,0,j,change,1.5388195087439271,0.5545357026532012,0.5001473697780057,0.035340202892257366,0.35327021395391967,1.001070876364338,6.192869355328639
31,23,female,19,105,105,same,valid,anti,5,2,1,0.5856923990227187,0,j,change,2.0068075536712513,0.4895303947352734,0.4996313350163746,0.03536425671904908,0.35330388931129164,1.0010339938301058,6.227650868006322
31,23,female,20,75,75,same,valid,anti,2,1,1,0.5789297458281908,0,j,change,2.895552511588221,0.5998872366157597,0.49948059770235886,0.03535335231777026,0.3532913813214691,1.0010804978949182,7.133598481337685
31,23,female,21,135,135,same,valid,clock,1,2,1,0.2688146626994694,0,j,change,1.6626925468738136,0.5890718826496524,0.5002804676191772,0.03533154351498524,0.35331190725355555,1.00105163330295,5.556496826337934
31,23,female,22,15,325,change,valid,anti,3,1,2,1.4657494354564733,1,j,change,3.9711248242867896,0.6433366075365149,0.5002480751327312,0.03535174872922653,0.3532878534269912,1.001029183064702,9.077912589676544
31,23,female,23,165,165,same,catch,anti,1,2,1,0.6810735190779269,0,j,change,1.465658030915165,0,0.500114335856324,0.035356238776785176,0.3532804769199629,1.0010692727757942,7.334758388932414
31,23,female,24,135,85,change,valid,anti,1,2,1,0.49475482255184033,0,j,change,2.5471591308166808,0.6758845662617424,0.5002230591526313,0.03536874676660773,0.3532849669677489,1.00104842612609,6.675872761029723
31,23,female,25,105,55,change,catch,anti,3,1,1,0.45207499534149065,0,j,change,2.2200290121220405,0,0.49905468461088276,0.03531262117121514,0.35333403677418573,1.0010471432553913,7.816213369630077
31,23,female,26,15,65,change,valid,clock,4,1,1,0.61704960893303,0,j,change,1.489531614265161,0.6191214522621116,0.5005594920089607,0.035314545477149295,0.3533353196448843,1.0010317488063265,5.768846253391985
31,23,female,27,135,85,change,valid,anti,5,0,1,0.2618692004218701,0,j,change,3.7806214033514607,0.5261480498876727,0.4996181855908617,0.035341165045565504,0.35328785342676383,1.0010612548335303,7.687285820718216
31,23,female,28,75,75,same,valid,clock,2,1,1,0.22965599499934797,0,j,change,1.352612742691008,0.6520067994799555,0.5001601984856734,0.03528728447372487,0.35334173399860447,1.00104842612609,5.226452666719524
31,23,female,29,165,165,same,catch,anti,2,0,1,0.7713872996437203,0,j,change,1.058686205643653,0,0.4999728993552708,0.0353225634194132,0.353321849501981,1.0010352767008044,6.981422107134449
31,23,female,30,135,185,change,valid,clock,1,0,1,0.16095505879229677,0,j,change,2.311613155454779,0.5793366454280041,0.5002647524524946,0.03531839408947235,0.3532929849100128,1.0010391253131274,6.109968964149175
31,23,female,31,45,95,change,catch,clock,1,2,1,0.3281185706125598,0,j,change,1.3122209154757911,0,0.5000681525091295,0.03533603356254389,0.35326764821252254,1.0010760078473595,6.80461429368188
31,23,female,32,15,325,change,valid,anti,2,0,2,3.8632100569370778,1,j,change,3.2281742792752084,0.6269063766957922,0.4998952856744836,0.03533250566783863,0.3532968335221085,1.0010625377044562,10.773486076201834
31,23,female,33,15,15,same,catch,clock,1,1,1,0.4992836770411486,0,j,change,3.790141587238395,0,0.5002528858979076,0.0353058860996498,0.35330581361745317,1.001069593493412,9.490006276445229
31,23,female,34,105,105,same,valid,anti,1,2,1,0.47652105976681014,0,j,change,1.5177868426851546,0.7550828364566777,0.5004392228754568,0.03530524466418683,0.3533205666312824,1.0010554819150457,5.674910928679765
31,23,female,35,165,215,change,valid,clock,3,1,1,0.4830467025892631,0,j,change,1.6774080366080852,0.6829168402234043,0.49902678217199536,0.03534341006934483,0.3533263395495396,1.00103591813604,5.756099649551743
31,23,female,36,75,125,change,catch,clock,1,2,1,0.30912823479866347,0,j,change,1.601399227134607,0,0.49899631399171085,0.03533154351475787,0.35329009845077053,1.001052274738413,7.039153856934945
31,23,female,37,45,95,change,valid,clock,2,1,2,0.953721399599317,1,j,change,1.3337000205581262,0.7126422296457233,0.500467446031962,0.035327694902434814,0.3532942677807114,1.0010641412927725,5.9810475088734165
31,23,female,38,15,325,change,catch,anti,1,2,1,0.349880548696774,0,j,change,3.4096113318539665,0,0.49978111017730953,0.03533731643324245,0.3533051721819902,1.0010529161736486,8.92479522977328
31,23,female,39,165,165,same,valid,anti,3,2,1,0.7012684705325682,0,j,change,1.2998373640598402,0.8277920650611539,0.49929041211271397,0.0353222427017954,0.3533324331858694,1.0010574062212072,5.661349701908875
31,23,female,40,15,15,same,valid,clock,1,2,2,0.8820086035727854,1,j,change,2.517321160600204,0.8941448639260581,0.5004093961301805,0.035326732749581424,0.3533045307467546,1.0010946094732844,7.06383468670856
31,23,female,41,165,115,change,catch,anti,2,1,1,0.1360731390275305,0,j,change,2.0127469245578595,0,0.4999526941408021,0.0352888880622686,0.35332794313808336,1.0010558026328908,7.311222842027064
31,23,female,42,105,55,change,catch,anti,2,0,1,0.24634004991025904,0,j,change,1.0983756611192348,0,0.5002544894864513,0.03531230045336997,0.3533237738081425,1.0010307866530184,6.52209985416971
31,23,female,43,135,135,same,catch,anti,3,1,1,0.19626671781043115,0,j,change,1.3716277737669316,0,0.4999671264367862,0.0353604081069534,0.35324551869189236,1.0010705556464927,6.745387358014341
31,23,female,44,75,75,same,valid,anti,3,2,2,1.0472375462916261,1,j,change,1.1814960646336203,0.874424695502422,0.5001159394446404,0.03531935624255311,0.35328753270914603,1.0010731213881172,5.933399764657452
31,23,female,45,165,215,change,valid,clock,4,0,2,3.6539077686484234,1,j,change,3.8747170869082765,0.5845951439541935,0.4992981093371327,0.03538221690973842,0.35326957251868407,1.0010644620103903,11.197233360925793
31,23,female,46,105,155,change,valid,clock,5,0,1,0.3494921595749929,0,j,change,1.2579339943752075,0.5529897940294376,0.4992686033097016,0.035306527535112764,0.3532936263452484,1.0010625377044562,5.308198794935379
31,23,female,47,75,25,change,valid,anti,1,2,1,0.34265574131177345,0,j,change,1.3678740939324143,0.8586656703718742,0.49990458648744607,0.03533186423260304,0.35330100285204935,1.001017957945578,5.39146287997437
31,23,female,48,45,355,change,catch,anti,1,0,1,0.7430239893624275,0,j,change,0.9190527795478829,0,0.5001152980091774,0.035336354280161686,0.35330549289983537,1.0010224479931367,6.85192239786511
31,23,female,49,105,155,change,valid,clock,4,1,2,0.31876259418277186,1,j,change,1.1190375775295252,0.695388404661397,0.5003837387150725,0.03530364107587047,0.3532779111785658,1.0010564440681264,5.1679665889139415
31,23,female,50,45,95,change,catch,clock,4,0,1,0.08411366619748151,0,j,change,2.0801951374708096,0,0.4994655239709118,0.03540017710020038,0.3532060704160358,1.0010737628235802,7.3220935681029005
31,23,female,51,45,45,same,valid,anti,3,1,2,1.3719459257147264,1,j,change,1.5996570886468362,0.6813949509520334,0.5049821889431314,0.03533122279714007,0.35326957251868407,1.0010833843541604,6.621425160366698
31,23,female,52,135,135,same,valid,clock,5,2,1,0.34257043040634017,0,j,change,1.19525421206572,0.9010782660679055,0.49936866722873674,0.035336354280161686,0.35328496696752154,1.0010888365550272,5.143169017901528
31,23,female,53,105,105,same,valid,clock,2,1,1,0.5286222898150754,0,j,change,3.1956759558268004,0.6689568687550376,0.5004940656003782,0.03530973471197285,0.35334750691708905,1.0010490675613255,7.370860617054404
31,23,female,54,15,15,same,catch,anti,4,1,1,0.26874153906646825,0,j,change,1.8660445598741262,0,0.4998013153915508,0.03536329456619569,0.3533083793588503,1.0010378424424289,7.2638791381803
31,23,female,55,165,165,same,catch,clock,2,1,1,0.29163789561721387,0,j,change,1.4065263484012576,0,0.49974069974814483,0.03533827858632321,0.3532666860594418,1.001066707034397,6.875437739555991
31,23,female,56,15,15,same,catch,anti,1,2,1,0.24687693132182176,0,j,change,3.3352122044627777,0,0.4995931696112166,0.03533122279714007,0.35332345309029733,1.001040408183826,8.747697808247267
31,23,female,57,165,115,change,valid,anti,4,2,2,1.1595439009597612,1,j,change,1.2883441249491625,0.9400382458624141,0.5000838676758121,0.0353222427017954,0.35331735945419496,1.0010295037823198,6.0868548402872875
31,23,female,58,75,25,change,valid,anti,3,1,1,0.376866697220521,0,j,change,1.2130710418546187,0.687886217609732,0.4990617404000659,0.03533186423260304,0.353265723906361,1.0010776114356759,5.202157981043683
31,23,female,59,165,165,same,valid,anti,2,1,1,0.2135489112115465,0,j,change,1.1003859195952828,0.7064657309540971,0.5000290249508907,0.03530267892278971,0.35333339533872277,1.001061575551148,4.92076220483159
31,23,female,60,15,325,change,valid,anti,3,0,1,0.34289050666006915,0,j,change,1.2251380449113185,0.5766833246609577,0.4992483980952329,0.03536137025980679,0.3533157558656512,1.0010606133982947,5.190306500274119
31,23,female,61,135,135,same,valid,clock,3,1,1,0.7017524335255985,0,j,change,1.8276649154411189,0.7248484095270444,0.5000075368654961,0.03528728447372487,0.3533378853865088,1.0010368802891207,6.157424598469561
31,23,female,62,135,135,same,valid,anti,5,0,1,0.7072482518481138,0,j,change,0.9103969298337233,0.6005042844402362,0.49928239417045006,0.035344051504807794,0.35327855261380137,1.0010683106229408,5.27339066268928
31,23,female,63,45,355,change,valid,anti,2,0,1,0.17230718211976637,0,j,change,1.1523306394115025,0.6229848985444755,0.49951010372979,0.03530139605209115,0.3533273017026204,1.0010622169868384,4.966543372096339
31,23,female,64,45,45,same,valid,clock,2,0,1,0.20273046211877954,0,j,change,2.053256455165183,0.6444890420739646,0.5004405057461554,0.035329298490978545,0.3533131901242541,1.0010359181362674,5.862683117773713
31,23,female,65,15,15,same,valid,clock,3,0,2,2.967232915128079,1,j,change,2.223928297787552,0.6652875023088588,0.4998433294088045,0.0352696450008807,0.35335103481156693,1.0010458603844654,8.830269463795275
31,23,female,66,105,55,change,valid,anti,2,0,1,0.24123679003923826,0,j,change,1.141366263770351,0.6443108093758994,0.499294260725037,0.03531839408947235,0.35325930955241347,1.0010487468437077,5.01394865373959
31,23,female,67,105,105,same,valid,clock,1,2,2,0.3481166014059909,1,j,change,0.845045569172953,0.9288921813408977,0.4998381979257829,0.035332184950220835,0.35330709648815173,1.0010779321532937,4.825575439695967
31,23,female,68,75,75,same,catch,anti,3,1,1,0.19398192499238576,0,j,change,1.0871861416603679,0,0.5005999024376706,0.03531839408947235,0.3532968335223359,1.0010586890921331,6.416851533688032
31,23,female,69,15,15,same,catch,clock,3,1,1,0.15245796433418946,0,j,change,2.05225389166867,0,0.5001656506865402,0.035326412031736254,0.3533244152433781,1.0010420117723697,7.358072640632145
31,23,female,70,75,75,same,catch,anti,4,0,1,0.10935671408060443,0,j,change,0.9639798756061282,0,0.5001749514995026,0.03532063911325167,0.35332601883192183,1.0010327109594073,6.216513304812906
31,23,female,71,45,45,same,valid,clock,1,1,1,0.0595925538332267,0,j,change,0.9952405494918821,0.7418442108719925,0.49927437622818616,0.035340202892712114,0.35327021395414704,1.0010814600477715,4.69634288826137
31,23,female,72,105,105,same,valid,anti,3,0,1,1.6424279996804216,0,j,change,3.777218588669257,0.6610489342544458,0.49902742360745833,0.03532095983109684,0.35331671801895936,1.0010413703366794,9.041268669377587
31,23,female,73,15,15,same,catch,clock,4,0,1,0.09745584278653041,0,j,change,0.9625799428931714,0,0.4997195323808228,0.03532737418481702,0.3532711761072278,1.0010804978951455,6.180240134162432
31,23,female,74,45,95,change,catch,clock,5,1,1,0.10369219825361142,0,j,change,1.3238722684072854,0,0.5001159394446404,0.03535720092986594,0.3532907398862335,1.0010413703371341,6.59282163253647
31,23,female,75,45,45,same,valid,clock,2,2,1,0.0821069356161388,0,j,change,1.7333488988319914,0.9193008627920909,0.5003978502936661,0.035337316433015076,0.3532769490257124,1.0010577269390524,5.450984234480529
31,23,female,76,135,85,change,valid,anti,5,1,1,0.35900657054344265,0,j,change,1.1209426406035163,0.7589578130290577,0.499163087190027,0.0353793304507235,0.3532670067770596,1.0010516333031774,5.1670612028774485
31,23,female,77,105,55,change,valid,anti,2,1,1,0.07648218878284752,0,j,change,3.2997366587051147,0.7762521713955015,0.49928624278254574,0.03534918298737466,0.3532936263454758,1.0010609341161398,7.051211559178682
31,23,female,78,105,155,change,catch,clock,5,0,1,2.4418774556952485,0,j,change,1.1572491658935178,0,0.5002471129796504,0.035358804518637044,0.353283684096823,1.001043294642841,8.806875032672906
31,23,female,79,135,135,same,valid,anti,2,2,2,0.22483849458967597,1,j,change,1.9979557454489623,0.9486502061773776,0.5005354381819416,0.0353777268619524,0.3532737418486249,1.0010407289014438,5.897997983968708
31,23,female,80,45,95,change,valid,clock,1,0,1,0.49716629885688235,0,j,change,1.4534582507353662,0.6779322031462014,0.500010744042811,0.03529883031069403,0.353327301702393,1.0010490675617802,5.639194844655776
31,23,female,81,45,45,same,valid,anti,3,2,2,0.45660288767794555,1,j,change,1.3759718948672344,0.9406033688059376,0.4992265892924479,0.03535976667126306,0.3533077379233873,1.0010541990445745,5.544345153811264
31,23,female,82,105,105,same,catch,anti,5,1,1,1.3823884936755348,0,j,change,1.752653537981132,0,0.49958803812842234,0.03530909327628251,0.35330068213443155,1.001043294642841,8.287834183823179
31,23,female,83,165,165,same,catch,anti,3,2,1,0.2892187220872984,0,j,change,4.28617543193468,0,0.5005165158386262,0.035294660980525805,0.3533276224202382,1.0010400874662082,9.78487347847522
31,23,female,84,15,65,change,valid,clock,5,2,2,1.0757836656557629,1,j,change,1.9902828954523102,0.9332554297698767,0.49971568376849973,0.03534308935149966,0.35327470400125094,1.0010368802891207,6.745433862079153
31,23,female,85,15,65,change,valid,clock,1,2,2,0.09421755627909079,1,j,change,2.4736099053016005,0.9263981694465104,0.49964576731235866,0.03533603356254389,0.3532961920868729,1.001059651245214,6.251192829265619
31,23,female,86,105,105,same,catch,anti,3,2,1,1.5330651919639422,0,j,change,1.4531352880217128,0,0.4990947743222023,0.03537291609654858,0.35328336337943256,1.0010631791396918,8.182207737185763
31,23,female,87,165,165,same,valid,clock,2,0,2,4.868248531834524,1,j,change,2.1201690695370417,0.6949735240083594,0.49952838463786975,0.03531230045382472,0.35331190725355555,1.0010529161736486,10.690743478126024
31,23,female,88,165,165,same,valid,clock,1,0,2,1.435177342449606,1,j,change,2.2973489155092466,0.6778354762934923,0.4997166459215805,0.03531967696017091,0.3532907398862335,1.0009903762243084,7.369419311758975
31,23,female,89,105,105,same,valid,anti,5,1,1,0.5314702628952546,0,j,change,1.3401605576891598,0.7936955098954539,0.49980003252085226,0.035291774521283514,0.35333147103256124,1.0010731213878898,5.532150184396414
31,23,female,90,135,185,change,valid,clock,4,0,2,0.20008197544120776,1,j,change,1.3327988038513467,0.6635129916113098,0.5004568623480736,0.035340202892257366,0.353331471033016,1.0010352767008044,5.203720517625243
31,23,female,91,135,85,change,valid,anti,3,1,1,0.4611881884802642,0,j,change,3.032095822748488,0.8100215599937979,0.4998850227084404,0.03536137025957942,0.3533128694066363,1.001063499857537,7.169807508450049
31,23,female,92,15,325,change,valid,anti,4,2,2,0.19748095498152907,1,j,change,1.0993034973939757,0.9204064167595081,0.49987732548379427,0.035300754616855556,0.3533295467263997,1.0010699142112571,4.943601152916017
31,23,female,93,75,125,change,valid,clock,5,2,2,0.24907769610490504,1,j,change,2.5811997856321796,0.9146709170165663,0.5002772604425445,0.03533956145702177,0.35328079763803544,1.0010586890921331,6.463773814491105
31,23,female,94,165,115,change,valid,anti,3,0,1,0.18746109293533664,0,j,change,2.4722019546461524,0.6507437630237078,0.49968810204700276,0.0353520694470717,0.3532759868721769,1.0010782528711388,6.321678880131003
31,23,female,95,75,75,same,valid,clock,3,2,2,0.20684013858863182,1,j,change,1.1441237944623026,0.9091107496244955,0.49999502887612834,0.03531550763045743,0.3532884948622268,1.0010718385174187,4.97977265605914
31,23,female,96,135,85,change,valid,anti,1,1,2,1.5392883980057377,1,j,change,0.42930468084250606,0.8266814492727244,0.4993362747422907,0.035316469783538196,0.35330645505291614,1.0010525954558034,5.649469997982578
31,23,female,97,45,45,same,catch,anti,1,1,1,2.10432689856043,0,j,change,1.4314150032373618,0,0.5004863683757321,0.035353352317542885,0.3532827219437422,1.0010692727760215,8.74886169274123
31,23,female,98,105,155,change,valid,clock,3,1,1,0.3583994519576663,0,j,change,2.151808190295924,0.8173110676737767,0.4997188909455872,0.03531550763045743,0.3533266602671574,1.0010561233502813,6.191780518773612
31,23,female,99,75,75,same,catch,clock,4,2,1,0.1148797934065442,0,j,change,3.305688537581773,0,0.5003481390517663,0.035353352317542885,0.3532666860592144,1.0010625377044562,8.606867143018007
31,23,female,100,45,95,change,catch,clock,5,2,1,0.1446452814248005,0,j,change,1.659717890306183,0,0.4998378772079377,0.03533827858655059,0.35330068213443155,1.0010355974186496,7.0043883801417905
31,23,female,101,75,25,change,catch,anti,4,1,1,0.16149450594593873,0,j,change,1.2909579741162815,0,0.5060405573176467,0.035342768634109234,0.35331639730156894,1.001053557609339,6.633678821118792
31,23,female,102,45,355,change,valid,anti,4,1,1,0.030249771728904307,0,j,change,1.0429986205931527,0.8324458894109013,0.5002237005883217,0.03530235820517191,0.35329170203931426,1.0010891572724177,4.732406309543421
31,23,female,103,165,165,same,catch,anti,1,2,1,0.09299209398841413,0,j,change,0.7212568797954191,0,0.49915603140107123,0.03532609131434583,0.3532939470628662,1.0010811393303811,6.015060902685491
31,23,female,104,135,85,change,valid,anti,4,1,1,0.017151019866105344,0,j,change,0.9826007446426956,0.8468632725615663,0.4994818805730574,0.035316469783538196,0.35331800088943055,1.001032390241562,4.69636822495886
31,23,female,105,75,75,same,valid,anti,4,1,1,0.12868380346799313,0,j,change,0.930091882411034,0.8617834274880851,0.4992641132616882,0.03531967696017091,0.353337564668891,1.0010606133982947,4.755214468729264
31,23,female,106,135,185,change,catch,clock,1,0,1,1.833329110550494,0,j,change,1.275700150769353,0,0.49975000056156205,0.03532192198417761,0.3532933056276306,1.0010644620106177,8.299885471712969
31,23,female,107,15,15,same,catch,clock,5,2,1,0.02761058586429499,0,j,change,2.716688256312864,0,0.5004318463688833,0.03527958724907876,0.3533568077300515,1.0010352767008044,7.958909008222236
31,23,female,108,75,75,same,valid,clock,3,1,1,0.12133102972484267,0,j,change,0.8822603669591444,0.876054851708989,0.5000989414074866,0.0353058860996498,0.3533141522771075,1.0010602926804495,4.708269416970779
31,23,female,109,135,85,change,catch,anti,5,1,2,0.02493323459475505,1,j,change,1.508040232109579,0,0.4997657157282447,0.03531679050092862,0.35329234347454985,1.0010740835414254,6.710287693388636
31,23,female,110,15,15,same,catch,clock,2,0,1,0.9935211819597498,0,j,change,4.731380012937734,0,0.500174310064267,0.035328657055288204,0.3532798354849547,1.0010474639730091,10.902989634083497
31,23,female,111,75,25,change,catch,anti,2,2,1,0.06007298893155166,0,j,change,1.462099347435469,0,0.500191628819266,0.03531871480754489,0.3533301881616353,1.0010227687112092,6.710540098210004
31,23,female,112,165,165,same,catch,anti,4,0,1,0.6424921432180781,0,j,change,0.7268418576354634,0,0.49994339332806703,0.03535527662370441,0.3532939470628662,1.0010272587587679,6.5804335910729606
31,23,female,113,75,75,same,valid,anti,3,1,1,1.168591988408025,0,j,change,1.8771747465611952,0.8908368183821305,0.5006290877472566,0.03534052361010254,0.35325963027025864,1.0010776114354485,6.72285533675813
31,23,female,114,15,15,same,catch,clock,5,0,1,0.7003739888973541,0,j,change,1.285436177660813,0,0.4994757869371824,0.03539472489956097,0.35326123385902974,1.0010452189490024,7.18114263373991
31,23,female,115,135,135,same,valid,anti,3,1,1,1.3800331429661128,0,j,change,1.401611349814175,0.9050312106488683,0.49967206616247495,0.03534276863365449,0.3533032478762834,1.0009817168465815,6.462428083067152
31,23,female,116,135,135,same,valid,clock,1,1,1,3.818059420649206,0,j,change,1.0563661338801467,0.919721426228278,0.49987957050780096,0.03530941399412768,0.35330613433507096,1.001033673112488,8.559159424593872
31,23,female,117,15,325,change,catch,anti,2,1,1,1.5991368845548095,0,f,same,2.1984277136002675,0,0.5002233798709312,0.03534725868166788,0.35328528768513934,1.0010365595712756,9.042756799455674
31,23,female,118,105,105,same,valid,anti,2,2,1,1.0354630377673857,0,f,same,1.3611470404011925,0.9041214266358062,0.5000668696379762,0.03532448772557473,0.3533135108418719,1.0010541990441197,6.109863127311655
31,23,female,119,15,15,same,valid,clock,4,0,2,1.5739871655196112,1,j,change,4.891196523933559,0.661541216087385,0.4995851516687253,0.03532897777358812,0.35327342113077975,1.0010804978951455,10.184317097427993
31,23,female,120,165,165,same,valid,anti,4,1,2,1.512838810176163,1,j,change,3.0995629580047535,0.9338781473854034,0.49961594056730974,0.03535912523602747,0.3532807976375807,1.0010474639730091,8.26428163888022
31,23,female,121,15,15,same,valid,anti,4,1,1,1.073444350830414,0,j,change,1.4320936418680503,0.9256508247639792,0.500136786094572,0.03532769490220744,0.35328175979066145,1.001072159234809,6.1693851232530506
31,23,female,122,45,355,change,valid,anti,1,1,1,2.801669143142135,0,j,change,3.603869074058821,0.9388162431293054,0.4994485259335306,0.03528471873232775,0.3533337160561132,1.0010593305278235,10.101719784464876
31,23,female,123,75,75,same,valid,clock,5,2,1,2.168403727124769,0,f,same,0.734490333087706,0.9203356319116305,0.49973428539442466,0.03536297384835052,0.3532830426615874,1.0010352767008044,6.710411811134236
31,23,female,124,15,325,change,catch,anti,3,1,1,1.450078848443809,0,f,same,1.7019509577753524,0,0.4998622517523472,0.03534341006934483,0.3533026064405931,1.0010711970817283,8.370728802084159
31,23,female,125,135,135,same,valid,anti,1,0,2,1.3747413010937635,1,j,change,1.7785021008608055,0.6503739267018915,0.4998154269696897,0.03532769490266219,0.35332313237267954,1.001027258758313,6.80430255608826
31,23,female,126,45,45,same,catch,anti,2,1,1,0.40248049475167136,0,j,change,3.1583896379961516,0,0.4998324250072983,0.035332184950220835,0.35328881558007197,1.001032390241562,8.736316499609984
31,23,female,127,135,185,change,catch,clock,2,1,1,1.3849651395903493,0,j,change,2.318676641842103,0,0.49992094308981905,0.035353673035388056,0.35329458849855655,1.00103591813604,8.90099733579791
31,23,female,128,75,25,change,valid,anti,4,0,1,0.8221418361149517,0,j,change,2.286195957866312,0.6403607905573854,0.4999526941410295,0.03533571284469872,0.3532496880220606,1.001074724976661,6.851647863522885
31,23,female,129,15,15,same,valid,clock,3,2,2,1.4767247154995857,1,f,same,4.3654930858074295,0.9361181161423906,0.4995566077946023,0.03530941399458243,0.3533093415121584,1.0010686313403312,9.513188392457323
31,23,female,130,75,25,change,valid,anti,5,1,2,1.5203965225223328,1,j,change,2.049031641045076,0.951631331690433,0.49939015531390396,0.03534052361010254,0.3533186423251209,1.0010615755513754,7.2632620773460985
31,23,female,131,105,155,change,valid,clock,5,1,2,1.8007634363875695,1,f,same,2.762870320688762,0.9443176058195462,0.5002775811599349,0.03533090207974965,0.35328336337943256,1.0010731213883446,8.265823970247766
31,23,female,132,45,45,same,valid,anti,1,0,2,1.1247065834040768,1,f,same,1.960457112507811,0.6490934351542967,0.4995129901890323,0.035307489687966154,0.3533346782096487,1.001056123350736,6.815690920514044
31,23,female,133,135,135,same,valid,anti,1,2,2,2.6020640749043196,1,f,same,3.345669846155033,0.9319564238525873,0.4998298592659012,0.035312941888605565,0.3532993992635056,1.0010538783267293,9.631252912517084
31,23,female,134,45,95,change,valid,clock,5,1,2,0.8802866702994834,1,j,change,2.608691705951969,0.9374853095749691,0.4995380061686774,0.03535752164771111,0.35330837935907766,1.0010253344526063,7.192415219080885
31,23,female,135,75,75,same,valid,anti,5,0,2,1.1659046948898322,1,f,same,3.8857985245058444,0.6400969036189941,0.5005944502368038,0.03531775265446413,0.35330709648815173,1.0010654241636985,8.71285664207926
31,23,female,136,105,155,change,catch,clock,3,2,1,0.5368252861526344,0,j,change,3.895439618961518,0,0.5002506408741283,0.03530909327673726,0.35328977773315273,1.001073442105735,9.70260265611978
31,23,female,137,105,155,change,valid,clock,2,1,2,1.1038073359040936,1,j,change,3.74662789403601,0.9313914817336426,0.49998508662747554,0.03529850959284886,0.3532968335221085,1.001080818612536,8.536178719291001
31,23,female,138,135,185,change,valid,clock,4,2,2,1.4327030054773786,1,j,change,2.193453382240932,0.9277894061819942,0.499729795346866,0.03532288413725837,0.35329234347454985,1.0010891572724177,7.322683367933678
31,23,female,139,45,355,change,valid,anti,2,1,2,0.3649892383182305,1,j,change,1.714490057270723,0.9255855650822851,0.4995024065051439,0.035329298490978545,0.3532990785461152,1.0010538783267293,5.768192310024006
31,23,female,140,15,325,change,valid,anti,3,2,2,0.9993691483050497,1,j,change,2.025483906867521,0.9239969676616373,0.49980837118073396,0.03538734839276003,0.35329202275715943,1.0010134678982467,6.710880379678201
31,23,female,141,135,135,same,valid,anti,4,2,2,1.3200602179531415,1,f,same,4.339036121471054,0.9201666118390803,0.4991464098702636,0.03531743193661896,0.3533208873491276,1.0010394460305179,9.324441542305522
31,23,female,142,15,65,change,valid,clock,3,0,2,1.498851349596407,1,j,change,2.663924423517983,0.6318301761862589,0.49971985309866795,0.035353993753233226,0.3533048514645998,1.0010602926804495,7.875721253993106
31,23,female,143,45,95,change,valid,clock,1,1,2,1.3945122637633176,1,j,change,2.1790589309134702,0.9202897585965153,0.5003843801505354,0.0353158283483026,0.3532827219437422,1.0010679899050956,7.276626704173395
31,23,female,144,15,15,same,valid,anti,3,2,2,1.407771695188785,1,f,same,2.3077215670141413,0.9166094774383713,0.4994668068416104,0.035321280548487266,0.35331222797094597,1.001042332490215,7.404590817146982
31,23,female,145,135,185,change,valid,clock,3,0,1,1.9723320056687044,0,j,change,5.708228044388306,0.6241248055504112,0.5002554516395321,0.03531743193661896,0.35328464624990374,1.0010814600482263,11.315842780340063
31,23,female,146,15,15,same,valid,clock,2,2,2,1.1453482945998985,1,j,change,2.3894532629337846,0.9133205289606752,0.4998237656300262,0.03533122279714007,0.35330004069919596,1.0010378424422015,7.204723401840056
31,23,female,147,15,15,same,valid,anti,4,2,2,0.5529538580253757,1,f,same,2.4394707901556103,0.9099458373331073,0.50025897953401,0.035339882174412196,0.353292664192395,1.0010577269390524,6.639699654298056
31,23,female,148,75,125,change,valid,clock,2,0,2,0.23484071716347898,1,j,change,3.0475143256571755,0.6307338763456254,0.5002807883370224,0.03529979246377479,0.3533192837603565,1.0010567647859716,6.934579685036169
31,23,female,149,45,95,change,valid,clock,1,2,2,0.14476362625237016,1,j,change,1.6316951822109331,0.9067826414610394,0.5000755290161578,0.03531711121877379,0.3533032478758287,1.0010311073706362,5.4147572471774765
31,23,female,150,165,165,same,valid,anti,5,0,2,0.5174904995401448,1,f,same,2.7391516439824954,0.6236555912414097,0.5004055475178575,0.035300433899010386,0.35333018816209005,1.0010275794761583,6.910762547999639
31,23,female,151,45,355,change,valid,anti,5,0,2,1.6027693331029695,1,j,change,1.9518009420758062,0.6169391441150327,0.4996220342036395,0.035342447916264064,0.35325802668148754,1.0010801771773004,7.264236096968489
31,23,female,152,135,85,change,valid,anti,4,0,2,0.37203316092609384,1,j,change,1.0746108010662283,0.6107839278116171,0.4989446784438769,0.03528247370832105,0.35333339533872277,1.0010381631600467,5.108131572507773
31,23,female,153,135,135,same,valid,anti,5,1,2,0.6685270430757555,1,f,same,2.0803676835876104,0.9152105372715849,0.49940202186826355,0.035337637150860246,0.3532913813214691,1.001073442105735,6.403501018439329
31,23,female,154,15,65,change,valid,clock,2,0,2,1.3190913298140003,1,j,change,1.3658365744531693,0.6048991564668191,0.5002307563772774,0.035316469783538196,0.35331543514803343,1.0010288623470842,6.3456502823760275
31,23,female,155,135,135,same,valid,anti,2,0,2,0.9686174533921985,1,j,change,3.0333373209232377,0.599227364505566,0.5000912441823857,0.03532128054894201,0.3533295467263997,1.0010227687112092,7.68787433767784
31,23,female,156,15,15,same,valid,anti,1,0,1,0.204748417819701,0,j,change,1.4310474607659671,0.5939803972485733,0.49977469582290723,0.03532769490220744,0.3532686103658307,1.00106734846986,5.297170917191579
31,23,female,157,135,135,same,catch,clock,5,2,1,0.05064805819893081,0,j,change,1.7817637997604834,0,0.49997033361387366,0.035332184950220835,0.35329202275715943,1.001073442105735,7.0168341507892364
31,23,female,158,75,75,same,valid,clock,3,0,2,1.4882211617868961,1,j,change,2.2791183599010765,0.5986077798286304,0.49971600448589015,0.03534886226998424,0.35331832160773047,1.0010525954558034,7.463591005408034
31,23,female,159,135,185,change,valid,clock,5,1,1,1.0480444719974003,0,j,change,1.869090736486669,0.910510272708172,0.4999177359127316,0.0353142247595315,0.3533163973011142,1.0011439999971117,6.616184954043092
31,23,female,160,135,85,change,catch,anti,4,2,1,0.7910915530333114,0,j,change,2.7219714388070315,0,0.49988245696704325,0.035329298490978545,0.35327791117879315,1.0010917230142695,8.688639570084433
31,23,female,161,45,45,same,valid,clock,5,0,2,1.5956208565276029,1,f,same,1.9420915347527625,0.5936607083229901,0.5006614802337026,0.03529979246377479,0.3533228116552891,1.0010513125853322,7.312023353379118
31,23,female,162,135,135,same,catch,anti,2,2,1,2.2833697935889177,0,f,same,2.084500131013101,0,0.49937636445338285,0.03530460322917861,0.353337564668891,1.0010567647859716,9.560387773343791
31,23,female,163,135,185,change,valid,clock,3,2,2,0.49752678553977603,1,f,same,1.4989748259063163,0.9038356237790253,0.49999502887612834,0.035316790501383366,0.35331447299495267,1.0010529161736486,5.62707877179264
31,23,female,164,45,95,change,valid,clock,5,0,2,1.8862321348219666,1,j,change,1.8042316774785832,0.5887905158306529,0.49957200224389453,0.035329619208823715,0.3532936263454758,1.001063499857537,7.405373047591183
31,23,female,165,165,115,change,valid,anti,2,0,1,0.264828141822818,0,j,change,1.9555953530575607,0.5842610361732758,0.4991095273362589,0.03529401954529021,0.3533295467263997,1.0010593305273687,5.932168208730673
31,23,female,166,75,75,same,valid,anti,2,2,2,0.16662470610253877,1,j,change,2.0856553561297915,0.9007984894590966,0.5002259456118736,0.03534212719887364,0.35329875782827,1.00103591813604,5.921753543208979
31,23,female,167,105,155,change,valid,clock,3,0,1,0.033254896477046714,0,j,change,1.3553452574033145,0.5882738914885568,0.49983274572514347,0.035344692939816014,0.3532753454369413,1.001089798708108,5.085598589098481
31,23,female,168,75,75,same,valid,anti,3,0,1,0.49999534959351877,0,j,change,2.2813008437765347,0.5925256068124101,0.49925032240116707,0.03529626456929691,0.3533269809850026,1.0010551611972005,6.603439953791167
31,23,female,169,165,165,same,catch,anti,2,1,1,0.5910551195042899,0,f,same,1.6864824229064652,0,0.500441147181391,0.03531935624232574,0.3532852876855941,1.001080818612536,7.440836085358569
31,23,female,170,165,115,change,valid,anti,4,0,1,0.9284757859745696,0,j,change,1.7464543857663557,0.5965378405856304,0.50048989627021,0.03528311514355664,0.35334397902261117,1.00105484047981,6.369846507721377
31,23,female,171,15,15,same,catch,anti,2,2,1,0.08072239735201947,0,j,change,1.080780447253801,0,0.49932889823548976,0.03532352557249396,0.3532747040017057,1.0010769700006676,6.344419047166866
31,23,female,172,135,85,change,valid,anti,1,0,2,0.19172022384782395,1,j,change,1.7179833143418364,0.6007655278920617,0.5001313338939326,0.03531486619476709,0.35331735945419496,1.0010327109594073,5.556464754569333
31,23,female,173,105,105,same,valid,anti,1,1,1,0.05407749244932347,0,j,change,3.551946804480849,0.9183642706945605,0.5000736047095415,0.03532801562050736,0.35324551869189236,1.0010801771768456,7.263754378998783
31,23,female,174,45,95,change,valid,clock,2,0,2,1.2914717638541333,1,j,change,0.999448365574608,0.5964598277566668,0.4999475626577805,0.03529915102808445,0.3533407718455237,1.0010477846908543,5.9562852168069185
31,23,female,175,75,25,change,valid,anti,3,2,2,0.038334743956511375,1,j,change,2.154882590064517,0.8978916756508186,0.5004193383783786,0.03531935624232574,0.35330196500490274,1.0010493882791707,5.862614163470425
31,23,female,176,15,325,change,valid,anti,2,2,1,0.026701992650941975,0,j,change,1.4122835516404848,0.8951788011770929,0.500444995793714,0.03527766294291723,0.3533192837603565,1.0010750456940514,5.097791634207169
31,23,female,177,15,15,same,valid,anti,3,1,1,1.6803942390120028,0,j,change,0.7805011342179569,0.9262992228245386,0.49960247042417905,0.03535848380079187,0.353294909215947,1.0010705556464927,6.1336234973173305
31,23,female,178,135,135,same,valid,anti,1,1,2,0.7801127450961758,1,f,same,2.129704647873041,0.9342965218382502,0.4995514763118081,0.03528503944971817,0.3533317917504064,1.0010577269390524,6.497757702275976
31,23,female,179,105,55,change,catch,anti,3,1,1,0.694085035729131,0,f,same,0.9119443926842905,0,0.5001640470977691,0.03526836212995477,0.3533542419886544,1.0010670277520148,6.793572304359714
31,23,female,180,105,55,change,valid,anti,3,1,2,1.3040964949727822,1,j,change,1.8498977070930778,0.9297407344138442,0.4999190187836575,0.03531390404168633,0.3533122279714007,1.0010532368914937,6.934083214052862
31,23,female,181,75,75,same,valid,clock,1,0,1,0.47325230507794913,0,j,change,2.508807068104943,0.5924272005236647,0.49953608186251586,0.03533186423283041,0.3533757300738216,1.0010006391903516,6.734133695017135
31,23,female,182,45,45,same,valid,clock,4,2,2,5.797512962607016,1,f,same,6.105317916219974,0.9051458178760368,0.49964993664207213,0.0352885673446508,0.3533240945257603,1.0010465018199284,15.637064637763615
31,23,female,183,165,115,change,valid,anti,1,2,2,1.3694501006571045,1,j,change,1.6140441634674971,0.9026897880108207,0.49977822371783986,0.03535527662370441,0.3532878534269912,1.001028541629239,6.663310569860641
31,23,female,184,165,165,same,valid,anti,2,2,2,2.0186195861651868,1,f,same,3.7640537689617304,0.9001147418168249,0.4997439069252323,0.03532192198417761,0.353337564668891,1.0010307866532457,9.46665642508151
31,23,female,185,165,165,same,valid,clock,1,2,2,1.7038492857777783,1,f,same,3.4835932055316334,0.8976502005057705,0.499385023830655,0.035329298490978545,0.3532990785461152,1.0010506711496419,8.888642648974383
31,23,female,186,75,25,change,valid,anti,4,2,2,1.664419932347755,1,f,same,2.9250530867957423,0.8953348655842694,0.49970734510861803,0.035345975811196695,0.3532798354844999,1.0010574062212072,8.264430772605465
31,23,female,187,135,135,same,valid,clock,2,2,2,2.3973098841665887,1,f,same,2.274499383740931,0.8931243283576895,0.4999061900757624,0.03533058136144973,0.35330068213443155,1.0010516333027226,8.41827616166347
31,23,female,188,45,45,same,valid,clock,2,1,2,2.642050194242529,1,f,same,3.098072262185269,0.9255412970001655,0.4999036243343653,0.03536265313050535,0.35329458849855655,1.0010362388538852,9.45487229502669
31,23,female,189,45,95,change,valid,clock,2,2,2,2.5046425489103967,1,j,change,2.512162416569481,0.8908001524519948,0.49944050799103934,0.03533988217486694,0.35332088734867284,1.0010580476568975,8.794552096900588
31,23,female,190,105,55,change,valid,anti,4,0,2,1.5644384377587812,1,j,change,4.128803751883424,0.5960917351161563,0.49988534342628554,0.035328977773133374,0.35327855261402874,1.0010599719626043,9.477653193209335
31,23,female,191,45,95,change,valid,clock,3,2,2,1.3922489590304394,1,j,change,2.2893325768668547,0.8885328747430625,0.5003096529289905,0.03532769490266219,0.35328657055606527,1.0010651034458533,7.38164635294288
31,23,female,192,15,15,same,valid,anti,5,1,2,1.5997395130930272,1,f,same,3.0309858188261387,0.9216173119342761,0.5000027261003197,0.03531839408969972,0.3532884948622268,1.0010731213878898,8.359266993307301
31,23,female,193,165,165,same,valid,anti,4,0,1,1.039748788248744,0,j,change,1.8718851497123978,0.5922344133624912,0.4995703986555782,0.03536233241311493,0.3532791940497191,1.0010705556464927,6.580245971224485
31,23,female,194,15,15,same,valid,clock,2,0,2,2.2939076147040396,1,f,same,3.025331565965189,0.5957538462357285,0.5003115772351521,0.035278945813843166,0.35332922600855454,1.001084667224859,9.089734885136295
31,23,female,195,165,165,same,valid,clock,5,1,2,1.5368214375403113,1,j,change,1.5513695126405764,0.9177048722645904,0.5000954135125539,0.035328977773133374,0.35332249093744394,1.0010663863167792,6.804743863628119
31,23,female,196,165,165,same,valid,anti,3,0,2,2.8879928749356623,1,f,same,9.667099207923457,0.5920565007193052,0.5001531426964902,0.03536297384835052,0.35329843711042486,1.0010227687112092,16.227060426740536
31,23,female,197,45,355,change,valid,anti,1,0,2,0.6792037349500788,1,j,change,1.5505154414340723,0.5883396495509463,0.4998003532382427,0.03533892002133143,0.3533067757707613,1.0010654241636985,5.932879239847352
31,23,female,198,135,85,change,valid,anti,3,0,2,1.1269038202926822,1,j,change,1.793639013639222,0.5848680849318107,0.5001569913088133,0.03533410925638236,0.35328336337943256,1.0010279001940035,6.639687467026306
31,23,female,199,75,125,change,valid,clock,3,2,2,0.8529868598757275,1,j,change,1.8100126138269843,0.8863933704491513,0.5002137583396689,0.03530364107609785,0.35333435749180353,1.0010776114359032,6.416621258387295
31,23,female,200,15,65,change,valid,clock,4,2,2,2.2153664183560977,1,j,change,5.792592191101448,0.8843549497296728,0.4992538502960997,0.03535431447062365,0.35330613433507096,1.0010564440685812,11.726403436553937
31,23,female,201,15,65,change,valid,clock,5,0,2,0.90162081098606,1,f,same,2.1560990722600764,0.5814232213435835,0.5047567244077982,0.0353414857631833,0.3532891362974624,1.0010519540205678,6.774566894814598
31,23,female,202,75,125,change,valid,clock,4,2,2,1.0487763497644664,1,j,change,1.5497367388848033,0.8822212351889696,0.4990726448013447,0.035297547439768096,0.3533234530905247,1.0010593305278235,6.344177226029387
31,23,female,203,105,105,same,valid,anti,4,2,2,2.6256018668336765,1,f,same,3.902040309723361,0.8801252769303782,0.5003256888135184,0.035324167008184304,0.35333916825720735,1.0010195615341217,10.231801917057965
31,23,female,204,15,15,same,valid,clock,5,0,1,1.081663062334428,0,j,change,2.0787313819373594,0.578053870648345,0.4999414690219055,0.03532320485464879,0.35329555065118257,1.001066065598934,6.852214250962334
31,23,female,205,165,165,same,valid,clock,4,0,2,1.323329934794856,1,f,same,3.4087158880656716,0.5811943958395847,0.4996852155882152,0.03534052361010254,0.3533048514645998,1.0010590098095236,8.476887640085351
31,23,female,206,105,55,change,valid,anti,5,0,2,1.7238075475775076,1,j,change,1.8082307063455119,0.5779440728851142,0.5000450608354186,0.03533410925638236,0.3533183216072757,1.0010593305273687,7.263813070336255
31,23,female,207,105,155,change,valid,clock,3,2,2,1.0157982326531965,1,j,change,3.0373488577797616,0.8780836743125278,0.5003763622084989,0.035351107293990935,0.3532891362974624,1.0010811393303811,7.758902401437808
31,23,female,208,75,75,same,valid,clock,1,2,2,1.1635435712619255,1,f,same,2.5111765303927314,0.8761509433928905,0.5001499355194028,0.035300754616855556,0.3533135108418719,1.0010776114359032,7.42867286699493
31,23,female,209,45,95,change,valid,clock,4,1,2,2.3080551134107736,1,j,change,1.8681975377221534,0.9140915096042814,0.5004222248376209,0.035335071409463126,0.35328753270914603,1.001050991867487,7.900764494756004
31,23,female,210,135,185,change,valid,clock,5,0,2,1.3087266962515969,1,j,change,1.4408351232054883,0.5749008537724832,0.49934685842572435,0.03535559734154958,0.3533074172059969,1.001054519761965,6.450387699578641
31,23,female,211,15,15,same,catch,anti,3,2,1,0.35556526973823566,0,j,change,1.4347847839985661,0,0.5004738603856822,0.035332184950220835,0.3533317917504064,1.0010333523946429,7.111782943399703
31,23,female,212,135,185,change,valid,clock,5,2,2,1.1133150118007507,1,j,change,1.9724490676258029,0.874298060155956,0.49965089879560765,0.03541396796117624,0.3532493673042154,1.0010545197624197,6.827769790125785
31,23,female,213,45,45,same,valid,anti,4,0,2,0.4925617549929484,1,f,same,1.6999576973366857,0.5718676173856169,0.49965635099624706,0.03532416700772956,0.353294909215947,1.0010339938303332,5.791087704421443
31,23,female,214,135,135,same,valid,clock,3,0,2,0.5405071252243943,1,j,change,1.3508042156413467,0.5688615014341518,0.5005902809066356,0.03529979246377479,0.3533051721819902,1.0010458603846928,5.5807992092386485
31,23,female,215,165,215,change,valid,clock,1,0,2,0.2117949061694162,1,j,change,1.788390147937207,0.566031840361894,0.49966661396183554,0.03533827858655059,0.3533282638559285,1.0010567647859716,5.67368803213094
31,23,female,216,165,215,change,valid,clock,4,2,2,0.3578798893008752,1,j,change,1.123970215589452,0.8723485579483901,0.49998989739287936,0.035337637150860246,0.35331735945419496,1.001056123350736,5.167533620033282
31,23,female,217,135,135,same,catch,clock,3,1,1,0.8400670684827674,0,j,change,1.6949881767422994,0,0.500182648723694,0.03534629652813237,0.35330517218244495,1.0010349559829592,7.73576903451476
31,23,female,218,135,135,same,valid,anti,5,2,2,1.6284694036930887,1,f,same,1.6168116364074194,0.8704269230740065,0.4996287692747501,0.03521961304159049,0.3533003614165864,1.0010615755513754,6.992662620706142
31,23,female,219,135,135,same,valid,anti,4,1,2,0.860814937233954,1,f,same,1.6201105385589472,0.9104687792657107,0.4996079226252732,0.03531743193616421,0.35328464624990374,1.00106734846986,6.215259298648107
31,23,female,220,105,105,same,valid,anti,3,1,2,0.33461695243113354,1,j,change,2.37805752200029,0.9070370055685002,0.5002285113537255,0.03532705346697185,0.3533000406987412,1.0010333523946429,6.427659399097138
31,23,female,221,105,105,same,valid,clock,1,1,1,0.09835898379924402,0,j,change,2.6582878101298775,0.9038362169112608,0.5000020846650841,0.03532095983109684,0.3533042100293642,1.0010487468434803,6.463293058674935
31,23,female,222,165,215,change,valid,clock,5,0,2,0.8473005352457221,1,j,change,1.3446069877327318,0.5633239919626094,0.5000575688250137,0.03531807337185455,0.35331671801895936,1.0010420117723697,5.8858264269451865
31,23,female,223,15,15,same,catch,anti,5,2,1,1.0485819948448807,0,j,change,1.5115822382695114,0,0.5004732189504466,0.03531197973597955,0.35332377380791513,1.0010551611972005,7.7708693405757
31,23,female,224,75,75,same,catch,clock,5,2,1,0.31823757932534136,0,j,change,1.407686705001197,0,0.4997823930480081,0.035342447916264064,0.3532833633789778,1.001049708996561,6.934438569252507
31,23,female,225,135,135,same,catch,clock,2,2,1,0.33196814503617134,0,j,change,0.7791740044199287,0,0.4993782887595444,0.03537900973287833,0.35329458849855655,1.0010641412927725,6.309459215453899
31,23,female,226,165,115,change,valid,anti,3,2,2,1.1514332713172735,1,j,change,1.2638627815777,0.8685299537642857,0.49999631174659953,0.03531679050092862,0.3532997199813508,1.0010602926804495,6.16863528529575
31,23,female,227,105,105,same,valid,anti,4,1,2,1.9576405697616792,1,j,change,3.018446398612923,0.9091338819920771,0.49947803196073437,0.035366501742828405,0.353301002851822,1.0010490675613255,8.71213855517317
31,23,female,228,135,135,same,catch,clock,1,2,1,0.19840109403185124,0,j,change,1.0888650987635629,0,0.49957232296128495,0.03532865705574295,0.35325963027025864,1.0010631791396918,6.463265156236048
31,23,female,229,135,85,change,valid,anti,3,2,2,0.43339318994458154,1,j,change,1.2585908242026562,0.8667260063136852,0.49987155256576443,0.0353036410756431,0.35332345309006996,1.0010590098099783,5.3560341589995915
31,23,female,230,15,15,same,valid,clock,4,1,2,0.42660487933471813,1,f,same,1.4983074123947517,0.9060191605283019,0.4994828427261382,0.03533346782114677,0.3532666860592144,1.0010647827280081,5.520164964350897
31,23,female,231,165,165,same,valid,anti,3,1,2,0.35225706677374546,1,j,change,1.4978718777733775,0.9030736229285996,0.49974839697279094,0.03532448772557473,0.35332922600855454,1.001057085503362,5.497090609482257
31,23,female,232,45,355,change,catch,anti,3,2,1,0.04648065254514222,0,j,change,0.9676293221918968,0,0.500280146901332,0.035349824423065,0.3532641203178173,1.0010760078475869,6.156822611367261
31,23,female,233,75,125,change,valid,clock,1,1,1,0.1478450818103738,0,j,change,1.8544288066063928,0.9000611718844882,0.5005267788046694,0.035382537627356214,0.3532670067770596,1.0010195615341217,5.721758482261521
31,23,female,234,75,75,same,catch,clock,3,0,1,1.39516428282559,0,j,change,0.8454192052809049,0,0.49995044911656805,0.03533282638545643,0.35326444103566246,1.0010474639730091,7.487692298317597
31,23,female,235,75,25,change,catch,anti,1,1,1,0.4715034315190678,0,j,change,0.8204420323622799,0,0.4998728354362356,0.03533892002178618,0.35326444103566246,1.001078573588984,6.5694749883496115
31,23,female,236,45,45,same,catch,anti,3,0,2,1.173242715618926,1,j,change,1.3159848582763516,0,0.49939015531390396,0.035305244664414204,0.3532820805085066,1.0010538783267293,7.734530422798798
31,23,female,237,165,115,change,valid,anti,1,0,1,1.0559511251894946,0,j,change,3.0391387832037253,0.5605635955266595,0.49981670984061566,0.03533442997422753,0.35327342113077975,1.0010295037823198,7.817541461581186
31,23,female,238,135,135,same,catch,anti,3,2,1,0.801308015023551,0,j,change,0.40681723934585534,0,0.4993221631639244,0.03531518691261226,0.3533237738083699,1.0010442567963764,6.427193075577179
31,23,female,239,105,55,change,catch,anti,4,1,1,0.6925670789064498,0,j,change,0.44371452661926014,0,0.5002862405376618,0.035340202892257366,0.353250008739451,1.0010728006704994,6.321978430452873
31,23,female,240,45,355,change,valid,anti,3,0,1,0.8510991155567353,0,j,change,0.4337424515083512,0.5630890442067228,0.49995173198794873,0.03538029260334952,0.35325161232776736,1.0016003812688723,4.991428819755583
31,23,female,241,105,55,change,valid,anti,4,1,2,1.4903318049000518,1,j,change,1.48292739560884,0.9050092900219082,0.49913742977469155,0.03532448772557473,0.35332569811407666,1.0010500297144063,6.674283284162357
31,23,female,242,135,135,same,catch,clock,2,2,1,0.5533278148509453,0,j,change,0.9193853637916618,0,0.4996319764513828,0.03533956145702177,0.3532599509881038,1.0010429739254505,6.651254791922838
31,23,female,243,75,75,same,valid,anti,4,2,2,1.3522750269644348,1,f,same,1.9631626869345382,0.8649965410669709,0.5001784793939805,0.03530235820517191,0.3533016442875123,1.0010625377044562,7.051888273502755
31,23,female,244,75,75,same,catch,anti,4,2,1,0.7859308846964268,0,j,change,0.3199094806395806,0,0.500131654611323,0.03529594385145174,0.3533394889750525,1.0010551611976553,6.310466910433661
31,23,female,245,15,325,change,valid,anti,4,1,2,1.0268649172371624,1,j,change,1.407519290366963,0.9022766611979538,0.49954794841687544,0.035308131123656494,0.35330613433507096,1.0010699142112571,6.180496387596577
31,23,female,246,105,55,change,valid,anti,1,2,2,0.9591088153424607,1,j,change,1.4749912363890871,0.8631794686037111,0.4996621239142769,0.03529915102808445,0.35332313237267954,1.0010618962687658,6.1567283203662555
31,23,female,247,165,215,change,valid,clock,2,1,2,1.2755660907751007,1,j,change,1.4268120629617442,0.8994618456115495,0.49940426689227024,0.03534052361010254,0.3532981163925797,1.0010378424422015,6.427188906247011
31,23,female,248,135,85,change,catch,anti,3,1,1,0.887756826716668,0,j,change,0.352776950147927,0,0.5001486526489316,0.03533827858655059,0.35329715423995367,1.0010339938298785,6.415773601534511
31,23,female,249,75,75,same,catch,anti,1,0,2,2.0565563194691094,1,j,change,1.4634293636927396,0,0.5008616080717729,0.03528375657924698,0.3533414132807593,1.0010615755509207,8.725135639529071
31,23,female,250,105,155,change,valid,clock,1,0,1,0.04764934780450858,0,j,change,1.0370496281761916,0.5654961161980869,0.4999219052428998,0.03533346782114677,0.35330292715843825,1.0010365595717303,4.75543448106464
31,23,female,251,135,135,same,valid,clock,3,2,1,0.2593666402931376,0,j,change,0.991550692477631,0.8613923177481433,0.5064889206473708,0.035447001882857876,0.35321216405236555,1.001037201006966,4.9504205731414
31,23,female,252,135,135,same,valid,clock,5,1,2,1.590280265567344,1,f,same,4.501487328283474,0.8968070781622044,0.49954249621623603,0.03533924073963135,0.3532644410352077,1.0010651034458533,9.831337453700144
31,23,female,253,45,45,same,valid,clock,4,1,1,0.6589183411069826,0,j,change,0.38994171597414606,0.8942965778921115,0.4993885517255876,0.035350465858300595,0.3533138315597171,1.0010618962687658,4.755364885325889
31,23,female,254,15,15,same,valid,anti,1,1,2,1.0115272351858948,1,f,same,1.8337184618249012,0.8984758721481543,0.4996717454450845,0.03532801562050736,0.35327053467153746,1.001078573588984,6.56879891546123
31,23,female,255,75,25,change,catch,anti,2,0,1,0.9829532133826433,0,j,change,0.6830154646863775,0,0.50015923633282,0.035337957868705416,0.3532689310832211,1.0010843465070138,6.910824125795443
31,23,female,256,165,165,same,valid,clock,3,1,2,1.2266078940810985,1,j,change,2.3496919666954454,0.8960157907286035,0.5000726425564608,0.03532448772557473,0.3532795147671095,1.00105484047981,7.287717763302226
31,23,female,257,45,45,same,valid,clock,3,0,2,0.6885593906622489,1,f,same,3.418915672735693,0.5680460712247533,0.4994985578928208,0.035310055429363274,0.35335071409372176,1.001021165122438,7.79328045126249
31,23,female,258,45,45,same,valid,clock,3,1,2,1.13965812135757,1,j,change,1.0914526490801109,0.8936671344426008,0.5003933602456527,0.03535303160015246,0.35327887333141916,1.0010465018199284,5.933794888850571
31,23,female,259,75,125,change,valid,clock,3,0,2,1.2079754792084714,1,j,change,1.609998309817911,0.5654792347523852,0.4996762354926432,0.03532224270156803,0.35332505667884107,1.0010782528711388,6.48659704740885
31,23,female,260,105,155,change,valid,clock,4,0,2,0.7039971366325517,1,j,change,1.0951059442777478,0.5630014585104369,0.4999093972528499,0.03533892002178618,0.3533154351484882,1.001054519761965,5.497736214190354
31,23,female,261,75,25,change,valid,anti,2,2,2,2.0340563699828635,1,j,change,1.5276020868459455,0.8674978073822417,0.49972883319378525,0.0353225634194132,0.3533359610801199,1.0010638205749274,7.2398378194789075
31,23,female,262,75,125,change,valid,clock,2,1,2,1.1538335225031915,1,j,change,1.2471909139394484,0.891257412359779,0.4999356961034209,0.03530171676993632,0.35332441524360547,1.001037201006966,6.062199026493545
31,23,female,263,105,105,same,valid,anti,5,0,2,1.2491415189251711,1,j,change,1.2956972194097034,0.5604601249041461,0.5004363364159872,0.035332184950220835,0.35330036141704113,1.0010474639730091,6.192615346918501
31,23,female,264,135,135,same,catch,anti,1,1,1,0.9771443745958095,0,j,change,0.6635026797566752,0,0.4996941956833325,0.035351107293990935,0.3533026064405931,1.0010497089970158,6.851265568037434
31,23,female,265,75,75,same,catch,clock,1,1,1,1.048501173987006,0,j,change,0.742948620705647,0,0.5001771965230546,0.03532288413725837,0.3532788733318739,1.0010814600482263,6.9935959091817494
31,23,female,266,45,95,change,valid,clock,4,2,2,0.6733253004244943,1,j,change,1.1277870768089997,0.8658978517668805,0.4993814959361771,0.03532737418481702,0.3533327539034872,1.0010339938303332,5.50834170673761
31,23,female,267,135,135,same,valid,clock,5,0,2,0.8940477041905979,1,j,change,1.5552380094077307,0.55796938056853,0.4997718093641197,0.0352863223206441,0.35331671801895936,1.0010984580858349,6.157159364940526
31,23,female,268,45,45,same,valid,anti,5,2,2,0.8477768010143336,1,f,same,1.9864047771538935,0.8643519322516997,0.4996415979826452,0.03533859930394101,0.35330709648815173,1.001038163159592,6.521737443180882
31,23,female,269,75,25,change,catch,anti,5,0,2,1.658364782375429,1,f,same,2.0194018166093883,0,0.4999825208860784,0.03530396179348827,0.3532881741448364,1.0010715177995735,8.92474327350783
31,23,female,270,75,25,change,valid,anti,3,0,2,0.6206009159059249,1,f,same,1.7402231617825237,0.5556258393685742,0.4999142080182537,0.035396328488332074,0.3532772697431028,1.0010208444050477,6.027747532318244
31,23,female,271,105,155,change,valid,clock,2,0,2,0.4851663257973087,1,j,change,0.9812748977151386,0.5533612154504055,0.4991441648462569,0.035391197005083086,0.353272458977699,1.0010275794761583,5.131198550869158
31,23,female,272,165,115,change,valid,anti,2,1,2,0.21448123753407344,1,j,change,1.4612940253182387,0.8888789285723173,0.4997637914216284,0.0352969060045325,0.3532949092164017,1.0010923644495051,5.356073286557603
31,23,female,273,75,75,same,valid,anti,5,2,1,0.12659432772261425,0,j,change,0.8590824202769909,0.8627159302002156,0.49988790916768266,0.03533058136190448,0.35331800088943055,1.0010471432556187,4.6496977075421455
31,23,female,274,45,45,same,valid,clock,4,0,2,0.7852089491780134,1,f,same,3.228049199376528,0.5510421177272826,0.4998003532382427,0.03530043389855564,0.35329875782827,1.0010978166501445,7.675819842610963
31,23,female,275,45,45,same,valid,anti,4,1,2,1.136053254530907,1,f,same,1.1412212993750472,0.886640592528996,0.5001717443228699,0.035334750691617955,0.35326957251891145,1.001066065598934,5.968617453392653
31,23,female,276,135,135,same,valid,anti,3,0,2,0.5532652749016052,1,f,same,1.19979140521491,0.5487241469977961,0.499923188113371,0.0353414857631833,0.3532682896479855,1.0010647827284629,5.39151996772307
31,23,female,277,15,15,same,valid,clock,1,1,2,0.929568791859765,1,j,change,1.9092635135202727,0.8845078907392536,0.5000312699748974,0.03534950370567458,0.3533199251960468,1.00104842612609,6.521868616715892
31,23,female,278,15,15,same,valid,anti,2,1,2,0.5721590746907168,1,f,same,1.8906570767803714,0.882330046757837,0.5004103582832613,0.03531518691261226,0.3533045307467546,1.0010567647859716,6.192791420930007
31,23,female,279,135,135,same,valid,clock,1,0,2,1.113240926014896,1,f,same,1.8199830853491221,0.5465385884200162,0.49978752453080233,0.035295623134061316,0.35333596108057463,1.001022447993364,6.663576124107749
31,23,female,280,45,45,same,valid,anti,2,2,2,0.3431057082298139,1,f,same,1.495248407074996,0.8682639076094574,0.499470334736543,0.03533635428038906,0.35332858457331895,1.0010541990445745,5.532537611365115
31,23,female,281,15,325,change,valid,anti,4,0,2,0.41402633156394586,1,j,change,2.2551325253598407,0.5444438414023113,0.4992012525949576,0.03530235820517191,0.3533019650053575,1.0010821014834619,6.356149296650074
31,23,female,282,15,65,change,valid,clock,4,0,2,0.40478228560778007,1,j,change,1.1574893834426803,0.5423215398708792,0.5002172862346015,0.03530332035825268,0.3533077379233873,1.0010670277520148,5.262608775413355
31,23,female,283,165,115,change,valid,anti,2,2,2,0.31211860653274925,1,j,change,0.9899448590076645,0.8667670587818794,0.49960311185941464,0.035297226721922925,0.35331543514803343,1.0010429739254505,4.966706938117568
31,23,female,284,15,15,same,valid,clock,5,2,1,0.3985238006198415,0,j,change,1.7869151672848602,0.8653265060240503,0.5003381968035683,0.03533635428038906,0.35331800088943055,1.001032069523717,5.909675635750773
31,23,female,285,75,75,same,valid,clock,2,0,2,0.5446684372423078,1,f,same,1.8338897250710033,0.5401814354895997,0.5005008006719436,0.03530460322917861,0.35329875782827,1.001084667224859,6.1108621629136906
31,23,female,286,45,45,same,valid,anti,1,2,2,0.21171216100538004,1,j,change,1.4861108393920404,0.8709049631881953,0.49952774320263416,0.03531230045336997,0.35330132356966715,1.0010397667488178,5.355619150309849
31,23,female,287,165,165,same,valid,clock,4,1,2,0.15233641233044182,1,j,change,1.6674539216878657,0.880163715462899,0.5001252402576029,0.03531807337185455,0.35328528768513934,1.0010965337792186,5.509782049879959
31,23,female,288,75,75,same,valid,clock,4,1,2,0.37318004738290256,1,f,same,1.2299029476203032,0.8780615116597896,0.49984204653810593,0.03532031839586125,0.35331319012402673,1.0010481054082447,5.249919259321814
31,23,female,289,105,105,same,valid,anti,2,1,2,0.3917178505371339,1,f,same,1.2676267243787152,0.8760785560153552,0.5000902820293049,0.03533859930394101,0.35325898883502305,1.0010769700006676,5.297651031572514
31,23,female,290,45,45,same,valid,anti,2,1,2,0.3918775679467217,1,f,same,1.2580013450901788,0.874172358431399,0.49967110400984893,0.03535463518846882,0.35329715423995367,1.0010574062212072,5.296681181280292
31,23,female,291,105,105,same,valid,clock,5,2,2,0.352122686061648,1,f,same,1.1320022693980718,0.8694258090381897,0.5003013142691088,0.03533058136190448,0.3532891362974624,1.001025975887842,5.108679679038687
31,23,female,292,45,355,change,valid,anti,5,1,2,0.615706443250474,1,j,change,1.4498225950105734,0.8722122041490388,0.5005764900465692,0.03528247370832105,0.35332024591343725,1.0010192408162766,5.721777083887446
31,23,female,293,75,75,same,valid,clock,4,0,2,0.28583771620787957,1,j,change,1.288662918332193,0.5380825659293145,0.500236529295762,0.03528600160279893,0.35330645505291614,1.0010355974186496,5.202895952446397
31,23,female,294,75,125,change,catch,clock,4,1,2,0.833362785907866,1,j,change,1.2730215166288872,0,0.5000232520324062,0.03529594385145174,0.35331960447820165,1.0010413703371341,7.323420697900929
31,23,female,295,135,185,change,valid,clock,3,1,1,0.5270828449069995,0,j,change,0.9297063797484952,0.870253462218896,0.49934846201449545,0.035331543514530495,0.3532779111783384,1.0010753664118965,5.155431658748512
31,23,female,296,75,25,change,valid,anti,2,1,2,1.4542796087371244,1,j,change,1.3084752535833104,0.8735163243541513,0.4998372357727021,0.035310696865053615,0.35332505667884107,1.0010378424422015,6.450693343536386
31,23,female,297,165,115,change,valid,anti,5,0,2,0.822694111976034,1,j,change,1.308775766058261,0.5361016355779729,0.500161481356372,0.03530267892301708,0.3533346782096487,1.0010468225377736,5.756287910834999
31,23,female,298,165,165,same,valid,anti,1,2,2,1.7935841709140732,1,j,change,1.1022970763056037,0.867999614470774,0.5004305634979573,0.03529883031069403,0.3532830426615874,1.0010676691877052,6.55765878652619
31,23,female,299,15,65,change,valid,clock,1,1,2,0.25185992205888397,1,j,change,1.3329735949919268,0.8716393227233552,0.4998651382115895,0.03535014514091017,0.35328945701530756,1.0010362388538852,5.250372754134332
31,23,female,300,165,165,same,catch,clock,5,1,1,0.24710111298691118,0,j,change,1.2120485938612546,0,0.49944820521568545,0.035337637150860246,0.3533074172059969,1.001048746843935,6.662486325399186
31,23,female,301,75,75,same,valid,anti,2,0,1,0.25011201065262867,0,j,change,3.068791057877661,0.5341890248896395,0.5066460723151067,0.035300433899010386,0.3533176801720401,1.001063499857537,7.022909826693649
31,23,female,302,165,215,change,valid,clock,5,2,2,0.5151094914153873,1,j,change,0.8515089927636836,0.8666357476774782,0.5000396086347791,0.03530941399412768,0.35328753270914603,1.001039766748363,5.050227918025939
31,23,female,303,105,55,change,catch,anti,5,1,1,0.8538614570138634,0,j,change,0.2963158838324489,0,0.4993135037866523,0.03529947174592962,0.35335199696510244,1.0010160336396439,6.356279828749393
31,23,female,304,165,115,change,catch,anti,5,0,1,0.15401729373888884,0,j,change,1.04174076581603,0,0.5005165158386262,0.03530203748732674,0.35329747495779884,1.001059651245214,6.404967660431794
31,23,female,305,45,355,change,valid,anti,1,2,2,0.4279419513809444,1,j,change,0.9042308115408559,0.8653195968423735,0.49979714606160996,0.035315828347847855,0.3533321124682516,1.0010481054086995,5.014605804284656
31,23,female,306,105,55,change,valid,anti,5,2,2,0.4229445283476707,1,j,change,0.8474557626072965,0.8640380438903419,0.49918874460536244,0.03533699571562465,0.3533327539034872,1.0010404081835986,4.908028108981398
31,23,female,307,15,15,same,valid,clock,3,1,2,0.7872160004772013,1,j,change,2.3347009804660956,0.8697539095453086,0.49920606336036144,0.035307489687966154,0.3532961920868729,1.0010817807660715,6.780145779018312
31,23,female,308,15,15,same,catch,anti,4,0,1,0.7078701234472646,0,j,change,0.3557121584399283,0,0.5002272284827995,0.03531294188906031,0.3532965128047181,1.0010471432556187,6.239664631926644
31,23,female,309,165,215,change,valid,clock,5,1,2,0.8685583451224375,1,f,same,1.7628164401171489,0.8679390153287014,0.5003959259875046,0.03531711121877379,0.3532939470628662,1.0010221272755189,6.3340717323599165
31,23,female,310,105,105,same,valid,anti,3,2,1,0.7984950001718971,0,j,change,1.174267729354142,0.8626733520780221,0.49936000785100987,0.03535688021247552,0.35328753270914603,1.0010654241636985,5.650105339725087
31,23,female,311,75,125,change,valid,clock,4,0,2,2.6929423186029453,1,j,change,1.2816164299824777,0.5359341653236545,0.4999825208860784,0.03533026064405931,0.35331607658372377,1.0010227687112092,7.675858008015894
31,23,female,312,15,15,same,valid,clock,2,1,2,2.3251753443782945,1,f,same,2.0622397576403273,0.8662178145280881,0.5004777089980053,0.03532737418481702,0.35332762242069293,1.0010330316772524,8.100872127612547
31,23,female,313,135,185,change,valid,clock,4,1,2,5.895099016775475,1,j,change,1.7292998380053177,0.8645588628792924,0.4997541698912755,0.03531518691261226,0.3533471861992439,1.001044898231612,11.350739430668455
31,23,female,314,75,75,same,valid,clock,5,0,2,2.1191241713054296,1,j,change,1.537523809279719,0.534063517876119,0.49941869918802695,0.03530075461640081,0.3533439790221564,1.001024693016916,7.39238109471853
31,23,female,315,75,125,change,catch,clock,2,1,1,0.8652081281406936,0,j,change,2.743856893201155,0,0.5004004160350632,0.03534116504533813,0.3533170387363498,1.0010426532076053,8.807549822691271
31,23,female,316,105,55,change,valid,anti,2,2,2,0.5513823413480168,1,j,change,1.3568718736037226,0.8673197534519677,0.5000485887298964,0.03533956145702177,0.3533032478762834,1.0010551611976553,5.580014733770895
31,23,female,317,75,75,same,catch,anti,1,0,1,0.37226696412153615,0,j,change,0.8575849893854866,0,0.49941452985831347,0.03532416700772956,0.353315114430643,1.0010295037823198,6.415148202040655
31,23,female,318,105,105,same,valid,clock,2,0,2,0.8625702251470102,1,f,same,3.4519707620925146,0.532154383462148,0.5006547451621373,0.035312941888605565,0.3532910606036239,1.0010811393303811,8.077061725647127
31,23,female,319,45,45,same,catch,clock,4,0,1,0.33413683805065375,0,j,change,0.8295561876543616,0,0.4997987496499263,0.035329298490978545,0.3532933056276306,1.0010756871297417,6.3453071144485875
31,23,female,320,45,45,same,valid,clock,1,2,2,0.6575103904510797,1,f,same,1.5347784658597448,0.8660762702770401,0.4997102315678603,0.035294340262680635,0.35329234347454985,1.0010779321532937,5.897375791651484
31,23,female,321,165,165,same,valid,clock,2,1,2,0.5847398674854958,1,j,change,1.4758388932418711,0.8628529574644894,0.5002660353229658,0.035323846290339134,0.3533032478758287,1.0010404081840534,5.74471192656074
31,23,female,322,165,165,same,valid,anti,4,2,2,0.5019940622323702,1,f,same,1.414806637701986,0.8648699851379149,0.4998353114665406,0.03529883031069403,0.353337564668891,1.001032390241562,5.497153149431597
31,23,female,323,165,215,change,valid,clock,1,1,2,0.708276472759735,1,j,change,1.13621297194004,0.8611523154533867,0.500119467339573,0.03534308935149966,0.3533032478758287,1.001031107371091,5.509659535722676
31,23,female,324,105,105,same,valid,clock,4,1,2,0.7351285612894571,1,f,same,2.2595885769337656,0.859438835461819,0.4996111298019059,0.03531711121877379,0.35332313237267954,1.0010641412927725,6.604623402064135
31,23,female,325,105,105,same,catch,clock,1,0,1,0.29502627800411574,0,j,change,2.0405217178795283,0,0.4996967614251844,0.035300113181165216,0.3533080586412325,1.0010747249762062,7.498864819739083
31,23,female,326,105,105,same,valid,clock,5,0,2,0.47555505808668386,1,f,same,1.3871312668638893,0.5302203411375777,0.5005174779912522,0.0352930573917547,0.35332666026761217,1.0010368802891207,5.509760561794792
31,23,female,327,45,45,same,valid,clock,5,1,2,1.132299895414235,1,f,same,1.385807664960339,0.857799937547792,0.4993500656028118,0.03533571284469872,0.35328753270914603,1.0010272587587679,6.156056416807132
31,23,female,328,105,105,same,valid,clock,2,2,2,0.5867013768729521,1,f,same,2.4927355839804477,0.863592054035103,0.5003686649838528,0.03530460322917861,0.35331479371279784,1.0010590098095236,6.804775293961939
31,23,female,329,105,105,same,catch,anti,3,1,2,1.1043586496120952,1,j,change,1.5988382963860204,0,0.5003981710110565,0.03527541791936528,0.35332088734867284,1.0010541990445745,7.970800578703347
31,23,female,330,45,355,change,valid,anti,2,2,2,0.17846015098803036,1,j,change,1.2824002640145409,0.8623299034528871,0.5006396714306902,0.035284077296637406,0.3533622599306909,1.001040728900989,5.1801416738326225
31,23,female,331,75,75,same,valid,clock,4,2,1,0.07342639064063405,0,j,change,1.4756615363594392,0.8610718407749254,0.49949567143357854,0.03537163322653214,0.35337637150860246,1.0009416271359441,5.2381325635251414
31,23,female,332,15,15,same,catch,anti,1,0,1,0.1324477462685536,0,j,change,0.8584287976254927,0,0.49938181665402226,0.03538446193397249,0.35325834739978745,1.0010641412927725,6.156387076744977
31,23,female,333,75,125,change,valid,clock,5,1,2,0.34644053076135606,1,j,change,1.097403245085843,0.8562395878386144,0.5002859198193619,0.03536072882434382,0.3533013235701219,1.001033031676343,5.14489447906999
31,23,female,334,135,135,same,valid,clock,4,0,2,0.41687526679743314,1,f,same,1.6953230060098576,0.5283108407025763,0.49957136080865894,0.035288888061586476,0.35331543514803343,1.0010574062207525,5.814627099939571
31,23,female,335,165,165,same,valid,clock,2,2,2,1.4636711848297637,1,j,change,1.2297233457138645,0.8654100779477021,0.4998045225684109,0.035302037486871995,0.3533356403631842,1.0010416910545246,6.392154668029434
31,23,female,336,105,105,same,valid,anti,4,0,2,0.3566743115070494,1,j,change,1.327477776669184,0.5265082822306577,0.5002621867115522,0.03534597581074195,0.3532923434750046,1.0010394460305179,5.379741610587189
31,23,female,337,15,325,change,valid,anti,1,0,2,0.31591622469113645,1,j,change,0.8833411855712257,0.5247720998141394,0.49976186711592163,0.035324487726029474,0.35330613433507096,1.0010513125853322,4.908144529502351
31,23,female,338,45,95,change,valid,clock,4,0,2,0.2588095536666515,1,j,change,0.9330354293624623,0.5230120075632383,0.5002682803469725,0.03536072882525332,0.3532814390728163,1.0010490675613255,4.861769393076429
31,23,female,339,15,65,change,valid,clock,2,2,1,0.22114061963293352,0,j,change,1.2657874084316063,0.8642979937208572,0.4999190187836575,0.035328336337443034,0.35329939926396037,1.001065103446308,5.179572079215177
31,23,female,340,75,125,change,catch,clock,3,2,1,0.151547126096375,0,j,change,0.9277618683991022,0,0.4999424311745315,0.03533218495067558,0.35330196500490274,1.0010372010065112,6.297759434150976
31,23,female,341,165,165,same,valid,clock,3,0,2,0.45331424849246105,1,f,same,1.667605941873262,0.5212433061360342,0.50031510512963,0.03531775265400938,0.3532689310832211,1.0010821014839166,5.8274930107600085
31,23,female,342,45,45,same,valid,anti,3,0,2,0.28721070863502973,1,f,same,1.1189628503079803,0.5194397170841714,0.4995283846383245,0.035339561456567026,0.3532634788825817,1.0010641412927725,5.073167571465092
31,23,female,343,45,355,change,valid,anti,3,1,2,0.30033704221932567,1,j,change,1.1259721354053909,0.8547320898784967,0.49988085337827215,0.035347579399058304,0.3533093415117037,1.0010599719626043,5.1326799458756796
31,23,female,344,15,325,change,catch,anti,1,0,2,0.19989499702842295,1,j,change,1.2693653349724627,0,0.4996297314282856,0.03534148576363805,0.353273421130325,1.0010804978946908,6.768785958466651
31,23,female,345,105,105,same,catch,anti,5,0,1,0.10068418704668147,0,j,change,1.5152188561469302,0,0.5006374264066835,0.03531775265400938,0.3533093415117037,1.0010288623470842,6.876081419958609
31,23,female,346,165,165,same,valid,clock,1,1,2,0.8590163524331729,1,j,change,3.8486574917887992,0.8531806477427313,0.49963935295818374,0.03534148576363805,0.35331062438217486,1.0010218065581284,8.47645595407539
31,23,female,347,105,55,change,valid,anti,4,2,2,0.5530580912745791,1,j,change,1.0368421238308656,0.8683613805335064,0.4998176719936964,0.03528311514401139,0.3533176801720401,1.0010942887556666,5.262154318447756
31,23,female,348,15,325,change,valid,anti,5,0,2,0.16544286141743214,1,j,change,0.9434513777550819,0.5177106655215825,0.4989446784438769,0.03534212719841889,0.3533077379242968,1.0010301452175554,4.73103203424489
31,23,female,349,165,115,change,valid,anti,5,1,2,0.18041492530301184,1,j,change,1.6773618532606633,0.8516350130095687,0.4997932974492869,0.03531775265400938,0.3532881741439269,1.001089477989808,5.544591785714147
31,23,female,350,165,215,change,valid,clock,1,2,1,0.17991332283781958,0,j,change,0.7634873815231913,0.867234555114037,0.49989432352140284,0.035310055429363274,0.353332433185642,1.0010522747379582,4.5907494755456355
31,23,female,351,15,325,change,valid,anti,5,1,1,0.029941882747152704,0,j,change,1.0222376024166806,0.8500716925270879,0.5084687109419974,0.0353074896884209,0.3533247359619054,1.0010400874662082,4.728527549809769
31,23,female,352,15,15,same,valid,anti,5,0,2,0.3018479432539607,1,f,same,1.444548071893223,0.5160651034884609,0.5001845730294008,0.035342768634109234,0.35329939926396037,1.0010339938298785,5.3327436404088076
31,23,female,353,135,135,same,valid,anti,3,2,2,0.29184090991475387,1,f,same,1.107434973686395,0.8715079054945167,0.49946327894758724,0.03532769490266219,0.3533125486883364,1.0010355974191043,4.9671248332670075
31,23,female,354,75,25,change,valid,anti,1,0,2,0.07037283752106305,1,j,change,1.5821584108052775,0.5144689789045447,0.49979393888497725,0.035361049542188994,0.3532888155796172,1.0010718385165092,5.308634970992898
31,23,female,355,165,215,change,valid,clock,3,0,1,0.11638909085195337,0,j,change,0.7836778429291371,0.512841745544063,0.5002346049896005,0.03533603356299864,0.3533093415117037,1.0010259758882967,4.57863532698957
31,23,female,356,165,115,change,valid,anti,1,1,2,0.9315344705764801,1,j,change,1.425172874852251,0.8526964485320301,0.5004844440691159,0.035334109255927615,0.35328624983776535,1.0010420117723697,6.02774849447087
31,23,female,357,135,185,change,valid,clock,1,1,2,0.5610773163753038,1,j,change,1.087680688337059,0.8511973721254886,0.4999004171568231,0.03534693796427746,0.35326379960042686,1.0010676691872504,5.332363589946908
31,23,female,358,45,45,same,valid,anti,5,0,2,0.4277649152172671,1,f,same,1.519794856137196,0.514312250832546,0.4997612256802313,0.0353309020792949,0.35331319012402673,1.001031428088936,5.626337913930001
31,23,female,359,105,55,change,catch,anti,1,2,1,0.3960879497708447,0,j,change,0.7952663351943556,0,0.49990105859251344,0.03531230045336997,0.35329747495779884,1.0010455396668476,6.428120270416002
31,23,female,360,75,25,change,valid,anti,2,0,1,0.9857091404855964,0,j,change,1.6484962990780332,0.5127121087120485,0.4999440347628479,0.03533924073963135,0.35331286940618156,1.0010375217252658,6.3570245352239
31,23,female,361,135,85,change,valid,anti,2,2,2,0.402626421300738,1,j,change,1.1597914950161794,0.8703705314680013,0.5002474336970408,0.03532801561959786,0.35328528768513934,1.0010532368905842,5.226765687184525
31,23,female,362,105,55,change,valid,anti,1,1,2,1.6511624252279944,1,j,change,2.209395617136579,0.8496772604623208,0.4995707193729686,0.03535559734154958,0.35327726974355755,1.0010596512447592,7.511277556464847
31,23,female,363,45,45,same,valid,anti,2,0,2,0.32882447024621797,1,f,same,3.513913535152824,0.5141606846800828,0.4996990064491911,0.03535239016491687,0.35328496696729417,1.0010782528715936,7.463722499661344
31,23,female,364,105,105,same,valid,clock,1,0,2,0.3539761135880326,1,f,same,1.4147829045923572,0.5125864661505047,0.5000210070083995,0.03535014514091017,0.35327726974355755,1.0010465018194736,5.379450398924746
31,23,female,365,105,155,change,valid,clock,2,2,2,0.2202855862733486,1,j,change,1.2930734279934768,0.8692317710946504,0.50031510512963,0.03533859930394101,0.3532888155796172,1.0010445775142216,5.156700097209978
31,23,female,366,75,75,same,valid,anti,1,0,2,0.3007138855045923,1,f,same,1.5255446828696222,0.5109927584099303,0.4995085001410189,0.03532801562050736,0.35328175979157095,1.0010493882791707,5.414617414265194
31,23,female,367,45,355,change,valid,anti,3,2,2,0.2450100336527612,1,j,change,1.2679022208740207,0.8681393766803742,0.5000607760021012,0.03533346782114677,0.35331286940709106,1.001036880288666,5.132821703094123
31,23,female,368,105,55,change,valid,anti,5,1,2,0.37169159658697026,1,j,change,1.4651060757723826,0.8482083824905964,0.49931639024543983,0.035339561456567026,0.35330870007692283,1.0009996770377256,5.449355309337079
31,23,female,369,75,25,change,valid,anti,4,1,1,0.3948409993945461,0,j,change,0.6802098263415246,0.8468111342991937,0.5003321031672385,0.035305244664414204,0.35334429973954684,1.0010378424422015,4.743671839094532
31,23,female,370,135,85,change,valid,anti,2,0,2,0.5150440650068049,1,j,change,0.978439753343082,0.5093633340922363,0.500432167085819,0.03530556538134988,0.3533321124687063,1.0010214858402833,5.155706513808582
31,23,female,371,105,105,same,valid,clock,3,2,2,0.611579127308687,1,f,same,2.0274877509891667,0.867090437316544,0.5007233787482619,0.035372274661312986,0.353297795675644,1.0010654241632437,6.2988043323830425
31,23,female,372,45,45,same,catch,anti,5,0,1,0.6014598427773308,0,j,change,1.4379929230435664,0,0.5002256248935737,0.03528087012000469,0.3533638635190073,1.0010522747379582,7.275665192541055
31,23,female,373,45,45,same,valid,anti,4,2,2,1.861798578386697,1,f,same,1.6538336828625688,0.8660762782365818,0.5007621855884281,0.03532320485464879,0.35327726974264806,1.0010833843543878,7.2290844760773325
31,23,female,374,165,215,change,catch,clock,4,1,1,0.7598501222100822,0,j,change,0.3643898169566455,0,0.5003786072320509,0.03532288413771312,0.3532788733318739,1.0010740835405159,6.274669043398717
31,23,female,375,165,115,change,valid,anti,3,1,1,0.7337141962798341,0,j,change,0.6407070285604277,0.8493116224350983,0.5001820072884584,0.03531358332475065,0.35330645505291614,1.0010606133982947,5.014370397499988
31,23,female,376,75,75,same,catch,clock,1,0,1,0.6656280758834328,0,j,change,0.6317477799120752,0,0.5000768118870837,0.03532480844296515,0.35330196500581224,1.0010404081840534,6.48634175612824
31,23,female,377,165,165,same,valid,clock,4,2,1,0.4437206202546804,0,j,change,1.31200090314087,0.8650890055862426,0.5001656506865402,0.03539312131124461,0.353226596348577,1.0010567647859716,5.415347367726099
31,23,female,378,45,95,change,catch,clock,2,0,1,0.14479794304497773,0,j,change,1.110288719685741,0,0.49924711522453435,0.03533122279714007,0.35331190725355555,1.0010606133982947,6.403082161136808
31,23,female,379,105,155,change,valid,clock,4,2,1,0.20800209877688758,0,j,change,1.286123796386164,0.8689624566920022,0.5003173501527272,0.03532480844296515,0.35333724395150057,1.0010429739249957,5.16756825754419
31,23,female,380,105,105,same,valid,clock,3,0,1,0.2457727003175023,0,j,change,0.6062856818471118,0.5078036730888909,0.5000373636103177,0.03529850959239411,0.35333756466843624,1.0010298244997102,4.496176564068264
31,23,female,381,75,75,same,valid,anti,5,1,2,1.5953264376894367,1,f,same,2.2463163168013125,0.8518139299688414,0.49974486907831306,0.035340202892257366,0.35329266419284977,1.001051954020113,7.452185642944642
31,23,female,382,45,45,same,catch,anti,2,0,1,0.7230612375151395,0,j,change,0.43734988407686615,0,0.5000902820302144,0.03530428251087869,0.35328400481466815,1.001077290718058,6.29877001559089
31,23,female,383,45,45,same,catch,anti,1,2,2,0.5106816629977402,1,f,same,1.4639800359655055,0,0.4999356961034209,0.03535559734154958,0.35331062438217486,1.0010558026333456,7.111026691088227
31,23,female,384,105,105,same,valid,clock,3,1,1,0.14025273195329646,0,j,change,1.101094384971475,0.8503927996769816,0.5002067025507131,0.03532288413771312,0.35329843711042486,1.0010384838778918,4.89697746028105
31,23,female,385,15,65,change,valid,clock,3,1,2,0.2984444871362939,1,j,change,1.832173564716868,0.8527759300500399,0.499588358845358,0.0353331471033016,0.3532747040007962,1.0010416910545246,5.7682253439452325
31,23,female,386,135,185,change,valid,clock,2,0,1,0.9482833104602832,0,j,change,1.451951198313509,0.5092889761544858,0.4992051012077354,0.03532673274912668,0.3533138315597171,1.0010529161736486,6.050151266497778
31,23,female,387,135,85,change,valid,anti,5,2,2,0.5906814833970202,1,j,change,1.3237837503256742,0.8727605852205673,0.49981831342938676,0.03532512916081032,0.35330292715843825,1.0010663863167792,5.532494955912625
31,23,female,388,105,105,same,valid,anti,1,0,1,0.8908289814617092,0,j,change,0.4111283265247039,0.5107968405628924,0.5002480751327312,0.03534661724643229,0.3532981163934892,1.0010221272750641,5.002762341457128
31,23,female,389,135,135,same,valid,anti,4,0,1,1.5694034683056088,0,j,change,1.5748059577799722,0.5122315291163468,0.5003603263239711,0.03528087012000469,0.35334846907062456,1.0010609341161398,6.769738810721719
31,23,female,390,75,125,change,valid,clock,4,1,2,0.353546031166843,1,j,change,1.3271041405614596,0.8514091302787739,0.4999652021306247,0.035316469783538196,0.35331415227665275,1.0010349559825045,5.3086102757306435
31,23,female,391,165,165,same,valid,anti,1,1,2,0.39867357578168594,1,f,same,1.5841882330605586,0.8500206385581226,0.5003898323511748,0.03532737418481702,0.3532926641919403,1.0010667070346244,5.580662262785154
31,23,female,392,15,15,same,valid,clock,1,0,1,0.28391982442644803,0,j,change,0.7632391460319923,0.5136008549398703,0.49970702439077286,0.035347579399058304,0.35330517218244495,1.0010522747379582,4.672731651981849
31,23,female,393,75,25,change,valid,anti,1,1,1,1.7728982006774459,0,j,change,1.7244967698916298,0.8486553226315219,0.5001021485832098,0.035302358204717166,0.3533067757707613,1.0010554819155004,7.216778217623869
31,23,female,394,165,165,same,catch,anti,5,2,1,0.8268409916981909,0,j,change,0.547960604322725,0,0.5003641749353847,0.035333467820237274,0.35329619208641816,1.0010384838778918,6.533763394372727
31,23,female,395,135,85,change,catch,anti,1,0,1,0.7484563055822946,0,j,change,0.7627073961029964,0,0.5003795693846769,0.03531262117121514,0.353308058642142,1.001062216986611,6.710632785622693
31,23,female,396,165,215,change,catch,clock,5,0,1,0.2851382309281689,0,j,change,0.907977114869027,0,0.5006935520023035,0.03535944595387264,0.3532631581647365,1.0010615755509207,6.358143519240912
31,23,female,397,45,95,change,valid,clock,5,2,1,0.3464565666463386,0,j,change,0.8388964489176942,0.871753274802185,0.4993760437355377,0.035404025712523435,0.3532512916099222,1.001039766748363,4.837272013821348
31,23,female,398,135,135,same,valid,clock,4,1,2,0.9251460949253669,1,f,same,2.0658731683406586,0.8510250584993171,0.4996396736760289,0.0353074896884209,0.35331511443018826,1.001055481914591,6.698288682482598
31,23,female,399,15,15,same,valid,anti,1,2,1,0.2692623845941853,0,j,change,0.6974384598879624,0.8752212637955552,0.49958034090377623,0.03533988217532169,0.35329170203931426,1.0010580476564428,4.578134045241313
31,23,female,400,135,135,same,valid,anti,2,1,2,0.4026206483822534,1,f,same,2.2189671158530473,0.8496694799652003,0.5002156826458304,0.03530556538134988,0.3533131901249362,1.0010586890921331,6.2155787334668275
31,23,female,401,15,15,same,valid,clock,5,1,2,0.2959922796835599,1,j,change,1.8386780401715441,0.8483597365152007,0.5044802657594119,0.035328657055288204,0.3532958713694825,1.0010686313398764,5.808531860255243
31,23,female,402,105,105,same,catch,anti,4,0,1,0.22026409818863613,0,j,change,0.3867768738173254,0,0.4992111948431557,0.0353475793999678,0.35332281165483437,1.001058368374288,5.80327209015195
31,23,female,403,105,105,same,valid,clock,4,2,1,0.48227184865208983,0,j,change,0.697255971523191,0.8788200518507263,0.4994305657419318,0.03536842604898993,0.3532981163925797,1.0010631791401465,4.884455679542043
31,23,female,404,15,65,change,valid,clock,3,2,2,0.34178210632671835,1,j,change,1.3919038667972927,0.8824028960942847,0.4995495520051918,0.03533827858609584,0.3532945884981018,1.0010554819155004,5.34419262047868
31,23,female,405,15,325,change,catch,anti,2,0,1,0.14807054634547967,0,j,change,0.7124887788895649,0,0.499905869358372,0.03530716897057573,0.35333211246779683,1.0010516333031774,5.979828460936915
31,23,female,406,105,155,change,valid,clock,5,2,2,0.2748374201855768,1,j,change,1.0718025969799783,0.881451429756247,0.5005280616751406,0.03535014514091017,0.35327310041247983,1.0010574062207525,4.956772707694654
31,23,female,407,105,55,change,valid,anti,1,0,2,0.17516830462591315,1,j,change,0.9397156581107993,0.5149273536100787,0.49899535183794796,0.03533763715131499,0.3532926641919403,1.001032069523717,4.719189212853053
31,23,female,408,135,185,change,valid,clock,2,2,2,0.18875518881122844,1,j,change,0.9166736957295143,0.880493720738176,0.4999950288765831,0.03532641203128151,0.35328304266113264,1.001024693016916,4.720648478339172
31,23,female,409,165,165,same,valid,clock,5,0,1,0.4079310918805277,0,j,change,0.38867937114991946,0.5134713571331545,0.4996217134857943,0.03530588609919505,0.3533170387372593,1.0010525954558034,4.4137296677008635
31,23,female,410,105,55,change,catch,anti,4,2,1,0.23930639026821154,0,j,change,1.0448360122345548,0,0.4997455105130939,0.03535816308340145,0.3532824012263518,1.0010699142112571,6.415614204843223
31,23,female,411,45,45,same,catch,clock,3,2,2,0.4867570855349186,1,f,same,2.4166517265675793,0,0.5003192744597982,0.03534341006889008,0.35329619208641816,1.001061254833985,8.053861970161961
31,23,female,412,75,25,change,catch,anti,2,2,1,0.8098387848385755,0,j,change,1.0106853512515954,0,0.499362573592407,0.03529434026222589,0.35333307462042285,1.001054519761965,6.980448408229677
31,23,female,413,165,215,change,valid,clock,2,2,2,0.32211794264731,1,j,change,2.354900742686368,0.8795289024191764,0.5000999035601126,0.03531967696017091,0.35327855261402874,1.0010721592352638,6.3224954273673575
31,23,female,414,75,75,same,valid,clock,5,1,2,0.03624943754130072,1,j,change,2.058711863059216,0.8471132734991422,0.49887059265711287,0.03528343586185656,0.3533391682576621,1.0010574062207525,5.708061591908518
31,23,female,415,75,75,same,valid,anti,1,2,1,0.2675170389293271,0,j,change,1.2054886342466489,0.8785980464398455,0.5003000313981829,0.03535014514091017,0.35327085538938263,1.0010695934943215,5.132692453865275
31,23,female,416,15,65,change,valid,clock,5,1,2,0.4097816329467605,1,j,change,1.127454171847603,0.8459134549545007,0.5000707182498445,0.035352710881852545,0.3533067757707613,1.0010333523950976,5.143804680361427
31,23,female,417,75,125,change,valid,clock,1,0,1,0.3334315798520038,0,j,change,0.8394868901832524,0.5147790292661725,0.5006399921485354,0.035297226721922925,0.3533266602671574,1.0010577269385976,4.79180194271521
31,23,female,418,105,55,change,valid,anti,3,0,1,0.0420374296782029,0,j,change,0.8564387443639134,0.5160629724111424,0.49962203420273,0.03535335231845238,0.353321208066518,1.0010516333031774,4.601648424778432
31,23,female,419,45,95,change,valid,clock,3,1,2,1.24670598879311,1,j,change,2.7375615256796664,0.8447452311715149,0.5004802747389476,0.035324808443874645,0.3532859291208297,1.0010339938298785,7.617793673972301
31,23,female,420,45,45,same,valid,clock,5,2,2,0.39078969354432047,1,f,same,1.207703189890708,0.88201165209736,0.49990330361652013,0.03533635427993431,0.35325610237578076,1.0010689520586311,5.261500375078867
31,23,female,421,75,25,change,valid,anti,5,2,2,0.3330261926930689,1,j,change,1.1814081879865626,0.8811053010494225,0.5004347328276708,0.03531967696017091,0.35328400481466815,1.001076328565432,5.203816091497174
31,23,female,422,15,15,same,valid,clock,4,2,1,0.32373532195379084,0,j,change,0.6702589185970282,0.8801900406320664,0.4997734129519813,0.035330581362359226,0.35333082959732565,1.0010506711496419,4.649758323185779
31,23,female,423,75,75,same,catch,anti,3,0,1,0.1467915242019444,0,j,change,0.670332362948102,0,0.49951234875334194,0.035323846290339134,0.35330645505291614,1.001050029714861,6.026643942748706
31,23,female,424,15,325,change,valid,anti,1,1,1,0.26853307256806147,0,j,change,1.7612407541100765,0.8435374286277699,0.5001662921222305,0.035305565382259374,0.35332505667884107,1.0010416910545246,5.7335547995880916
31,23,female,425,15,65,change,valid,clock,1,0,1,0.4898542562605144,0,j,change,0.5517800312827603,0.5174480679217828,0.49916244575433666,0.03534565509380627,0.353318321606821,1.0010461811016285,4.672201826359014
31,23,female,426,165,215,change,catch,clock,3,1,1,0.08413515428310347,0,j,change,0.7224409695045324,0,0.5001829694419939,0.03533218495067558,0.3532670067770596,1.0010532368914937,5.956810873100039
31,23,female,427,45,45,same,valid,clock,3,2,2,0.4418816250254167,1,f,same,1.7503796495648203,0.8833785358638191,0.5004260734503987,0.03536938820252544,0.3532702139536923,1.0010651034453986,5.803986649164472
31,23,female,428,165,215,change,valid,clock,3,2,2,0.4713549392281493,1,j,change,1.346663429556429,0.8825181070871171,0.4996922713780805,0.0353876691106052,0.35325642309271643,1.0010676691872504,5.462241104653913
31,23,female,429,75,125,change,valid,clock,1,2,2,0.3475556661678638,1,j,change,1.1071280468586338,0.8816570845022516,0.4997018929079786,0.035361370260034164,0.3533026064405931,1.001080177177755,5.108802193196425
31,23,female,430,15,15,same,valid,anti,2,0,2,0.3513208918393502,1,f,same,1.5061637129101655,0.5188500256867618,0.4999324889258787,0.03530845184195641,0.3533022857227479,1.0010859500953302,5.485838870790758
31,23,female,431,75,125,change,valid,clock,3,1,1,0.1843677708229734,0,j,change,0.8896416845755084,0.8455086868625674,0.49961337482545787,0.03532320485555829,0.35331960447820165,1.0010638205749274,4.73142491341423
31,23,female,432,45,95,change,catch,clock,2,0,1,0.6042202599282973,0,j,change,0.4704040112810617,0,0.5002682803469725,0.03530716897057573,0.353332433185642,1.001059330526914,6.262874650377853
31,23,female,433,45,355,change,catch,anti,4,2,1,0.17152463095862913,0,j,change,0.9366540870496465,0,0.5007294723836822,0.03532737418481702,0.3532881741448364,1.0010365595717303,6.264007104538905
31,23,female,434,165,165,same,valid,anti,5,2,1,0.06535905788496166,0,j,change,0.9032478118233485,0.8807901885797376,0.49943537650869985,0.03535110729353619,0.35331190725355555,1.0010647827275534,4.590410156231883
31,23,female,435,135,185,change,valid,clock,1,2,1,0.22339975503564347,0,j,change,4.702707851522064,0.8838007786889832,0.49912331819632527,0.03535463518892357,0.3532702139536923,1.0010788943063744,8.58224340099332
31,23,female,436,15,325,change,valid,anti,5,2,2,0.32610510495942435,1,j,change,0.9407583113188593,0.886620673206505,0.4994985578932756,0.03532833633835253,0.35327726974355755,1.0010567647859716,4.9201538033748875
31,23,female,437,15,15,same,valid,anti,4,0,1,0.20739979095651506,0,j,change,2.975969264982268,0.5174082832865885,0.4998737975893164,0.03532031839586125,0.3533122279714007,1.0010368802895755,6.863834494278308
31,23,female,438,75,125,change,valid,clock,2,2,2,0.2841850579552556,1,j,change,0.9985564496810184,0.8858549047993187,0.4996829705642085,0.03537868901457841,0.3532756661552412,1.0010798564590004,4.967732914004955
31,23,female,439,165,165,same,valid,anti,2,0,1,0.17903038703843777,0,j,change,0.6062285940988659,0.5187873092689483,0.4996454465945135,0.035273814331048925,0.35334429974045634,1.0010529161736486,4.448779621085123
31,23,female,440,45,45,same,valid,clock,1,0,2,0.4843994898019446,1,f,same,1.7394091802871117,0.520203283874245,0.4996409565465001,0.03534052361010254,0.3532904191679336,1.0010420117714602,5.8741846955445
31,23,female,441,15,15,same,valid,anti,3,0,2,0.3525085094415772,1,f,same,1.2593320027826849,0.5187264556903923,0.49970028931966226,0.035324808443874645,0.3533138315597171,1.001050991867487,5.308566978842464
31,23,female,442,165,215,change,valid,clock,4,1,2,0.3827807314091842,1,f,same,1.1086937906165986,0.8476080158238348,0.4997868830960215,0.035339240738721855,0.35327951476756425,1.001050991867487,5.167251709184711
31,23,female,443,165,165,same,valid,clock,5,2,2,0.3728602918463366,1,f,same,1.3388908363576775,0.8851060316402746,0.5003616091953518,0.03529562313360657,0.35334301686907565,1.0010452189490024,5.368828229058636
31,23,female,444,105,55,change,valid,anti,3,2,2,0.32578534942331316,1,j,change,1.1255747661889473,0.8843698406475251,0.49961016764882515,0.035302999640407506,0.3532933056276306,1.0010840257891687,5.167795325667612
31,23,female,445,45,45,same,catch,clock,2,1,1,0.19327217674617714,0,j,change,0.7828372418662184,0,0.49958900028104836,0.03529594385145174,0.3533266602671574,1.0010654241641532,6.1097316330588
31,23,female,446,75,75,same,valid,anti,4,0,2,1.1243881107384368,1,j,change,1.7675377252198814,0.5173321203881562,0.4998256899352782,0.035296585286232585,0.35332986744469963,1.001042332490215,6.59278988148526
31,23,female,447,135,135,same,valid,clock,2,0,2,0.34213842367898906,1,f,same,1.314425208153807,0.5159964374708393,0.4993757230176925,0.03532577059650066,0.3533000406996507,1.0010804978956003,5.343278895782532
31,23,female,448,105,155,change,valid,clock,1,2,2,0.23921274070289655,1,f,same,1.1023201679790873,0.8835815690565645,0.5004055475183122,0.03529273667390953,0.35332537739577674,1.001058368374288,4.991580519223135
31,23,female,449,75,25,change,catch,anti,1,0,2,0.25813636723705713,1,f,same,1.097402924367998,0,0.4999629571075275,0.03532769490266219,0.35320735328696173,1.0011433585614213,6.545840660396607
31,23,female,450,45,355,change,catch,anti,4,0,1,0.8402152400558407,0,j,change,0.9633268943907751,0,0.5001512183907835,0.03532737418481702,0.3533103036643297,1.0010599719626043,7.029048042548311
31,23,female,451,165,165,same,catch,clock,3,0,1,0.20671986945490062,0,j,change,1.7388344541886909,0,0.5007474325748262,0.03530107533424598,0.3532820805085066,1.001122191194554,7.123648856465479
31,23,female,452,165,165,same,valid,clock,3,2,2,0.2937023553822655,1,f,same,1.7240868926846815,0.8827977517989649,0.49954762769993977,0.03533250566761126,0.35332088734867284,1.0010416910545246,5.614395028618674
31,23,female,453,45,355,change,valid,anti,5,2,2,0.35642767960416677,1,j,change,1.0067405236741251,0.8820138331467415,0.5000655867670503,0.035372595379158156,0.35325610237578076,1.001028541629239,4.979336800719466
31,23,female,454,15,15,same,catch,clock,1,1,1,0.06563102648578933,0,j,change,0.8189545437198831,0,0.49952549817862746,0.03531935624232574,0.3532942677811661,1.0010634998570822,6.015228638037115
31,23,female,455,15,325,change,valid,anti,2,1,2,0.20157876489702176,1,j,change,1.0331115356702867,0.8464540424584968,0.5002381328840784,0.035316790501383366,0.35329971998180554,1.0010080156971526,4.873877447997984
31,23,female,456,165,165,same,valid,anti,1,0,2,0.3655504942744301,1,f,same,1.1909886667990577,0.5146968191632455,0.4992932985715015,0.03531807337185455,0.35329202275715943,1.0010484261265447,5.119346749382203
31,23,female,457,75,75,same,valid,clock,1,1,2,0.30397879158044816,1,f,same,1.2659429565101163,0.8453354775834354,0.49997771012021985,0.03533763715131499,0.3532737418481702,1.0010532368905842,5.132088542456586
31,23,female,458,135,135,same,valid,clock,4,2,2,0.36125319795610267,1,f,same,1.5818351273746885,0.8812253858130448,0.5002766190063994,0.03534597581074195,0.35324038720864337,1.0010984580858349,5.520635136483179
31,23,female,459,15,65,change,catch,clock,2,1,1,0.20338504692244896,0,j,change,0.7382286184738405,0,0.5006874583668832,0.03532288413680362,0.35328753270914603,1.001041691055434,6.074757048332685
31,23,female,460,15,325,change,valid,anti,1,2,1,0.2667255076721631,0,j,change,1.0197716041047897,0.8804280585016047,0.5003407625445107,0.03531294188906031,0.3532878534269912,1.0010214858402833,4.897516907434692
31,23,female,461,135,185,change,catch,clock,4,1,1,0.21662908389862423,0,j,change,0.7293043280533311,0,0.4996278071212146,0.03537067107299663,0.3533058136181353,1.0010602926804495,6.121694723584369
31,23,female,462,135,85,change,valid,anti,4,2,2,0.7608895682406001,1,j,change,1.0645925426078975,0.8832074447163867,0.49936064928624546,0.03537836829764274,0.35330196500490274,1.0010416910545246,5.4734591679880396
31,23,female,463,135,185,change,valid,clock,2,1,2,0.42544259842907195,1,j,change,1.198795256072117,0.8442393960756152,0.4999902181107245,0.03533154351498524,0.3533144729954074,1.0010477846908543,5.296776113716078
31,23,female,464,105,155,change,catch,clock,4,2,1,0.37076536390122783,0,j,change,0.8588800474153686,0,0.5000934892068472,0.0353074896884209,0.35330837935907766,1.0010497089970158,6.404303454097317
31,23,female,465,75,75,same,catch,anti,5,1,1,0.21484621426498052,0,j,change,0.6425229321166626,0,0.5001505769550931,0.03534950370521983,0.35328047692019027,1.0010788943063744,6.062781129099676
31,23,female,466,165,115,change,valid,anti,4,1,1,0.1660859003841324,0,j,change,0.7294159378088807,0.8430992626051119,0.5005373624881031,0.035329619208823715,0.35330292715843825,1.0010317488058718,4.566994557741964
31,23,female,467,75,125,change,valid,clock,5,0,2,0.2854281597192312,1,j,change,1.1522068423837482,0.5133724139586829,0.5000851505465107,0.035353673035388056,0.35329394706241146,1.0010378424422015,5.097165913995923
31,23,female,468,15,15,same,catch,clock,5,1,1,0.17815611061814707,0,j,change,0.7663029621162423,0,0.49941549201139424,0.03530107533424598,0.35331190725355555,1.0010282209113939,6.109085707632403
31,23,female,469,15,15,same,valid,anti,5,2,2,0.31575458297538717,1,f,same,1.2919499539284516,0.8824570877987772,0.5002429436499369,0.035343089351954404,0.3532714968241635,1.0010663863158697,5.250707262684045
31,23,female,470,165,165,same,catch,clock,4,2,1,0.08639268609749706,0,j,change,2.430456378064264,0,0.4992166470447046,0.0353543144701689,0.3532833633798873,1.0010391253126727,7.663305759095238
31,23,female,471,135,85,change,valid,anti,2,1,1,0.11481917776291084,0,j,change,0.766176920064936,0.8449698076810592,0.5001948359968083,0.035329298490978545,0.35326379960042686,1.0010914022959696,4.508421244724559
31,23,female,472,165,215,change,valid,clock,2,0,2,0.19257365361863776,1,j,change,1.4642032554766047,0.5120413345846937,0.5000546823657714,0.035353673035388056,0.3533333953391775,1.0010166750744247,5.297767452093467
31,23,female,473,45,45,same,valid,anti,1,1,2,0.38500779504374805,1,f,same,1.1791878594240188,0.8467975186914372,0.4990995850876061,0.03534501365811593,0.3532981163925797,1.0010445775142216,5.155254301866989
31,23,female,474,15,65,change,catch,clock,5,2,1,0.2924464249117591,0,j,change,0.7431586907914607,0,0.4999138872999538,0.03531550763091218,0.35333082959732565,1.0010487468434803,6.16879756844628
31,23,female,475,15,65,change,valid,clock,2,1,1,0.2871818440435163,0,j,change,1.0245682578652122,0.8457238973756107,0.5002557723573773,0.03533892002178618,0.3533167180194141,1.0010346352655688,4.9560084374415965
31,23,female,476,45,355,change,catch,anti,5,2,1,0.18753870661566907,0,j,change,0.974141494871219,0,0.49940073899779236,0.035326091313436336,0.35334846906971507,1.0010224479929093,6.298151671885535
31,23,female,477,45,95,change,valid,clock,3,0,1,0.1044369047276632,0,j,change,1.0060974847074249,0.5106821580283232,0.499939544715744,0.03534629652858712,0.3533093415126132,1.0010115435916305,4.755044488354542
31,23,female,478,15,15,same,catch,anti,2,0,1,0.13693490745845338,0,j,change,0.6764243954557969,0,0.4999093972528499,0.0352863223206441,0.35332986744379014,1.001040728900989,5.956140573128323
31,23,female,479,45,355,change,valid,anti,4,2,1,0.12844358591883065,0,j,change,0.8037201327642833,0.8817043001210207,0.5002769397251541,0.03531390404168633,0.3532904191688431,1.001036880288666,4.56736947672016
31,23,female,480,165,115,change,valid,anti,5,2,1,1.626332461729362,0,j,change,1.4170272869814653,0.8843078503511885,0.4998811740961173,0.035310055429363274,0.35335744916574185,1.0010048085205199,6.698653338494296
