subject,age,gender,ntrial,memory_ori,test_ori,type,trial_type,which_change,trial,quest,pas,pas_rt,vis,test_key,test,test_rt,contrast,fix_dur,target_dur,mask_dur,retention_dur,trial_dur
32,22,female,1,75,125,change,valid,clock,1,0,1,0.42282682495533663,0,j,change,0.5917311923913076,0.2,0.5037169576589804,0.03533603356299864,0.3533282638563833,1.0010282209113939,4.876870064756076
32,22,female,2,165,165,same,valid,anti,5,0,1,0.5147429110966186,0,j,change,0.4805691584406304,0.3150270229513009,0.49989207849830564,0.03532192198326811,0.35334429974136583,1.000991017659544,4.849409895488861
32,22,female,3,105,105,same,valid,clock,2,0,1,0.571822321116997,0,f,same,1.1769226303840696,0.3996559747928428,0.49935872497917444,0.03534565509289678,0.3533125486901554,1.0010195615341217,5.54380314091577
32,22,female,4,75,75,same,valid,anti,3,2,1,1.4996842534346797,0,j,change,1.446455059272921,0.2,0.500292654891382,0.03533603356299864,0.3532724589767895,1.0010763285645226,6.828853815915863
32,22,female,5,105,155,change,valid,clock,4,2,1,0.7058111158821703,0,f,same,1.1971323348534497,0.3670372117912738,0.499872194001,0.035331222798049566,0.3533122279695817,1.0010618962696753,5.744835082154168
32,22,female,6,15,15,same,valid,clock,5,1,1,1.7315948937884968,0,j,change,0.9333086808346707,0.2,0.49993120605540753,0.0352763800710818,0.35339112452311383,1.001038804595737,6.639821847738858
32,22,female,7,45,355,change,valid,anti,3,2,1,0.8461876448636758,0,f,same,1.2893168616992625,0.4895303947352734,0.49976411213901883,0.03534822083565814,0.35327855261493823,1.0010336731120333,5.991508999177313
32,22,female,8,75,75,same,catch,anti,4,0,1,1.0442776427389617,0,f,same,1.0731005414672836,0,0.5004065096709382,0.035290812367748,0.35329073988577875,1.0010663863158697,7.428725143978227
32,22,female,9,105,105,same,valid,clock,4,1,1,1.0365663066186244,0,f,same,2.9525995291223808,0.33948538693435915,0.5003782865132962,0.035312621172124636,0.35333211246688734,1.0010384838788013,7.841520240333921
32,22,female,10,15,15,same,valid,anti,1,2,1,0.6685527004920004,0,j,change,0.6474404964465066,0.5890718826496524,0.49997899299160053,0.035338278585186345,0.353283684096823,1.0010240515803162,5.226642531592006
32,22,female,11,75,75,same,valid,clock,2,0,1,0.6071885021428898,0,f,same,0.47547840655897744,0.46690619962159796,0.5000607760030107,0.03533282638636592,0.3532679689305951,1.0010974959332088,4.837772654134824
32,22,female,12,105,55,change,valid,anti,3,0,1,0.41245160770995426,0,f,same,0.9036881572101265,0.5261480498876727,0.5001473697775509,0.03532480844296515,0.3533045307467546,1.0010471432560735,5.108578332248726
32,22,female,13,105,155,change,valid,clock,3,1,1,0.43919978370831814,0,f,same,0.5462880615723407,0.43994886294822894,0.5004170933552814,0.035284398014482576,0.3533433375869208,1.001083705072233,4.8266960273012955
32,22,female,14,135,135,same,valid,clock,5,2,1,0.5086104681613506,0,j,change,0.29727996120709577,0.6758845662617424,0.4993410855076945,0.03533988217532169,0.3532942677811661,1.0010782528715936,4.696052318035072
32,22,female,15,15,15,same,valid,anti,3,0,1,0.5325514022260904,0,j,change,0.8007105179676728,0.5793366454280041,0.4996954785547132,0.035338278585186345,0.35330966222863935,1.0010448982302478,5.179469128837809
32,22,female,16,15,15,same,valid,clock,3,2,1,0.3826562929461943,0,j,change,0.5321758418103855,0.7550828364566777,0.4995671914784907,0.03535912523511797,0.3533026064396836,1.0010615755527397,4.790544408655478
32,22,female,17,165,165,same,catch,clock,2,1,1,0.47574652654839156,0,f,same,1.7637122046235163,0,0.4998782876373298,0.03537163322653214,0.35328272194419696,1.001062216986611,7.593744337327735
32,22,female,18,165,115,change,valid,anti,5,0,1,0.5335408162973181,0,f,same,0.8848492001452541,0.6269063766957922,0.5003141429770039,0.035289208781250636,0.3533256981154409,1.0010400874671177,5.226986661671617
32,22,female,19,45,45,same,valid,clock,5,1,1,0.37336221503028355,0,j,change,1.6080881152611255,0.5219745890327315,0.49970574152030167,0.035302358204717166,0.3533481483518699,1.001021165122438,5.85049456271372
32,22,female,20,45,45,same,catch,clock,1,0,1,0.47948737767364946,0,f,same,0.6755004077931517,0,0.5001589156145201,0.035319676959261415,0.35328753270914603,1.0009990356011258,6.474829273956857
32,22,female,21,15,15,same,catch,clock,1,2,1,0.2855237335897982,0,f,same,0.47790399444238574,0,0.5003603263230616,0.03534084432794771,0.3533093415117037,1.0010051292392745,6.086781395935759
32,22,female,22,105,105,same,valid,anti,1,0,1,0.4316173760980746,0,f,same,0.7496836921800423,0.6716318026819171,0.5001185051860375,0.035352069447981194,0.35329073988577875,1.0010772907171486,4.979829423089541
32,22,female,23,75,75,same,valid,anti,4,0,1,0.5968476016896602,0,f,same,1.1145648486344726,0.7121782405476902,0.49965795458410867,0.03537644399148121,0.35329266419284977,1.0010400874671177,5.543818214648127
32,22,female,24,105,155,change,valid,clock,3,2,1,0.4129557759169984,0,j,change,1.659847460252422,0.8277920650611539,0.5006306913346634,0.03532705346697185,0.35328047692019027,1.0010772907189676,6.004871060262303
32,22,female,25,45,45,same,valid,anti,5,1,1,0.3372676841336215,0,f,same,1.6434735393468145,0.5923157676589426,0.4996040740134049,0.0353241670090938,0.35333852682197175,1.0010484261256352,5.7796396865051065
32,22,female,26,165,165,same,valid,clock,2,0,2,1.120582795354494,1,f,same,1.2175668624222453,0.7502722747458377,0.499988293804563,0.03532480844296515,0.35330517218244495,1.0010804978956003,6.168585894773059
32,22,female,27,45,355,change,valid,anti,3,0,2,0.5529910612785898,1,j,change,0.8857231558504282,0.7141719218556044,0.5001839315937104,0.035329298490978545,0.35328496696820366,1.0010692727755668,5.285651058513395
32,22,female,28,135,85,change,catch,anti,3,1,1,0.9572063180094119,0,f,same,3.6043690729366062,0,0.49982280347649066,0.035328657055288204,0.35330068213443155,1.000973378186245,9.84262382990164
32,22,female,29,45,45,same,valid,clock,3,1,1,0.8105017083034909,0,f,same,1.1813684189946798,0.655190058817081,0.5007830322374502,0.03531326260781498,0.3532714968241635,1.0010881951202464,5.756912027460203
32,22,female,30,75,75,same,valid,clock,3,0,1,0.43014015042354004,0,f,same,0.7133960892315372,0.6866573462517978,0.5005934880846326,0.035296906005896744,0.3533446204583015,1.0010080156971526,4.885907568519542
32,22,female,31,165,215,change,catch,clock,2,0,2,1.4628677870205138,1,j,change,0.9352589651025482,0,0.49979297673053225,0.035347258681213134,0.3532936263436568,1.0010561233502813,7.699772322512217
32,22,female,32,135,135,same,valid,anti,1,2,2,3.19026705199758,1,j,change,1.1223887566629855,0.8941448639260581,0.5002073439864034,0.03534341007070907,0.35331960447729216,1.0010317488049623,8.147139182176034
32,22,female,33,15,65,change,catch,clock,1,0,2,3.0362013298890815,1,f,same,2.129454488074771,0,0.5002031746571447,0.03531518691306701,0.3533404511272238,1.0010558026333456,10.46762499250326
32,22,female,34,15,15,same,valid,clock,1,1,2,0.6365928620434715,1,f,same,2.366821498477293,0.7151214254916749,0.5002605831214169,0.035333467820237274,0.3532464808449731,1.0010804978956003,6.887897942498967
32,22,female,35,165,115,change,catch,anti,5,1,2,0.8396597570172162,1,j,change,1.2521607552516798,0,0.49966501037306443,0.035329939926668885,0.3533135108409624,1.001037842443111,7.616869686309656
32,22,female,36,15,65,change,valid,clock,1,0,3,2.3562407011922915,1,j,change,1.6054672103036864,0.7086143766745037,0.49988181553271716,0.03532352557340346,0.3532676482118404,1.0010747249762062,7.817444604839693
32,22,female,37,45,45,same,valid,clock,1,1,3,1.4064493761561607,1,f,same,1.1995171915914398,0.6844054842869989,0.49934621699139825,0.03531390404168633,0.3533346782096487,1.0010083364159073,6.463053482561008
32,22,female,38,105,105,same,valid,anti,3,1,3,1.4087781072976213,1,f,same,0.8846670324983279,0.6601246104530001,0.4989838060027978,0.03530684825273056,0.35331511443109775,1.0010683106229408,6.156177006660073
32,22,female,39,15,325,change,valid,anti,4,0,2,1.1480561140488135,1,j,change,1.148356947242064,0.6876154189478729,0.49991517017042497,0.03534565509289678,0.3532981163934892,1.001056444067217,6.133815286495519
32,22,female,40,15,65,change,valid,clock,4,0,2,1.7891111213029944,1,j,change,1.8984040125633328,0.6701258752197568,0.49932761536365433,0.035323846290339134,0.35326379959951737,1.001101344543713,7.557483353950374
32,22,female,41,75,25,change,valid,anti,3,0,2,0.5639618512723246,1,j,change,1.949213712478013,0.6549982883221037,0.5004462786655495,0.03529818887363945,0.3533292260090093,1.0010336731120333,6.428846054546739
32,22,female,42,15,15,same,valid,anti,3,2,2,0.6184267706903483,1,f,same,1.8325074318308907,0.874424695502422,0.49893762265492114,0.03530460322872386,0.3533449411752372,1.0010474639730091,6.321178239817527
32,22,female,43,75,25,change,catch,anti,1,0,2,0.880079486671093,1,j,change,1.5035440908250166,0,0.4992631511086074,0.03535944595387264,0.35329843711042486,1.0010580476573523,7.793359347813748
32,22,female,44,165,215,change,valid,clock,1,2,3,1.4378931798419217,1,j,change,1.435802421225162,0.8586656703718742,0.5002131169057975,0.03532737418572651,0.35327181754109915,1.0010987788027705,6.886974916989857
32,22,female,45,15,325,change,catch,anti,4,0,2,1.1003054194552533,1,j,change,1.0943022257488337,0,0.5000992621262412,0.03527253145875875,0.35334975194018625,1.0010497089970158,7.535345815453184
32,22,female,46,75,125,change,valid,clock,2,0,3,0.7353867390283995,1,j,change,1.349363551780698,0.641491505396034,0.4992544917313353,0.03533442997468228,0.3533032478753739,1.001057406221662,6.014346343672514
32,22,female,47,15,325,change,catch,anti,5,2,2,0.7510428937457618,1,j,change,1.0974244124536199,0,0.5000986206905509,0.03531935624414473,0.3533115865357104,1.0010503504308872,7.346218914839483
32,22,female,48,165,215,change,catch,clock,1,2,2,0.8774572988440923,1,j,change,1.7794761204841052,0,0.5007471118569811,0.035302999640407506,0.3533135108409624,1.001066065598934,8.065118840335344
32,22,female,49,15,325,change,catch,anti,4,0,2,0.35078144468570827,1,j,change,1.035519163362551,0,0.5002852783854905,0.035314866194312344,0.35329490921685647,1.0010840257909877,6.852437149756952
32,22,female,50,135,185,change,valid,clock,3,1,2,0.4977410249557579,1,j,change,1.026031051245809,0.6409183220719871,0.49951780095580034,0.03537580255579087,0.353238783620327,1.0010811393312906,5.461578181189907
32,22,female,51,75,75,same,valid,clock,5,2,2,1.3482644522609917,1,j,change,1.3469514340413298,0.8459986055428084,0.507268906067111,0.03530909327673726,0.35335969418883906,1.0010541990432102,6.482314824823334
32,22,female,52,135,185,change,valid,clock,1,2,2,0.6765401745415147,1,j,change,0.9997924956551287,0.835230374291793,0.49931414522143314,0.03535784236555628,0.35329202275534044,1.0010728006709542,5.46104707269842
32,22,female,53,135,135,same,valid,anti,4,0,3,1.0418401882998296,1,f,same,1.3451839588560688,0.6295341988967557,0.499919018782748,0.035302358204717166,0.35331415227847174,1.0010522747379582,6.204136809186821
32,22,female,54,75,75,same,catch,clock,2,0,2,0.6700302468852897,1,j,change,1.2531511314755335,0,0.49988758845029224,0.03537035035515146,0.3532769490266219,1.0010785735885293,7.228790698673038
32,22,female,55,75,25,change,valid,anti,5,2,2,0.6766527464496903,1,j,change,1.0204265096253948,0.8257259334170997,0.49974807625585527,0.035311338300743955,0.3533401304102881,1.0010439360776218,5.532583153277301
32,22,female,56,15,15,same,catch,anti,5,2,2,0.7442876170571253,1,j,change,1.2921038984186453,0,0.4994485259321664,0.03531999767801608,0.35331735945510445,1.0010490675631445,7.393202132003353
32,22,female,57,135,135,same,valid,anti,5,1,2,0.8970576397041441,1,f,same,1.2677502006899886,0.6246666109319716,0.49972947462811135,0.03531807337276405,0.35335071409463126,1.001040728900989,6.144606795302025
32,22,female,58,165,115,change,catch,anti,2,1,2,0.7922195171468047,1,j,change,1.1424554210425413,0,0.49974743481834594,0.035251364093710436,0.353380220120016,1.0010525954567129,7.275101691562668
32,22,female,59,75,125,change,catch,clock,5,2,2,0.8597652282369381,1,f,same,1.0315073057900008,0,0.5001739893450576,0.035316149065693025,0.3533770129433833,1.0010243722990708,7.217501756731508
32,22,female,60,135,135,same,valid,anti,3,1,3,1.020114130596994,1,f,same,0.9013020176025748,0.6102765819484279,0.50001555480776,0.03530203748778149,0.35337091930705355,1.0010699142112571,5.721051299755345
32,22,female,61,165,165,same,valid,anti,1,0,3,0.44871355324175966,1,f,same,0.7735332217016548,0.618781696377666,0.4995059344000765,0.03533026064542355,0.35335744916483236,1.0010391253126727,5.096965465440007
32,22,female,62,165,165,same,valid,clock,5,0,3,0.6067003698208282,1,f,same,0.75591491616251,0.6089554867539344,0.49905692963329784,0.035340202892257366,0.353282721942378,1.0010663863158697,5.167086218856639
32,22,female,63,45,45,same,valid,clock,4,1,3,0.49626796860866307,1,f,same,1.0619107012898894,0.5977459663411584,0.49979265601359657,0.035339561456567026,0.35331415227847174,1.0010577269404166,5.36779070733246
32,22,female,64,75,75,same,valid,anti,2,1,3,0.5558480144518398,1,f,same,1.7191885714164528,0.586543417728366,0.4998603274470952,0.03532961920791422,0.35323172783137124,1.001105193156036,6.109606232443184
32,22,female,65,165,115,change,valid,anti,3,0,3,0.46537419576088723,1,j,change,0.7307036193324166,0.5998694116646301,0.5002644317337399,0.03532769490266219,0.3533013235701219,1.0010599719626043,5.038797860301202
32,22,female,66,15,15,same,valid,anti,5,2,3,0.47127283550071297,1,f,same,0.6552050717018574,0.8171038325567179,0.49978976955389953,0.035325770595591166,0.3533022857227479,1.0010487468443898,5.0027706801174645
32,22,female,67,75,75,same,catch,clock,2,0,3,0.33610379963829473,1,j,change,0.686436560275979,0,0.49989175777955097,0.035349824423974496,0.3532942677811661,1.0010365595699113,6.403801851631215
32,22,female,68,75,25,change,valid,anti,2,1,3,0.6675196688156575,1,j,change,0.6960250570300559,0.5763119478472689,0.5006480100910267,0.03529241595606436,0.35332505667975056,1.001033993828969,5.262893252003778
32,22,female,69,75,75,same,valid,clock,3,2,3,0.3411724220004544,1,j,change,0.675779111463271,0.8091254035250786,0.49919612111261813,0.035436097481579054,0.3532365385981393,1.001056444069036,4.884239836535926
32,22,female,70,75,75,same,valid,clock,5,0,3,0.5354266363101488,1,f,same,0.6111458377090457,0.5913940751412115,0.49947450406580174,0.03531743193707371,0.3532981163934892,1.0010618962696753,4.955056226621309
32,22,female,71,165,215,change,valid,clock,3,2,3,0.48921763164798904,1,j,change,1.2069276945167076,0.8016297409804427,0.5002455093908793,0.03534597581165144,0.35326379959951737,1.0010695934925025,5.544781329868783
32,22,female,72,135,85,change,valid,anti,3,1,3,0.6206009159068344,1,j,change,0.741462094216331,0.5668059744768312,0.5000768118861743,0.03535463518710458,0.3532557816579356,1.0010644620106177,5.2616879949273425
32,22,female,73,45,45,same,catch,clock,5,0,2,0.7674344541246683,1,j,change,1.0452798855167202,0,0.5002493580032024,0.0353074896884209,0.3533035685941286,1.001061254833985,7.1936640937638
32,22,female,74,45,355,change,catch,anti,2,2,2,0.7099570334503369,1,f,same,0.8779364510737651,0,0.5003484597691568,0.03531165901767963,0.3533337160570227,1.0010448982320668,6.934085779794259
32,22,female,75,75,125,change,valid,clock,1,1,2,0.7215266033726948,1,j,change,0.8262970544965356,0.5578471947772898,0.5002172862350562,0.03535848379942763,0.3532888155805267,1.001041691055434,5.391355118830688
32,22,female,76,45,95,change,valid,clock,3,0,2,1.0879930673672789,1,j,change,0.6041958853857068,0.5833912734880453,0.499750321278043,0.03529017093387665,0.35334846907062456,1.001015392203044,5.509070698044525
32,22,female,77,45,355,change,catch,anti,4,1,2,0.5146931998551736,1,j,change,1.452908540615681,0,0.5000976585361059,0.03533988217532169,0.3533022857227479,1.001064141293682,7.263902550572311
32,22,female,78,75,75,same,valid,anti,2,0,1,1.1058541561978927,0,j,change,1.381911265754752,0.5757707781807047,0.49998091729867156,0.035357521648620605,0.35333275390439667,1.001040728900989,6.3104659482814895
32,22,female,79,75,125,change,catch,clock,4,2,2,0.706712653307477,1,j,change,1.798859014748814,0,0.49899567255488364,0.035316149065693025,0.35335424198819965,1.001040728900989,7.805085107249397
32,22,female,80,75,125,change,valid,clock,3,1,3,1.4613042882847367,1,j,change,0.8169301736652415,0.5493035033169451,0.5001056764795067,0.035357521648620605,0.353285608403894,1.0010259758892062,6.122074774046268
32,22,female,81,105,55,change,valid,anti,1,0,2,0.6146666765016562,1,j,change,0.8556157827752031,0.582818490856735,0.499138712646527,0.03541717513871845,0.35326861036628543,1.0010686313416954,5.296134678337694
32,22,female,82,45,95,change,valid,clock,3,1,2,0.8140594296291965,1,j,change,0.8024715787996684,0.5410604384218218,0.49966821754969715,0.03535303159878822,0.35336001490577473,1.0010503504327062,5.438100363469857
32,22,female,83,165,165,same,valid,clock,4,1,2,0.44101151793438476,1,j,change,0.8994970184485283,0.5329967651772782,0.5002269077667734,0.03530203748778149,0.3533423754342948,1.001063179139237,5.155688232900502
32,22,female,84,75,75,same,catch,clock,3,2,2,0.5383349043167982,1,j,change,0.7996855042347306,0,0.500621390521701,0.03530909327673726,0.35329619208641816,1.001060292681359,6.663848413425512
32,22,female,85,75,75,same,catch,clock,4,1,2,0.4964212716640759,1,j,change,2.207817686105045,0,0.5002625074284879,0.03535142801229085,0.3532702139546018,1.0010676691872504,8.100842942301824
32,22,female,86,15,15,same,valid,clock,4,1,2,0.5959960962245532,1,f,same,1.535281992632008,0.5250354281317442,0.5000918856185308,0.035325770597410155,0.3533369232336554,1.0010615755527397,5.933135813998888
32,22,female,87,75,25,change,valid,anti,4,1,2,0.4221218874754413,1,j,change,0.6447560893866466,0.5175097571480121,0.5000796983458713,0.035263872083305614,0.35337765437907365,1.0010615755509207,4.908522014222399
32,22,female,88,105,105,same,valid,clock,4,2,2,0.6085961320804927,1,j,change,0.8445096499144711,0.7944653775793806,0.4996239585107105,0.03532961920791422,0.3533189630416018,1.001041691053615,5.308147480105617
32,22,female,89,105,55,change,valid,anti,2,1,2,0.5329131717790005,1,j,change,1.0927884382545017,0.5099845165228787,0.5004947070356138,0.03533442997468228,0.35333082959732565,1.0010420117723697,5.544662664324278
32,22,female,90,75,75,same,valid,anti,5,1,2,0.645886298523692,1,j,change,0.6413006770035281,0.5023091292352463,0.5006249184170883,0.03529947174502013,0.3533189630434208,1.001060292681359,5.050819321444578
32,22,female,91,15,15,same,valid,anti,5,0,3,0.7180833782604168,1,f,same,0.7602654516176699,0.57578793920611,0.4996133748245484,0.03533924073963135,0.3532981163934892,1.0010484261256352,5.332582640128749
32,22,female,92,105,55,change,valid,anti,2,0,3,0.9232079979301488,1,j,change,0.5327306834151386,0.5692458904136282,0.4997634707033285,0.03529017093205766,0.3533224909369892,1.001082742919607,5.343807759250922
32,22,female,93,135,185,change,catch,clock,1,2,3,0.7857499999190622,1,j,change,0.83825437210362,0,0.5002140790584235,0.03529017093205766,0.3533500726589409,1.0010169957913604,7.004575358554575
32,22,female,94,135,135,same,valid,clock,4,2,3,0.5201223088988627,1,j,change,1.6529517092167225,0.7875586705049478,0.50072081300641,0.03533699571380566,0.3532971542390442,1.0010420117723697,6.027828994612719
32,22,female,95,15,15,same,valid,clock,2,2,3,0.4588799832708901,1,f,same,1.2228455548683996,0.7813624834761377,0.4997878452486475,0.03528151155660453,0.3533459033296822,1.001061254832166,5.521113967992278
32,22,female,96,45,355,change,valid,anti,2,1,3,0.24387308944460528,1,j,change,0.793514575176232,0.4944549485805515,0.4991675772380404,0.035352710881852545,0.35332184950129886,1.0010343145477236,4.8841708822346845
32,22,female,97,75,125,change,catch,clock,4,0,3,0.3293408257268311,1,j,change,0.5212675917664455,0,0.5001015071484289,0.03536265313050535,0.35328624983958434,1.0010519540210225,6.192738502511929
32,22,female,98,105,155,change,valid,clock,2,0,3,0.5156729923946841,1,f,same,0.9430838352836872,0.5629598160064759,0.49995558060072653,0.03533603356299864,0.3533115865357104,1.0010551611976553,5.22687697622132
32,22,female,99,15,15,same,catch,anti,4,0,3,0.32113366005978605,1,j,change,0.5091069391437486,0,0.4990652682936343,0.03541044006669836,0.3532955506507278,1.0010667070346244,6.132160703937188
32,22,female,100,135,135,same,valid,clock,2,0,4,1.001560612274261,1,j,change,0.6298510554988752,0.5568049860413214,0.5007419803732773,0.03530941399549192,0.3533048514636903,1.0010599719626043,5.428020847932203
32,22,female,101,15,65,change,valid,clock,2,1,2,0.6037202610514214,1,j,change,0.7236478301692841,0.48637736928208997,0.5045861025973863,0.03535014514091017,0.35332537739668624,1.0010250137347612,5.184436725126943
32,22,female,102,165,165,same,catch,anti,5,0,1,0.5693383626130526,0,j,change,1.4198297181501403,0,0.49907456910841574,0.03534533437414211,0.35332986744469963,1.0010497089970158,7.428201091273877
32,22,female,103,135,135,same,catch,clock,1,1,1,0.5193782438582275,0,j,change,0.47663555598046514,0,0.49947867339687946,0.035375481838855194,0.3533112658187747,1.0010137886165467,6.392364738116157
32,22,female,104,75,125,change,catch,clock,3,2,1,0.7029403718461253,0,j,change,0.6046885077557818,0,0.49998797308580833,0.035330581362359226,0.3532891362974624,1.001078894307284,6.674998484608295
32,22,female,105,165,165,same,catch,clock,4,2,1,0.3158992266526184,0,j,change,0.36871277068894415,0,0.49991645304180565,0.035320959832461085,0.3533035685941286,1.0010590098099783,6.121419547807818
32,22,female,106,45,45,same,valid,anti,1,2,1,0.35808963867020793,0,j,change,0.3243693808253738,0.7752283688215551,0.4998789290730201,0.03527926653077884,0.35333531964533904,1.0010609341152303,4.531350955914604
32,22,female,107,165,165,same,valid,clock,5,2,2,0.35408836477836303,1,f,same,1.409363737797321,0.7956282059754525,0.49980067395699734,0.03532801561959786,0.3533180008907948,1.0010782528715936,5.59125492662497
32,22,female,108,105,105,same,valid,clock,5,0,2,1.0450544209816144,1,f,same,0.8347460413006047,0.5510306589007942,0.49970028931966226,0.035339561456567026,0.35326732749490475,1.0010933266039501,5.732102269173993
32,22,female,109,135,185,change,catch,clock,2,2,2,0.5617200346259779,1,j,change,0.8285391918616369,0,0.5001271645633096,0.03532609131434583,0.3533026064415026,1.0010448982320668,6.746210640323625
32,22,female,110,15,15,same,valid,clock,4,2,3,0.5253884933554218,1,f,same,0.6904836967969459,0.7908084901869834,0.5001047143250617,0.03529979246377479,0.3533359610792104,1.0010503504327062,5.1210212164369295
32,22,female,111,135,135,same,valid,clock,1,0,3,0.365262810508284,1,f,same,0.7075898161874647,0.5453317445848964,0.4995085001410189,0.03538317906168231,0.35330613433507096,1.0010195615323028,4.931497908759411
32,22,female,112,15,325,change,valid,anti,1,0,2,0.4691067082258087,1,j,change,0.770407827820236,0.5399086496644493,0.4997397375955188,0.03531358332475065,0.3533003614174959,1.0010606133982947,5.01419175774754
32,22,female,113,135,85,change,catch,anti,3,2,2,0.46370037014094123,1,j,change,0.6268000681211561,0,0.5001682164274825,0.03532737418390752,0.3532676482118404,1.0010795357429743,6.392699567384625
32,22,female,114,45,95,change,catch,clock,2,2,1,0.27866518580594857,0,j,change,1.0228354201899492,0,0.5003786072320509,0.03532320485464879,0.3532480844332895,1.001011543590721,6.617075587064392
32,22,female,115,165,165,same,valid,clock,1,0,2,0.7834581513125158,1,f,same,0.9946885943500092,0.5345419026375408,0.49990330361652013,0.03532320485464879,0.353285608402075,1.0010570855047263,5.591976541425538
32,22,female,116,45,95,change,valid,clock,4,1,2,0.37445682450379536,1,j,change,0.6851867234436213,0.4784605727889913,0.4989972761432,0.03528985021512199,0.3533436583038565,1.0010516333022679,4.90801816673229
32,22,female,117,75,75,same,catch,anti,2,2,1,0.3972608143594698,0,j,change,0.36328013375168666,0,0.49907007906040235,0.03536329456619569,0.3532833633798873,1.001085629379304,6.073240053661721
32,22,female,118,135,185,change,valid,clock,5,1,2,0.9504141587876802,1,j,change,0.4714582103260909,0.4702536984279603,0.5006069582268537,0.03533218495067558,0.3532888155805267,1.0010362388547946,5.273854741186369
32,22,female,119,45,95,change,valid,clock,5,2,2,0.6409068356806529,1,j,change,0.6165239526399091,0.7859850215363822,0.5004959899069945,0.035268682846435695,0.35332313237267954,1.0010747249780252,5.144686654006364
32,22,female,120,45,45,same,valid,clock,2,1,3,1.0290355345587159,1,f,same,2.708936830480525,0.4616727799004522,0.49940073899779236,0.03530684825273056,0.3532955506525468,1.001089477989808,7.522171374215759
32,22,female,121,165,215,change,valid,clock,3,0,3,1.0076038956940465,1,j,change,0.6102638640641089,0.5291951699060982,0.5004751432570629,0.03531230045336997,0.35330966223045834,1.0010657448819984,5.4277655566529575
32,22,female,122,105,105,same,catch,clock,1,1,1,0.31948901974828914,0,j,change,0.2978194083607377,0,0.4995194045422977,0.03531165901949862,0.3533003614174959,1.0010394460296084,5.979672912857495
32,22,female,123,75,25,change,valid,anti,5,0,2,0.7540813731338858,1,j,change,0.585165139142191,0.5240424925833349,0.5005229301914369,0.03535046585966484,0.35330645505382563,1.0010362388547946,5.180039364888216
32,22,female,124,75,125,change,valid,clock,2,2,2,0.3200573314934445,1,j,change,0.7079961654981162,0.7815632879852359,0.5000598138485657,0.035353993753233226,0.35331094510002004,1.0010307866541552,4.884741118285092
32,22,female,125,105,155,change,catch,clock,2,2,2,0.415119658166077,1,j,change,0.4357847817536822,0,0.49983883935965423,0.03533763715131499,0.3533058136181353,1.0010618962696753,6.215167252670653
32,22,female,126,105,55,change,catch,anti,1,2,2,0.7184534864736634,1,j,change,0.5846683474410383,0,0.5007426218089677,0.03536842604808044,0.3532721382598538,1.001087553684556,6.804937897830314
32,22,female,127,135,135,same,valid,clock,4,0,3,1.205566568645736,1,f,same,1.856579539429731,0.5188418907168184,0.5005604541620414,0.035302999640407506,0.3533234530914342,1.0010481054068805,7.052634904284787
32,22,female,128,75,75,same,valid,clock,4,2,2,1.0606310377115733,1,f,same,1.2065139686983457,0.777071749916548,0.4993179938337562,0.03531165901949862,0.353310945101839,1.0010465018185641,6.015097464502105
32,22,female,129,135,85,change,catch,anti,2,0,1,0.41751798504628823,0,j,change,0.3363504315402679,0,0.49929394000719185,0.035344372221516096,0.353307096487697,1.0010497089951969,6.062047647745203
32,22,female,130,165,165,same,valid,anti,4,0,3,0.892858482999145,1,f,same,0.7512712447405647,0.5137890636170539,0.5004610316773324,0.03529979246377479,0.353309982947394,1.00102918306402,5.486116933027006
32,22,female,131,75,25,change,catch,anti,2,1,2,0.26684160747572605,1,j,change,0.26315110902578454,0,0.49991613232487,0.03534276863501873,0.3532458394092828,1.0010481054086995,5.8745503137106425
32,22,female,132,45,45,same,valid,clock,3,2,3,0.8021547097232542,1,f,same,0.6336736896355433,0.7729292767015099,0.49927597981695726,0.03535623877723992,0.35329619208823715,1.0010657448801794,5.2732623756146495
32,22,female,133,15,15,same,valid,anti,3,1,2,0.7848279365625785,1,f,same,0.7590508937282721,0.4527717426449653,0.4992490395306959,0.03533988217532169,0.3532990785461152,1.0010317488067813,5.37920120128183
32,22,female,134,45,355,change,valid,anti,1,0,2,0.7224053698409989,1,j,change,0.7593158065392345,0.5086300959819545,0.4992246649853769,0.03533667499868898,0.3532993992630509,1.001077932154658,5.273159425236372
32,22,female,135,135,135,same,valid,anti,1,0,3,0.59612406258384,1,f,same,0.7906579427180986,0.5035631619468186,0.49978046874275606,0.035367143178518745,0.3533170387363498,1.0010506711496419,5.320664770797521
32,22,female,136,15,325,change,valid,anti,5,2,2,0.6789138061594713,1,j,change,0.8900310358512797,0.7686863185686532,0.500084829829575,0.03534822083383915,0.353285608402075,1.0010744042592705,5.461843094002688
32,22,female,137,165,215,change,valid,clock,3,1,3,0.5893177917805588,1,j,change,0.49762460443525924,0.44357283389725216,0.5004408264630911,0.0353219219850871,0.35332730170375726,1.0010481054086995,4.967710784485462
32,22,female,138,75,125,change,valid,clock,4,2,2,0.4755512094743608,1,j,change,0.7098287463759334,0.7647214098578277,0.4998545545277011,0.03527798366121715,0.3533545627069543,1.0010522747379582,5.09726758150282
32,22,female,139,165,215,change,valid,clock,2,2,3,0.3470588744676206,1,j,change,0.4723446740190411,0.7606848583984271,0.4996406358295644,0.03529113308650267,0.3533433375887398,1.0010609341152303,4.707640489581536
32,22,female,140,165,115,change,valid,anti,4,2,3,0.7617965578665462,1,j,change,0.6524077720168862,0.7568139070019926,0.5003526290984155,0.03531775265400938,0.35331639730065945,1.001037842441292,5.3446486810316856
32,22,female,141,105,105,same,valid,anti,5,1,3,0.5705057750019478,1,j,change,0.4788677510987327,0.43410890283908143,0.4998346700322145,0.035343730787644745,0.3532580266819423,1.0010731213878898,4.908418422408431
32,22,female,142,45,45,same,valid,clock,5,0,3,0.5616209328582045,1,f,same,1.4072495667915064,0.49832454859782505,0.49993986543267965,0.03532288413771312,0.35325610237669025,1.0011074381800427,5.744588770967312
32,22,female,143,75,25,change,valid,anti,3,1,3,0.4382299334156414,1,j,change,0.9281502575195191,0.4244110338051136,0.5002390950376139,0.03534116504488338,0.3532968335221085,1.0010442567963764,5.238744172158476
32,22,female,144,75,25,change,catch,anti,1,2,3,0.3275146592040983,1,j,change,0.7528924726593687,0,0.4997458312300296,0.03534341006889008,0.35329490921685647,1.0011699781298375,6.4865845394197095
32,22,female,145,165,165,same,valid,anti,1,2,3,0.3192500850691431,1,f,same,1.0493449822261027,0.7531919732984791,0.5002278699193994,0.03532833633653354,0.35331735945510445,1.0010455396677571,5.214974822058139
32,22,female,146,75,125,change,valid,clock,4,1,3,0.3276413426920044,1,j,change,0.5599522387219622,0.4144957318003007,0.5000950927951635,0.035348541550774826,0.3532737418481702,1.0010804978956003,4.778710246640912
32,22,female,147,75,75,same,catch,anti,1,2,1,0.28768633296749613,0,j,change,0.2614028769021388,0,0.49985166806982306,0.035362011696634,0.35331415227847174,1.0010615755509207,5.956085088968393
32,22,female,148,75,75,same,catch,anti,3,2,1,0.528822738369854,0,j,change,1.1755005681516195,0,0.5002317185317224,0.03533859930394101,0.35326604462534306,1.001088515837182,7.040391185779299
32,22,female,149,15,65,change,valid,clock,1,2,1,0.23805943989100342,0,j,change,1.341492818972256,0.7494241724907709,0.49991068012423057,0.03534950370521983,0.35329747495597985,1.000992941966615,5.4153932303543115
32,22,female,150,75,25,change,valid,anti,4,0,3,0.5769679157219798,1,j,change,0.9015034283111163,0.4931182070674647,0.49904249733845063,0.0352953024157614,0.35331864232466614,1.0010734421048255,5.355195802960225
32,22,female,151,15,325,change,catch,anti,3,1,1,0.4029481011421012,0,j,change,0.24848661340365652,0,0.5043753910758824,0.03530267892165284,0.35331415227665275,1.0010686313398764,5.984694068998579
32,22,female,152,135,185,change,valid,clock,2,1,2,0.4712433294735092,1,j,change,0.5285700128315511,0.4043617840863376,0.4997198530982132,0.03534661724734178,0.3532756661552412,1.001061254833985,4.814366035740022
32,22,female,153,75,125,change,valid,clock,4,0,2,0.27612638457867433,1,j,change,0.6759067571038031,0.4876485363625446,0.4991496170478058,0.035296906004077755,0.3533369232336554,1.0010343145477236,4.814040828003272
32,22,female,154,75,75,same,valid,clock,1,1,2,0.4066132628959167,1,f,same,0.7950540200836258,0.3939994985026948,0.49897867451909406,0.03527573863539146,0.35332537739668624,1.0010740835405159,4.978130581490404
32,22,female,155,45,355,change,valid,anti,4,2,2,0.6150557070595823,1,j,change,0.7706217465201917,0.7620640709220652,0.49968906420144776,0.0353565594941756,0.3532913813214691,1.001034955983414,5.132200472929981
32,22,female,156,105,105,same,valid,anti,2,1,2,0.41803466124292754,1,f,same,0.783868669956064,0.38340524155213984,0.5000036882538552,0.03531646978444769,0.35332730170375726,1.0009996770368161,5.002837710115273
32,22,female,157,15,65,change,valid,clock,5,1,2,0.37991511885593354,1,j,change,0.5806350017828663,0.3725890045185735,0.5000643038965791,0.035319676959261415,0.3533045307467546,1.0010141093334823,4.76771155420829
32,22,female,158,15,65,change,catch,clock,3,1,2,0.3082177172800584,1,j,change,0.7039413317543222,0,0.49964833305239154,0.035324487726029474,0.353309982947394,1.001057406221662,6.39169315527397
32,22,female,159,105,105,same,catch,anti,3,2,1,0.3195932529979473,0,j,change,0.28441725756238156,0,0.5007522433406848,0.035343089351954404,0.35329651280335383,1.0010731213878898,5.874965322398566
32,22,female,160,135,135,same,valid,clock,1,1,1,0.421628623669676,0,f,same,0.6991049090011074,0.36156711847097034,0.49982280347649066,0.03534116504488338,0.3533122279714007,1.0010420117723697,4.932372185181521
32,22,female,161,45,45,same,valid,anti,5,0,3,0.6002302111573954,1,f,same,0.7995902510810993,0.48215646016721525,0.49914224054191436,0.03532673275003617,0.3533157558667881,1.0010477846917638,5.273161028822869
32,22,female,162,45,45,same,valid,clock,3,0,3,0.6557294451231428,1,f,same,0.8350404601405899,0.4762679183855849,0.4990473081052187,0.03539344202908978,0.3532689310832211,1.001034955983414,5.261054256772695
32,22,female,163,15,325,change,valid,anti,2,2,3,0.2804881451520487,1,f,same,0.79344241369472,0.7588032431931686,0.4997134387449478,0.035329298490978545,0.35323589716244896,1.0011212290428375,4.873413369501577
32,22,female,164,45,95,change,valid,clock,2,1,2,0.9394282950615889,1,j,change,0.8783527426348883,0.37944178255614847,0.4996864984586864,0.035334750691617955,0.353307096487697,1.0010022427795775,5.673784888871523
32,22,female,165,75,125,change,valid,clock,1,2,3,0.705011566684334,1,j,change,1.2678169099690422,0.7557198975431707,0.5000062539947976,0.03532833633835253,0.3532243513254798,1.0010776114340842,5.862661629687864
32,22,female,166,45,45,same,valid,clock,2,0,3,0.7701233512307226,1,f,same,0.7665117493324942,0.47031179160148723,0.4996031118607789,0.03532416700727481,0.3533378853862814,1.0010673484703148,5.36741129830807
32,22,female,167,75,75,same,catch,clock,5,0,3,1.160807207936159,1,j,change,0.3994859536869626,0,0.5002756568555924,0.03537035035515146,0.3532689310832211,1.0010756871306512,6.898853658763983
32,22,female,168,45,95,change,valid,clock,1,2,2,0.40353822168981424,1,j,change,0.5840160076622851,0.7528006788997836,0.500369627137843,0.03529594385145174,0.3533234530896152,1.0010468225373188,4.861600374853879
32,22,female,169,165,165,same,valid,clock,3,0,3,0.28297948016188457,1,f,same,0.6723807868293079,0.46379885467814064,0.5001409554242855,0.03534341006889008,0.3532936263454758,1.001032069523717,4.75554705297327
32,22,female,170,45,355,change,valid,anti,5,2,3,0.795798085122442,1,j,change,0.48360378921461233,0.7497358876060718,0.4994825220073835,0.03534757939814881,0.353259309551504,1.0010705556469475,5.049010473678209
32,22,female,171,45,355,change,catch,anti,1,0,1,0.7728083997262729,0,j,change,0.5052737213227374,0,0.5005117050732224,0.03528536016710859,0.3534530230372184,1.0009518901024421,6.569858566706898
32,22,female,172,105,155,change,valid,clock,5,2,3,0.3559116448432178,1,f,same,0.8182104786810669,0.7467769175265215,0.49971247659232176,0.035330581360540236,0.35330421002981893,1.0010599719644233,4.9905115671645035
32,22,female,173,45,95,change,valid,clock,3,2,3,0.39102061028097523,1,j,change,0.548954508441966,0.7439807362142017,0.4996563509976113,0.03531518691124802,0.35335552485958033,1.0010599719626043,4.767062742323105
32,22,female,174,165,215,change,valid,clock,5,0,3,0.21915505641845812,1,j,change,0.7114814046271931,0.45681506270643835,0.4998135026635282,0.03533026064542355,0.35326187529426534,1.0010849879436137,4.802562021188351
32,22,female,175,105,105,same,catch,clock,3,0,1,0.322519801911767,0,j,change,0.45061348483250185,0,0.4999748236623418,0.03533250566943025,0.3533346782096487,1.0009951869906217,6.33378885935781
32,22,female,176,135,135,same,valid,anti,2,0,1,0.6844885210321081,0,f,same,0.5916798775633652,0.44957071416373817,0.49982408634787134,0.03532544988047448,0.35331607658372377,1.0010355974191043,5.084677487895533
32,22,female,177,45,95,change,valid,clock,2,2,3,0.23601454390700383,1,j,change,0.6430896402744111,0.7410591868536673,0.49981638912322524,0.03533218495067558,0.35327181754291814,1.0010785735885293,4.732026579800731
32,22,female,178,165,165,same,valid,clock,5,1,2,0.5114321423916408,1,f,same,0.9161300792457041,0.37081291686757634,0.49993665825604694,0.035349824423974496,0.35330966223045834,1.0010497089951969,5.226855167420581
32,22,female,179,75,25,change,valid,anti,2,2,2,0.6757223444346891,1,j,change,0.6706787380535388,0.738181782841965,0.4993949660802173,0.03532705346697185,0.3533494312232506,1.001060292681359,5.2614715104864445
32,22,female,180,135,85,change,valid,anti,4,0,2,0.3476207718576916,1,j,change,1.7359775010118028,0.4567284078163836,0.49938181665311276,0.03534212719932839,0.35332409452530555,1.0010185993796767,6.0501519079334685
32,22,female,181,105,155,change,valid,clock,2,2,2,0.3741893459518906,1,j,change,0.9470889577878552,0.7354428208883603,0.49958803812660335,0.03531743193707371,0.3532891362974624,1.0010760078475869,5.166968194747824
32,22,female,182,165,165,same,valid,anti,3,1,2,0.45801276263955515,1,j,change,1.4543488837589393,0.3621517348944119,0.50003319427924,0.03533859930394101,0.3533446204583015,1.0010468225391378,6.003481069797999
32,22,female,183,105,105,same,valid,anti,5,2,2,0.25516267282182525,1,j,change,0.8892411081833416,0.7328188664240152,0.5004914998589811,0.035391197005083086,0.35327053467153746,1.0010824222008523,5.003732833185495
32,22,female,184,45,45,same,catch,anti,3,0,1,0.2131169044841954,0,j,change,0.24335545109533996,0,0.49908322848568787,0.035300433897646144,0.3533638635199168,1.0010481054086995,5.638117874656018
32,22,female,185,135,135,same,valid,clock,3,0,3,0.525963860889533,1,f,same,0.46183828323592024,0.45007969485065563,0.500151218391693,0.035321601268151426,0.35330292715843825,1.0010766492814582,4.744011799844884
32,22,female,186,105,155,change,valid,clock,1,0,3,0.5973886524316185,1,j,change,0.5363416438776767,0.44287373649351164,0.49994884552870644,0.03530428251178819,0.3533247359609959,1.0010567647859716,4.9087291978485155
32,22,female,187,105,55,change,valid,anti,3,2,2,0.47007495493198803,1,j,change,0.5892055405893188,0.7300386387735307,0.49925513316702563,0.035347258681213134,0.35330421002981893,1.0010516333022679,4.872066034487943
32,22,female,188,15,325,change,valid,anti,1,2,2,1.2278317527834588,1,j,change,2.0156991308867873,0.7272850996573359,0.5004299220618122,0.035311338300743955,0.3533369232336554,1.001042653206241,6.958712087560343
32,22,female,189,135,135,same,valid,clock,2,2,2,0.6681909309372713,1,f,same,0.9026801415129739,0.7246678366427741,0.4996399943938741,0.03532320485464879,0.3533144729935884,1.0010468225373188,5.437751743342233
32,22,female,190,135,135,same,valid,clock,4,1,3,0.48924072332192736,1,f,same,0.8284128290906665,0.3534764130998773,0.5004206212506688,0.03529658528532309,0.3533144729954074,1.0010503504308872,5.13257988195619
32,22,female,191,15,65,change,valid,clock,3,0,2,0.41357764751774084,1,j,change,0.6480466528773832,0.43524553757437157,0.499681046258047,0.03530781040535658,0.3533202459148015,1.001060292681359,4.885131110995644
32,22,female,192,135,135,same,valid,anti,5,2,2,0.6176634625899169,1,f,same,0.8063654122652224,0.7219222337739364,0.4997490384084813,0.03531262117030565,0.3533093415117037,1.0010541990450292,5.167807512940271
32,22,female,193,135,85,change,catch,anti,2,1,1,0.5567726435510849,0,j,change,0.21094243855077366,0,0.499704458648921,0.03537099178902281,0.3532743832838605,1.0010596512438497,6.132752107354463
32,22,female,194,75,75,same,valid,anti,4,1,2,0.7248675195405667,1,f,same,1.482336954342827,0.3447866579663546,0.5003474976165307,0.03534180648057372,0.35330837935907766,1.0010323902406526,6.0866704276159
32,22,female,195,165,215,change,valid,clock,4,0,3,0.346331807464594,1,j,change,0.6534295785731956,0.42750517373235186,0.4999478833760804,0.03535976667080831,0.3532477637163538,1.001084667224859,4.861583697535025
32,22,female,196,75,75,same,valid,anti,1,2,2,0.9302990660380601,1,f,same,0.5278179298511532,0.7191925407953301,0.4993244081888406,0.03532769490266219,0.3533026064396836,1.0010237308651995,5.344109233879863
32,22,female,197,105,155,change,valid,clock,2,1,3,0.2718470484524005,1,j,change,0.6673743837018264,0.33607736372529007,0.49971247659232176,0.03531935624232574,0.3533382061050361,1.0010137886147277,4.766800074534331
32,22,female,198,45,45,same,valid,clock,1,2,3,0.32689022186241345,1,f,same,0.655294231219159,0.7165180478367725,0.500198043171622,0.03528022868340486,0.35331062438126537,1.0010792150242196,4.814624854914655
32,22,female,199,15,15,same,valid,anti,4,1,2,0.7104897455319588,1,j,change,0.9163991613877442,0.32778138876526575,0.5002429436499369,0.03512275629873329,0.35331864232466614,1.0010221272750641,5.49775032576872
32,22,female,200,45,355,change,catch,anti,4,0,1,0.3446281551005086,0,j,change,0.2975176130148611,0,0.4997599428097601,0.03530011318252946,0.35332313237267954,1.0010728006709542,5.979690873049549
32,22,female,201,165,115,change,catch,anti,4,0,2,0.384050452741576,1,j,change,0.35131191174332344,0,0.507603414616824,0.03533218495067558,0.3532798354844999,1.0010109021550306,6.117453232143816
32,22,female,202,45,95,change,valid,clock,1,1,1,0.35989463782425446,0,j,change,0.5572938097957376,0.31947234194555985,0.49988309840227885,0.0353475793999678,0.35323076567874523,1.001102306698158,4.708496485094656
32,22,female,203,105,105,same,valid,clock,1,2,1,0.29087202177470317,0,j,change,0.5187146789612598,0.7139548708649666,0.4992833563228487,0.03531294188906031,0.35332858457513794,1.0010538783262746,4.590108360886006
32,22,female,204,105,105,same,valid,clock,3,2,1,0.26037369383629994,0,j,change,0.2968441058656026,0.7230426408634445,0.4991922725002951,0.035323846290339134,0.35327374184998916,1.0010756871306512,4.366036060855549
32,22,female,205,165,215,change,valid,clock,2,0,2,0.8642052439281542,1,j,change,0.6327115365675127,0.41947760806913315,0.500102469301055,0.035297547439768096,0.35328721199221036,1.0010448982320668,5.379787152498466
32,22,female,206,165,165,same,catch,clock,2,1,1,0.3341227264736517,0,j,change,0.2903056343366188,0,0.49979522175453894,0.035334109255927615,0.3533013235701219,1.0010147507673537,5.874408556492199
32,22,female,207,165,115,change,valid,anti,5,1,2,0.3598337014645949,1,j,change,1.1095350331161171,0.33343840657080126,0.4995761715745175,0.035338278585186345,0.35328753270914603,1.0010740835423348,5.308560564490108
32,22,female,208,105,155,change,catch,clock,4,2,1,0.2288497107292642,0,j,change,0.23116946177651698,0,0.500225304176638,0.03529017093205766,0.35333435749089404,1.001041691053615,5.709859535274518
32,22,female,209,105,105,same,catch,clock,2,0,1,0.21556301830059965,0,j,change,0.25012451864313334,0,0.49952325315462076,0.03534629652858712,0.3533221702200535,1.0010375217243563,5.744374852269175
32,22,female,210,45,45,same,valid,anti,2,2,2,0.3469709978198807,1,j,change,0.7714645926062076,0.7311102721116074,0.5003324238859932,0.03532897777222388,0.35327951476574526,1.0010724799521995,5.003044573024454
32,22,female,211,165,165,same,valid,clock,2,2,2,0.8389724590106198,1,f,same,2.551354118191739,0.7289422501938112,0.49962684496858856,0.03532480844478414,0.3532804769183713,1.0010763285645226,7.216210547314404
32,22,female,212,15,15,same,valid,clock,5,0,2,0.7582670596966636,1,f,same,1.0508828235469991,0.41122159961339333,0.49989207849830564,0.03527734222370782,0.3533503933758766,1.0009923005309247,5.568183458213753
32,22,female,213,15,65,change,valid,clock,3,2,2,0.5906025868443976,1,j,change,0.7157049358775112,0.7268559494726881,0.49994050686837,0.0353074896884209,0.3533378853862814,1.0010570855047263,5.084795512006167
32,22,female,214,15,15,same,valid,anti,2,2,2,0.5166219960374292,1,f,same,1.1263739946698479,0.7248584482985658,0.5005729621516366,0.0353042825099692,0.3533112658187747,1.0010541990432102,5.379818903549676
32,22,female,215,165,115,change,valid,anti,1,1,1,0.27981463800460915,0,j,change,0.26030538096892997,0.32616399383403427,0.5004517308661889,0.035287925908050966,0.3533311503160803,1.0010333523932786,4.343634571700022
32,22,female,216,165,215,change,valid,clock,4,1,2,0.4062768300391326,1,j,change,0.402509359344549,0.33831377416877306,0.5001996467617573,0.03534116504488338,0.35326636534227873,1.0010840257891687,4.625741699746868
32,22,female,217,105,155,change,catch,clock,1,2,1,0.5495074257360102,0,j,change,0.3952104661711928,0,0.5005383246407291,0.03534405150458042,0.35328079763712594,1.0010881951184274,6.2638384070342
32,22,female,218,15,15,same,valid,clock,1,2,2,0.4140975308891939,1,j,change,0.35047195211518556,0.7227577434177204,0.49960920549528964,0.03535174872922653,0.353309982947394,1.0010237308651995,4.543549453224841
32,22,female,219,105,55,change,valid,anti,4,2,2,0.5533438507354731,1,j,change,0.4831951948781352,0.7206864527572294,0.49923813512941706,0.03532705346697185,0.3533035685941286,1.0010519540210225,4.872318760028065
32,22,female,220,135,85,change,catch,anti,2,0,1,0.3322856555478211,0,j,change,0.5330857178960287,0,0.4997419826195255,0.035302999640407506,0.3533054928993806,1.0010676691872504,6.156211964886097
32,22,female,221,105,55,change,catch,anti,5,2,1,0.25648884046677267,0,j,change,0.4192735936758254,0,0.5007275480784301,0.03532320485464879,0.35329619208641816,1.00105548191641,6.062898191055865
32,22,female,222,165,115,change,valid,anti,3,1,1,0.25079064928286243,0,j,change,0.6046278921130579,0.33214432117908466,0.5008725124735065,0.03531839408969972,0.3533026064415026,1.0010381631600467,4.697902538384369
32,22,female,223,105,105,same,valid,clock,2,1,1,0.21711016043263953,0,j,change,0.2483018800157879,0.3423480859969108,0.4990149156164989,0.03531230045336997,0.35330292715843825,1.0010750456949609,4.2480847541410185
32,22,female,224,15,325,change,valid,anti,2,0,2,0.425020213231619,1,j,change,0.8212704461529938,0.40283282483099786,0.49948123913782183,0.03533122279623058,0.3532721382598538,1.0010615755509207,5.0841062896925
32,22,female,225,75,75,same,catch,clock,1,2,1,0.27386789061165473,0,j,change,0.28044933831006347,0,0.5007564126699435,0.0353241670090938,0.3532435943870951,1.0010946094735118,5.86279504824779
32,22,female,226,135,85,change,valid,anti,2,2,2,0.7464505371535779,1,j,change,0.5259183189773466,0.718611226139453,0.5008003509938135,0.035307168969666236,0.3533125486883364,1.0010586890930426,5.168934194183748
32,22,female,227,75,75,same,catch,anti,2,1,2,0.2851350237524457,1,j,change,0.6512259273313248,0,0.4997576977857534,0.03531326260781498,0.353308058640323,1.0010317488049623,6.321894402417456
32,22,female,228,105,105,same,catch,anti,3,1,1,0.22240200230407936,0,j,change,0.273155576624049,0,0.49986610036648926,0.035347258681213134,0.3533035685941286,1.001082742919607,5.815858335148732
32,22,female,229,75,125,change,valid,clock,3,2,2,0.7208470025871065,1,j,change,0.7210529033454804,0.7166178824290075,0.4993721951232146,0.03531358332293166,0.3533077379233873,1.001061254833985,5.34350019098747
32,22,female,230,45,95,change,valid,clock,5,1,2,0.4305962109774555,1,j,change,0.5338038048030285,0.351702025720423,0.4997124765905028,0.03534180648057372,0.35329747495597985,1.0010362388547946,4.743174726676443
32,22,female,231,75,25,change,valid,anti,5,1,2,0.5619349154767406,1,j,change,1.062422246006463,0.3464483455625743,0.49958322736347327,0.03533218495067558,0.3533224909369892,1.0010234101464448,5.437993564477438
32,22,female,232,105,155,change,catch,clock,5,0,2,0.7242366678474355,1,j,change,0.35252005527945585,0,0.50029746565815,0.03533635427993431,0.3533192837603565,1.0010253344535158,6.274787067508441
32,22,female,233,165,165,same,valid,anti,3,0,2,0.2839336152865144,1,f,same,1.2014126331341686,0.3943803454975292,0.5006364642540575,0.03536072882343433,0.3532503294572962,1.00103591813604,5.251054599941199
32,22,female,234,165,115,change,valid,anti,1,2,2,1.049488984468553,1,j,change,1.4982099142180232,0.7147008548665919,0.4992753383812669,0.03532128054939676,0.3533035685941286,1.0010590098099783,6.238184519792412
32,22,female,235,45,45,same,valid,clock,1,0,2,0.6782528070016269,1,f,same,0.7469088427315,0.3858898568344708,0.5006108068391768,0.03531807337276405,0.35330421002981893,1.0010721592352638,5.203776001786537
32,22,female,236,135,135,same,valid,anti,3,0,3,0.5865750141019817,1,f,same,0.43717028217179177,0.3776290365428622,0.49998797308580833,0.035311338300743955,0.35333179175177065,1.0010638205749274,4.825773001792186
32,22,female,237,165,165,same,valid,clock,3,1,2,0.8151466625949979,1,f,same,0.7701384249612602,0.3415046372204249,0.5004443543584784,0.03530748968660191,0.3533311503160803,1.001032069523717,5.3567410207870125
32,22,female,238,15,15,same,catch,clock,3,1,2,0.25769634256721474,1,j,change,0.6664507167552074,0,0.4994639203814586,0.035335392127308296,0.35329170203840476,1.001037842443111,6.250292574712148
32,22,female,239,165,115,change,valid,anti,4,1,2,1.1689781325057993,1,j,change,2.006819099507993,0.3365011279033082,0.500343328287272,0.03530973471060861,0.35330613433507096,1.0010218065581284,6.969669407413676
32,22,female,240,165,165,same,catch,anti,2,1,1,0.6708067044110066,0,j,change,2.019532669426553,0,0.4997814308953821,0.035335392127308296,0.35327053467153746,1.0010038463678939,8.005208455273532
32,22,female,241,135,135,same,valid,clock,3,1,2,0.9711184099323873,1,f,same,1.0998339644520456,0.33178788402954135,0.5003013142686541,0.03531326260599599,0.3533112658187747,1.0010307866523362,5.886396983712984
32,22,female,242,105,55,change,valid,anti,5,2,3,0.3797906803938531,1,j,change,0.4924844620290969,0.7126761872690106,0.5001589156145201,0.035314866196131334,0.3532993992630509,1.0009906969407893,4.661800951696932
32,22,female,243,105,105,same,catch,clock,4,1,1,0.6769269600754342,0,j,change,0.5075662113649742,0,0.4993099758903554,0.035316149065693025,0.3533026064415026,1.0010279001944582,6.486352981246455
32,22,female,244,105,155,change,catch,clock,5,1,2,0.33670033454109216,1,j,change,0.4169345995687763,0,0.49998220016823325,0.03537387824871985,0.35328304266113264,1.001067989906005,6.097995289939718
32,22,female,245,135,85,change,valid,anti,1,0,2,0.4020593924251443,1,j,change,0.8252335546385439,0.36930202478975893,0.4998802119425818,0.03533571284424397,0.3532788733318739,1.0010702349281928,5.155402152720853
32,22,female,246,15,15,same,catch,clock,1,2,1,0.6065849114511366,0,j,change,0.1625599301096372,0,0.4997589806571341,0.03531935624232574,0.3533648256725428,1.0010750456949609,6.015134667753955
32,22,female,247,45,95,change,valid,clock,2,0,2,0.6014203945014742,1,j,change,1.6304293094908644,0.3608201135687106,0.5000755290166126,0.035268682848254684,0.35335616629527067,1.0010237308633805,6.051377370222326
32,22,female,248,135,135,same,valid,clock,5,0,1,0.3312830920513079,0,j,change,2.179842764946443,0.3520808181984819,0.49971953238127753,0.03535142801229085,0.3533212080656085,1.001057406221662,6.156770013665664
32,22,female,249,165,215,change,valid,clock,4,2,2,0.3461336039326852,1,j,change,0.538509695456014,0.7106731838715192,0.4995271017669438,0.035307168969666236,0.3533205666299182,1.0010012806251325,4.7081841060644365
32,22,female,250,45,45,same,valid,anti,3,0,2,0.5669217548256711,1,f,same,0.7791942096355342,0.3602440446169638,0.499350386320657,0.03535591805848526,0.3533087000778323,1.0010500297139515,5.179297224156471
32,22,female,251,15,65,change,valid,clock,2,2,2,0.3921957198945165,1,j,change,0.999667415757358,0.7086543433275323,0.5052769284993701,0.03533442997286329,0.35331607658372377,1.0010423324893054,5.232137067043368
32,22,female,252,75,25,change,catch,anti,5,1,1,0.5833893252965936,0,j,change,0.45307499309637933,0,0.49931414522143314,0.03529017093387665,0.3533414132798498,1.0010487468425708,6.356255774922829
32,22,female,253,165,165,same,valid,anti,4,2,3,0.9665286190829647,1,f,same,0.5797042790472915,0.7067074050153843,0.5005453804296849,0.03533442997286329,0.35330870007601334,1.0010497089970158,5.297951544047464
32,22,female,254,135,85,change,valid,anti,3,2,3,0.9206396906756709,1,j,change,0.6802451052863034,0.7048316539313133,0.49942864143667975,0.03533154351498524,0.3532990785461152,1.0010647827275534,5.461263236420564
32,22,female,255,15,325,change,valid,anti,2,1,3,0.8101027354969119,1,j,change,0.6143979150783707,0.32700138362096487,0.4997275503228593,0.03532705346697185,0.3532711761072278,1.0010843465079233,5.285056127198914
32,22,female,256,105,55,change,catch,anti,5,2,3,0.5065238788756687,1,j,change,0.6440899587450986,0,0.5002432643668726,0.035334109255927615,0.3532708553902921,1.0010506711496419,6.439805298705323
32,22,female,257,165,165,same,valid,anti,2,2,3,2.15568630859525,1,f,same,0.8144096533451375,0.7028475557398679,0.5002490372844477,0.03530011318252946,0.3533003614156769,1.00106029267954,6.792876026256636
32,22,female,258,45,95,change,valid,clock,1,0,1,0.26520658869594627,0,j,change,0.3529292910516233,0.35229168454121873,0.4999751443792775,0.03528471873141825,0.35330613433507096,1.0010843465079233,4.378271761415817
32,22,female,259,45,45,same,valid,clock,4,0,3,0.4016466287594085,1,f,same,1.5833155602285842,0.35966104292335954,0.4998337078777695,0.0352863223215536,0.3533327539025777,1.0010705556469475,5.686171326748081
32,22,female,260,135,185,change,valid,clock,4,1,2,1.0399389738377067,1,j,change,1.2005563169041125,0.32249082716226013,0.49971023156831507,0.035292736674819025,0.35334077184597845,1.00103591813604,5.944827256642384
32,22,female,261,75,75,same,valid,clock,1,2,2,0.3921716660679522,1,j,change,0.8181562773897895,0.7008825913062977,0.49966725539707113,0.03535527662461391,0.3534193476789369,1.000937457805776,5.073463914610329
32,22,female,262,135,85,change,valid,anti,2,1,3,0.47618655121732445,1,j,change,0.46088382739435474,0.3179019319188081,0.4998426879737963,0.03532352557340346,0.35332281165574386,1.0010365595717303,4.790770835345029
32,22,female,263,75,75,same,valid,anti,3,1,3,0.84405807940675,1,f,same,1.4679825927269121,0.31357029736096137,0.49984621586918365,0.03532961920973321,0.35329394706241146,1.0010708763638831,6.144638546353235
32,22,female,264,75,25,change,valid,anti,3,2,3,0.30079919640957087,1,j,change,0.6958579631154862,0.6988932574344333,0.5004629559844034,0.035311338300743955,0.3533269809850026,1.0010429739268147,4.8386664943336655
32,22,female,265,15,325,change,valid,anti,4,1,2,0.7083986661982635,1,j,change,0.5512498849420808,0.30917618064307506,0.49979714606160996,0.03534629652858712,0.35328047692019027,1.001105193157855,5.120778433147279
32,22,female,266,135,135,same,valid,clock,5,1,1,1.097406772980321,0,j,change,0.030286333545518573,0.30499646155740073,0.4996544266887213,0.035358804518182296,0.35330164428705757,1.0010493882782612,4.931678793536776
32,22,female,267,135,135,same,valid,anti,3,2,3,0.6547679334908025,1,f,same,0.8241411901908577,0.6969580806010718,0.4996008668367722,0.03532769490266219,0.3532859291190107,1.0010493882800802,5.309071788484289
32,22,female,268,135,135,same,valid,anti,1,1,3,0.39414760775071045,1,f,same,0.8363877951524046,0.31180964968956804,0.4990258200195967,0.035372595379158156,0.35329170204022375,1.0010705556469475,5.06124392921447
32,22,female,269,45,45,same,catch,clock,5,2,1,0.5767161523363029,0,j,change,0.37055336950834317,0,0.49952774320263416,0.03531903552539006,0.3532904191688431,1.0010692727755668,6.238620695849022
32,22,female,270,75,75,same,valid,anti,1,1,1,0.3352423519245349,0,j,change,0.49472114719537785,0.30781457636160625,0.5002564137921581,0.03535239016491687,0.3532965128051728,1.0010525954567129,4.567557096568635
32,22,female,271,45,45,same,valid,anti,2,0,2,1.7122924996638176,1,j,change,0.3504546333606413,0.35236280061414205,0.4993131830688071,0.0353331471033016,0.35328079763894493,1.001080818612536,5.897249749599723
32,22,female,272,135,135,same,catch,clock,3,0,1,0.5968492052779766,0,j,change,0.13024569861590862,0,0.49940747406799346,0.035338920020876685,0.35328400481557765,1.0010760078475869,6.085132907013758
32,22,female,273,105,105,same,catch,clock,2,2,1,0.2659224305789394,0,j,change,1.1824559726774169,0,0.5004931034472975,0.03528985021512199,0.35335616629527067,1.0010279001944582,6.699572194673237
32,22,female,274,105,105,same,valid,anti,3,0,1,0.39258539188631403,0,j,change,0.6424228681971726,0.3449040183588873,0.4998577617043338,0.03535591806030425,0.3532993992630509,1.0010250137347612,4.943861575678966
32,22,female,275,75,25,change,catch,anti,4,1,2,1.574294092348282,1,j,change,0.6773018790536298,0,0.49936513933425886,0.03532416700727481,0.35332730170193827,1.0010609341152303,7.6641457187233755
32,22,female,276,165,165,same,valid,anti,4,1,3,0.46082353246674757,1,f,same,0.8225068128467683,0.31453528936529196,0.49929843005338626,0.03530684825273056,0.3533600149075937,1.0010327109575883,5.131297011199422
32,22,female,277,15,65,change,valid,clock,4,1,2,0.41911034837175976,1,j,change,0.7524341670814465,0.31079051844465133,0.5003949638339691,0.03530460322872386,0.35328753270914603,1.0010731213878898,5.097668799333405
32,22,female,278,75,75,same,valid,anti,5,2,2,1.7713007058664516,1,f,same,0.7643892396663432,0.6950930472758676,0.499328898235035,0.03531999767801608,0.35331511443109775,1.0010567647859716,6.321229875366043
32,22,female,279,165,215,change,catch,clock,2,0,1,0.38378714351892995,0,j,change,0.43998906994056597,0,0.5000533994953003,0.0353597666726273,0.3531095343914785,1.0012501575529313,6.109798342338763
32,22,female,280,105,105,same,valid,anti,4,2,1,0.5998334833748231,0,j,change,0.7322940583508171,0.6932735859544108,0.5003609677587519,0.03536906748377078,0.35326732749490475,1.00106702775156,5.120895174386533
32,22,female,281,45,355,change,valid,anti,1,1,3,0.8707376218208083,1,j,change,0.5664342639392999,0.30715065869806607,0.4995354404254613,0.03533378853899194,0.3535296745649248,1.0008341867087438,5.238104019650564
32,22,female,282,165,165,same,valid,anti,5,2,3,0.5303920100250252,1,f,same,0.7625213798419281,0.69996620965962,0.4997586599383794,0.035320959830642096,0.35328496696820366,1.0010711970826378,5.0845998742133816
32,22,female,283,45,45,same,catch,clock,1,2,2,0.5527069054041931,1,j,change,1.619813233261084,0,0.5002586588161648,0.035305244664414204,0.35332281165574386,1.0010606133982947,7.487606345977838
32,22,female,284,75,75,same,valid,clock,2,2,2,0.6553096256684512,1,f,same,0.9135463775419339,0.6981744812054862,0.5008725124735065,0.03531839408969972,0.353331471031197,1.001015392203044,5.404024108989688
32,22,female,285,45,355,change,valid,anti,3,1,2,0.2742248493977968,1,j,change,0.47507847159977246,0.3037187957565396,0.499635183628925,0.03531422476044099,0.35330068213443155,1.0010718385183281,4.672203429947331
32,22,female,286,105,105,same,valid,anti,3,2,2,0.8690294794068905,1,j,change,0.5385119404800207,0.6964594032977477,0.5004267148851795,0.03528471873323724,0.3533282638563833,1.0010647827275534,5.215579374902518
32,22,female,287,75,125,change,valid,clock,2,1,1,0.46381582850881387,0,j,change,0.42133773272507824,0.3002169435829152,0.49975160414942366,0.035316790501383366,0.3533221702200535,1.001013467897792,4.743747207750857
32,22,female,288,75,125,change,valid,clock,5,1,1,1.396641187784553,0,j,change,0.6789067503686965,0.3059775843191139,0.49969611999040353,0.035321601266332436,0.3533167180175951,1.001076970000213,5.9206624616308545
32,22,female,289,165,165,same,catch,anti,3,2,1,0.3845626388902019,0,j,change,1.0862271957685152,0,0.500602788897595,0.035307168969666236,0.3533103036661487,1.0010667070346244,6.757813885600626
32,22,female,290,165,165,same,catch,anti,4,1,1,0.3487875428127154,0,j,change,0.5956532490145037,0,0.5006941934389033,0.035325129161719815,0.35332633954931225,1.0010673484703148,6.264009349562912
32,22,female,291,105,105,same,catch,clock,4,0,1,0.4064426410859596,0,j,change,0.7809119735775312,0,0.4994517331106181,0.03533924073781236,0.3533202459148015,1.0010503504327062,6.509466463674471
32,22,female,292,75,25,change,valid,anti,1,1,2,0.5496732367828372,1,j,change,1.1787908109254204,0.3117824561033095,0.5006752710942237,0.03530364107609785,0.353333395338268,1.0010327109594073,5.55701638899518
32,22,female,293,135,135,same,valid,anti,2,2,2,0.3312064405254205,1,j,change,1.2935192255827133,0.6947994850096109,0.4994148505757039,0.035302999640407506,0.35330068213443155,1.001019240815367,5.520049185264725
32,22,female,294,165,165,same,catch,anti,5,0,2,0.5131858267159259,1,j,change,0.7355769246187265,0,0.4993433305298822,0.03528022868522385,0.35330100285136723,1.0010821014839166,6.697668414470172
32,22,female,295,45,355,change,catch,anti,3,2,1,0.28464143922610674,0,j,change,0.3088729435185087,0,0.5004517308661889,0.03527670078983647,0.3533026064396836,1.0010477846899448,5.90970321747227
32,22,female,296,45,95,change,valid,clock,4,2,3,1.8506026445738826,1,j,change,0.5138160369751859,0.6930383004056317,0.5007118329122022,0.03530043389946513,0.3533382061032171,1.001031107371091,6.252023808798185
32,22,female,297,45,45,same,valid,anti,4,2,3,0.7362885971724609,1,f,same,0.6341271844485163,0.691291639267952,0.4993866274198808,0.03534052361101203,0.3532801562014356,1.001062216986611,5.179120508710184
32,22,female,298,135,185,change,valid,clock,1,0,2,0.6522849371413031,1,j,change,0.8729329344023427,0.35163386060829693,0.4990748898253514,0.03532320485464879,0.35332858457331895,1.001034955983414,5.320026221877924
32,22,female,299,165,115,change,valid,anti,1,0,2,0.5600859779988241,1,j,change,0.6108690583441785,0.34471204319002013,0.4999770686845295,0.03534886226952949,0.3533013235701219,1.00104265320806,5.026798528675499
32,22,female,300,165,165,same,valid,clock,4,0,2,1.1424939071657718,1,f,same,0.5922934105019522,0.337691828927029,0.49949535071573337,0.03531165901949862,0.35331543514803343,1.0010506711496419,5.567570566712675
32,22,female,301,45,95,change,valid,clock,5,0,2,0.39159501566246036,1,j,change,0.6246358651533228,0.3308126401265606,0.506562685714016,0.03537484040316485,0.3533234530914342,1.0010586890912236,4.797618158008845
32,22,female,302,105,55,change,valid,anti,2,2,2,0.5298400548817881,1,j,change,0.5845509647660947,0.6895266853008678,0.49949663358711405,0.035335392127308296,0.353309982947394,1.0010112228737853,4.849276797645871
32,22,female,303,135,185,change,valid,clock,3,2,2,0.273557435888506,1,j,change,0.3910651900405355,0.687775794040443,0.4994347350730095,0.03531743193707371,0.35331415227847174,1.0010692727755668,4.4601583639814635
32,22,female,304,135,135,same,valid,anti,4,2,2,0.4300891563107143,1,f,same,0.7103069364511612,0.6860929962782534,0.5002423022124276,0.03532416700727481,0.3533256981136219,1.000988131199847,4.897531019012604
32,22,female,305,15,15,same,valid,clock,5,2,2,0.5383002668058907,1,f,same,0.7063457522708632,0.684458011834002,0.49957777516283386,0.03531358332293166,0.35329971998180554,1.001064141293682,5.002654259595147
32,22,female,306,45,45,same,valid,anti,3,1,2,1.6882851770369598,1,f,same,0.3081423486219137,0.3085668625125374,0.4997881659655832,0.03530941399549192,0.3533269809850026,1.00105355760752,5.779760917790554
32,22,female,307,15,15,same,catch,clock,5,0,1,0.28057666323365993,0,j,change,0.29584571170016716,0,0.5001332581996394,0.03534757939814881,0.3532557816579356,1.001081780765162,5.885665747382518
32,22,female,308,135,85,change,catch,anti,5,1,1,1.0190631387304165,0,j,change,0.4433283825219405,0,0.5002948999153887,0.035301075333336485,0.35332409452530555,1.000986206892776,6.710384229414558
32,22,female,309,45,355,change,catch,anti,3,0,1,0.30254774925197125,0,j,change,0.16251053958512784,0,0.5007493568809878,0.03530203748778149,0.3533221702200535,1.0010452189508214,5.816002337391183
32,22,female,310,75,75,same,catch,anti,1,0,1,0.7080994365951483,0,j,change,0.41992016053882253,0,0.49979393888497725,0.03533924073963135,0.35328657055652,1.0010307866541552,6.439283811741916
32,22,female,311,165,165,same,valid,clock,1,2,2,0.6873897332498018,1,f,same,0.9140043624011014,0.6827159046530171,0.4997535284564947,0.035382216910875286,0.3533212080674275,1.0010400874652987,5.4503729465650395
32,22,female,312,15,15,same,valid,clock,2,0,2,0.46933986998737964,1,f,same,0.6295880669931648,0.32378652428171895,0.49910022652329644,0.03530941399367293,0.35327823189618357,1.0011164182760695,4.8489201595748455
32,22,female,313,75,75,same,valid,clock,4,0,2,0.37046420999104157,1,f,same,0.9221111434326303,0.31669927947656695,0.4992374936937267,0.035338278585186345,0.35325417806961923,1.001100382391087,5.085029956635481
32,22,female,314,15,15,same,valid,clock,3,0,2,0.4146135656537808,1,f,same,0.49367656968024676,0.3098396928174943,0.49956911578374275,0.03531326260781498,0.3533202459148015,1.0010246930178255,4.6847037226016255
32,22,female,315,165,165,same,valid,anti,1,1,2,0.36563997450866736,1,f,same,0.8218211184266693,0.30552502383278984,0.4997557734805014,0.035377406144107226,0.35327823189618357,1.0010926851664408,4.967779418069767
32,22,female,316,45,355,change,valid,anti,4,0,2,0.3492060793960263,1,j,change,0.5466244944273058,0.3029832633618674,0.4992910535474948,0.03527253146057774,0.3533481483518699,1.0010429739249957,4.672367958122777
32,22,female,317,165,215,change,valid,clock,2,1,2,0.4339146769070794,1,j,change,0.45279628942444106,0.30260985303716925,0.4996977235787199,0.035328657055288204,0.3532814390746353,1.0010821014820976,4.625402380430387
32,22,female,318,15,15,same,valid,anti,1,1,2,0.4208595426498505,1,f,same,0.45102111701635295,0.2995926968921926,0.4999805965799169,0.03535174872922653,0.35334205471735913,1.0010689520586311,4.626442788616259
32,22,female,319,75,25,change,valid,anti,4,2,2,0.37012906000563817,1,j,change,0.5009693692154542,0.6809816769545991,0.4996720661638392,0.03536008738956298,0.3533045307467546,1.0010509918665775,4.660779145138804
32,22,female,320,135,135,same,valid,clock,1,2,2,0.38758828957179503,1,f,same,0.412789323438119,0.6792174358822736,0.5002990692446474,0.035332826384546934,0.3532910606045334,1.0010628584223014,4.614700351859938
32,22,female,321,75,25,change,valid,anti,1,2,2,0.45793033819427365,1,j,change,0.5334715412755031,0.6774815696993671,0.4998750804588781,0.03530684825273056,0.35331190725264605,1.0010853086605493,4.766790132287497
32,22,female,322,165,165,same,valid,anti,5,1,3,0.7887791784942237,1,f,same,0.5236107552027534,0.29670149429756754,0.4998734768723807,0.03531390404168633,0.353309020794768,1.0010455396659381,5.073148649120412
32,22,female,323,135,185,change,valid,clock,2,0,2,0.3624677558436815,1,j,change,0.4239919923202251,0.29615524604466115,0.5003474976165307,0.03533122279623058,0.3532977956747345,1.001053557609339,4.566754981628037
32,22,female,324,105,155,change,catch,clock,5,0,3,0.5370885953761899,1,f,same,0.5560080525792728,0,0.5003513462270348,0.03533859930394101,0.3533054928993806,1.0010468225373188,6.369440158408906
32,22,female,325,105,105,same,valid,clock,1,1,1,0.285131816573994,0,j,change,0.21350144499410817,0.29395489393444263,0.5002891269978136,0.03533603356299864,0.35330100285136723,1.001038804595737,4.3320111212051415
32,22,female,326,15,15,same,valid,clock,2,1,3,0.41566584039173904,1,f,same,0.39722938402519503,0.2985584479673027,0.49917270872174413,0.0353309020792949,0.35332056663173717,1.00105355760752,4.636982534035269
32,22,female,327,165,115,change,valid,anti,3,2,2,1.6638410369196208,1,j,change,0.5985820429523301,0.6758078022441842,0.4999071522288432,0.03531358332475065,0.35327277969554416,1.0010946094735118,6.0746945083828905
32,22,female,328,75,75,same,valid,anti,3,0,2,0.7312600645218481,1,j,change,0.7426359209584916,0.2896320080404635,0.4996788012340403,0.035311979736434296,0.35332409452530555,1.0010586890930426,5.273557115169751
32,22,female,329,165,115,change,valid,anti,5,2,1,0.2158632100581599,0,j,change,0.2035915891156037,0.6741763742739484,0.4996194684608781,0.035343089351954404,0.3533048514636903,1.0010606133982947,4.248445882258238
32,22,female,330,15,325,change,catch,anti,3,2,1,0.5335956590224669,0,j,change,0.2721988757566578,0,0.5001319753300777,0.03533507140855363,0.35329619208823715,1.0010628584223014,6.086563628627118
32,22,female,331,105,105,same,valid,anti,4,0,2,0.33335621119476855,1,j,change,0.7696243145073822,0.2831983882584095,0.5002349257065362,0.03532705346697185,0.35328079763712594,1.0010750456931419,4.896971687363475
32,22,female,332,45,45,same,valid,anti,1,0,2,0.38362357749792864,1,f,same,0.5428958305747074,0.27680232627496254,0.49956687076155504,0.035358163084310945,0.35324038720864337,1.001061254833985,4.731120873046166
32,22,female,333,135,85,change,valid,anti,5,2,3,1.3109996225157374,1,j,change,0.5362040559884917,0.680153778776027,0.4997679607513419,0.03530332035916217,0.35331992519422784,1.0010487468443898,5.6150448026564845
32,22,female,334,105,155,change,catch,clock,1,1,3,2.402895503442778,1,j,change,0.6044816448447818,0,0.5000174791148311,0.03534052360919304,0.3532900984500884,1.0010763285645226,8.29980048152538
32,22,female,335,165,165,same,catch,clock,5,1,1,0.25985541405134427,0,j,change,0.3056968762430188,0,0.500673988224662,0.03530075461640081,0.35333948897459777,1.001078894305465,5.874731839921878
32,22,female,336,165,115,change,valid,anti,2,1,1,0.5493207680410706,0,j,change,0.467500874756297,0.2958863086520491,0.5007185679824033,0.035367784614209086,0.35327855261311925,1.0010410496179247,4.803099223317986
32,22,female,337,105,105,same,valid,anti,1,1,2,0.52274000667785,1,f,same,1.5882186922608525,0.3006373075202199,0.4997108730040054,0.03534661724734178,0.3532336521366233,1.0010939680378215,5.93313292754101
32,22,female,338,75,75,same,valid,clock,3,1,2,2.888834758870871,1,j,change,0.8111392950686422,0.29799718525318974,0.4991342225985136,0.035324487724210485,0.35331960447911115,1.0010295037827746,7.522052708669435
32,22,female,339,45,45,same,valid,anti,1,1,2,1.274483027140377,1,j,change,1.4373136429767328,0.2955053585198951,0.5003407625445107,0.03531646978444769,0.35328304266113264,1.0010763285663415,6.510804497873323
32,22,female,340,105,155,change,catch,clock,4,1,1,0.36425800198594516,0,j,change,1.1033615383166762,0,0.4998279349601944,0.03535591805848526,0.35323942505601735,1.0010442567963764,6.710715851502755
32,22,female,341,15,65,change,catch,clock,2,1,1,0.35870734093987267,0,j,change,0.6879243696384947,0,0.5000582102602493,0.03536618102589273,0.35329747495779884,1.0010490675613255,6.381134166793345
32,22,female,342,135,185,change,valid,clock,5,2,3,0.8396613606055325,1,j,change,0.4964825287424901,0.6785358730700679,0.4999334510794142,0.03535367303447856,0.3533189630434208,1.0010615755509207,5.096889134631056
32,22,female,343,15,65,change,valid,clock,5,0,1,0.24977621923244442,0,j,change,0.7751413001951732,0.2707126861642891,0.49961914774394245,0.035330581362359226,0.35329843711042486,1.0010529161736486,4.75517854834834
32,22,female,344,105,155,change,valid,clock,5,0,2,1.3382125184452889,1,j,change,0.5790625229510624,0.2763838229060631,0.4994039461744251,0.03533154351316625,0.3533180008907948,1.0010516333040869,5.756126269119704
32,22,female,345,135,135,same,catch,anti,1,2,1,0.3717727381608711,0,j,change,0.7467699719709344,0,0.49993665825604694,0.03533186423192092,0.35331543514803343,1.0010346352664783,6.450786672383401
32,22,female,346,75,75,same,valid,anti,5,0,2,0.9581062518464023,1,f,same,1.1005597485818726,0.2706836876618955,0.5006415957359422,0.035351428010471864,0.35329394706423045,1.0010384838769824,5.839795420601149
32,22,female,347,135,185,change,valid,clock,3,0,2,0.519978627371529,1,j,change,0.5207220509764738,0.2649915431162301,0.49942286851910467,0.03534148576181906,0.35324936730285117,1.0011039102864743,4.837204021670914
32,22,female,348,75,75,same,catch,anti,4,2,1,0.3146339953691495,0,j,change,2.111841955453201,0,0.500080981215433,0.035320959832461085,0.35327053467153746,1.001101344545532,7.734606432890359
32,22,female,349,15,15,same,valid,clock,3,1,1,0.2499901379305811,0,j,change,0.41371780114786816,0.2931043717444155,0.5009385803168698,0.0353020374859625,0.35332762242069293,1.0010394460314274,4.449988406055127
32,22,female,350,15,15,same,valid,clock,1,0,1,0.25936439526958566,0,j,change,0.30064012043476396,0.2593343286377071,0.49955917353508994,0.035287925909869955,0.3533256981136219,1.0010753664118965,4.35494051167916
32,22,female,351,135,85,change,valid,anti,3,0,1,0.673375653101175,0,j,change,5.695992343828038,0.26454772704411766,0.5012086246115359,0.03531037614811794,0.35331768017022114,1.001087553684556,10.197088075812644
32,22,female,352,135,185,change,valid,clock,2,2,2,0.5858319112176105,1,j,change,1.0897541281974554,0.676979925781686,0.5000912441828405,0.03535463518710458,0.3533032478753739,1.0010663863158697,5.462054767678637
32,22,female,353,135,135,same,catch,clock,4,0,1,0.23119800564927573,0,j,change,0.30080176215051324,0,0.499633259321854,0.0352930573917547,0.3533471861992439,1.00104265320806,5.897146157785755
32,22,female,354,135,185,change,valid,clock,5,0,2,0.37811845836222346,1,j,change,0.38095873421661963,0.2693264021063779,0.5001492940846219,0.03530492394565954,0.3533032478753739,1.0010352767021686,4.532393609122664
32,22,female,355,105,105,same,valid,clock,2,2,3,0.5030931617529859,1,f,same,0.6094595040995046,0.6754740830856807,0.4995816237751569,0.03529113308650267,0.3533192837603565,1.0010785735885293,4.907728879376009
32,22,female,356,15,15,same,catch,clock,5,0,1,0.13379315697602578,0,j,change,0.2541341311916767,0,0.4997724507993553,0.03527381433195842,0.3533670706965495,1.0010323902406526,5.721004474973597
32,22,female,357,105,155,change,valid,clock,1,1,1,0.1251754726654326,0,j,change,0.21374230397850624,0.297175239769063,0.5001207502100442,0.035331222798049566,0.35330292715843825,1.0009855654589046,4.190760315803345
32,22,female,358,45,45,same,catch,anti,4,1,2,0.6436441611585906,1,j,change,0.5778325706123724,0,0.49960984693098,0.03529049165081233,0.35332184950129886,1.0010448982320668,6.509732659354995
32,22,female,359,135,135,same,valid,clock,2,1,1,0.19157237299259577,0,j,change,0.3014884187232383,0.3014634876782087,0.49986770395298663,0.035316149065693025,0.35330517218062596,1.001054519761965,4.355304526256077
32,22,female,360,165,165,same,valid,clock,3,2,2,0.8018246912197355,1,f,same,0.6787669174573239,0.6740023597518501,0.49935519708560605,0.03530011318071047,0.35329747495779884,1.0010609341152303,5.261389086041163
32,22,female,361,135,85,change,valid,anti,4,1,2,0.48153323581209406,1,j,change,2.687288065741086,0.30544900298796585,0.4997676400344062,0.035362973849260015,0.3533054929011996,1.0010500297139515,6.839616460130856
32,22,female,362,75,25,change,catch,anti,3,0,1,0.34266536284303584,0,f,same,0.4476462047714449,0,0.500156029156642,0.03532801562141685,0.3533122279714007,1.0010484261256352,6.121622882821612
32,22,female,363,135,185,change,valid,clock,1,1,2,0.3146272602989484,1,j,change,0.4180651294245763,0.3032262780228579,0.50053351387578,0.035292095239128685,0.35332409452712454,1.0010567647859716,4.567940995642857
32,22,female,364,135,85,change,valid,anti,4,2,2,0.42260264329161146,1,j,change,0.41790412914451736,0.6724259305782329,0.4989623179171758,0.035275417920274776,0.3533523176829476,1.0010558026315266,4.659945920584505
32,22,female,365,45,45,same,valid,clock,4,2,2,0.678752164443722,1,f,same,0.47244666224287357,0.6708506163804631,0.4997769408455497,0.035325770595591166,0.35322627563073183,1.0011346991850587,4.9551514797749405
32,22,female,366,45,45,same,valid,clock,2,2,2,0.6339309052218596,1,f,same,0.5498300677336374,0.66924348473858,0.5003898323502654,0.03529401954438072,0.35329875782736053,1.001109041768359,4.908697446799124
32,22,female,367,75,75,same,valid,clock,4,1,2,1.0798975114539644,1,f,same,0.8543191211574594,0.3009224048304263,0.5003436490042077,0.03532705346697185,0.3532965128051728,1.0010468225373188,5.768713155550358
32,22,female,368,45,355,change,valid,anti,1,2,2,0.6049771536763728,1,j,change,0.601524948468068,0.6676628652769028,0.5000049711252359,0.035332826384546934,0.35331735945510445,1.0010439360776218,4.9907120157186
32,22,female,369,45,45,same,valid,anti,4,1,3,0.544683190255455,1,f,same,1.3978884588777873,0.2986365820161366,0.5004395435935294,0.0352728521793324,0.3533510348133859,1.0010333523950976,5.768759338898235
32,22,female,370,15,15,same,valid,anti,4,2,2,0.2647059483824705,1,j,change,0.6431085626172717,0.6661379397861938,0.5000845091108204,0.03534469294027076,0.3532798354844999,1.0010218065581284,4.75572761703188
32,22,female,371,45,45,same,valid,anti,3,2,3,0.36315665744223224,1,f,same,0.6003405380415643,0.6646522232492994,0.5000328735641233,0.03531518691124802,0.3533048514655093,1.0010333523932786,4.778797802571717
32,22,female,372,105,105,same,valid,clock,3,0,3,0.46612659946003987,1,j,change,0.7374653103724995,0.2642891597885031,0.5003632127827586,0.03532673275003617,0.3532958713694825,1.001038804595737,5.00272642107484
32,22,female,373,105,55,change,valid,anti,4,0,1,0.3282263317560137,0,j,change,0.381997218095421,0.25924707302056627,0.5005347967471607,0.03529305739357369,0.3533067757707613,1.0010586890930426,4.508666273039125
32,22,female,374,75,75,same,valid,anti,4,2,3,0.3608843726142368,1,f,same,1.1009770022956218,0.6630664022250421,0.49998861452331766,0.0353097347124276,0.35330100285136723,1.0010218065581284,5.308639461040002
32,22,female,375,165,165,same,valid,clock,4,2,3,0.46222346518152335,1,f,same,0.6957383354183548,0.6614866910521466,0.5002346049896005,0.03531294188906031,0.3533481483518699,1.0010468225373188,4.991552616784247
32,22,female,376,165,215,change,valid,clock,5,2,3,0.3396435607755848,1,j,change,0.5597665431796486,0.6598916076557861,0.49974390692477755,0.035171505387552315,0.3533176801720401,1.001056444069036,4.672475077830313
32,22,female,377,105,105,same,valid,clock,4,0,2,0.36985292207464227,1,j,change,0.7316898262251925,0.2639001927289127,0.5002342842726648,0.03532320485646778,0.35341646121923986,1.0008755592916714,4.93273876549938
32,22,female,378,135,85,change,valid,anti,5,0,2,0.42314722192713816,1,j,change,0.4668645708625263,0.2591132576114036,0.4996531438191596,0.035371953943467815,0.35334750691617955,1.0010275794757035,4.696676434658002
32,22,female,379,75,75,same,valid,clock,5,1,1,2.982160399255008,0,j,change,0.45342874470770766,0.29647413123139144,0.49976186711501214,0.03532801561959786,0.3532933056267211,1.0010821014839166,7.216841399009354
32,22,female,380,15,15,same,valid,anti,4,0,1,0.35812299330973474,0,j,change,0.3290650085127709,0.25451298067132067,0.49975609419743705,0.035325770595591166,0.3532923434740951,1.001053557609339,4.496543465105788
32,22,female,381,165,115,change,catch,anti,4,1,1,0.24544268181489315,0,j,change,0.41539739968357026,0,0.4995950939173781,0.03530813112229225,0.35330517218244495,1.0010766492832772,5.991628306157509
32,22,female,382,135,185,change,catch,clock,4,0,1,0.15288932962721447,0,j,change,1.979415697271179,0,0.500388228761949,0.03531839408969972,0.3532888155805267,1.001052595454894,7.5230331426446355
32,22,female,383,75,25,change,valid,anti,1,0,2,1.1539156262315373,1,j,change,0.970108149213047,0.2586474806824265,0.5001771965235093,0.03531165901767963,0.3533337160570227,1.0010474639730091,5.921383114276978
32,22,female,384,105,105,same,valid,anti,2,0,1,0.2216819910918275,0,j,change,0.40851383592234924,0.2542789020449236,0.4995963767887588,0.03532673275003617,0.35330196500581224,1.001053557609339,4.389969297695643
32,22,female,385,45,355,change,catch,anti,5,0,1,0.5278323621460004,0,f,same,0.6423997765250533,0,0.49943409363731917,0.03530620681704022,0.3533115865357104,1.0010477846899448,6.545108782629541
32,22,female,386,45,355,change,valid,anti,4,1,2,0.2725240834934084,1,f,same,1.3683420210418262,0.3003211733431545,0.499776620130433,0.03531743193707371,0.35332730170375726,1.0010503504327062,5.4264984010624175
32,22,female,387,105,105,same,valid,clock,5,1,2,0.4081616878975183,1,f,same,0.7116007116092078,0.29816335236822794,0.5000271006447292,0.035334109257746604,0.35327277969554416,1.001062216986611,4.920572019242172
32,22,female,388,165,165,same,valid,anti,2,0,3,0.355855839963624,1,f,same,0.6491265093372931,0.258217782051968,0.49921825063211145,0.035329939926668885,0.3533157558649691,1.0010413703366794,4.825033747520138
32,22,female,389,165,165,same,catch,clock,1,2,2,0.3672631267345423,1,j,change,0.7003444828696956,0,0.5002265870461997,0.03525200552758179,0.35335520414082566,1.001055481914591,6.368590256532116
32,22,female,390,15,65,change,catch,clock,2,0,1,1.616708365310842,0,j,change,0.6399443618956866,0,0.5002952206341433,0.03535527662461391,0.35328047692019027,1.0010561233502813,7.594382886247331
32,22,female,391,135,135,same,valid,anti,2,1,2,5.123367587051689,1,f,same,0.9192711882933509,0.29612373756947263,0.49949086066771997,0.035376123274545535,0.35326861036446644,1.0010683106229408,9.878602581713494
32,22,female,392,105,55,change,valid,anti,1,1,2,0.40167581406967656,1,j,change,0.5301687905121071,0.29416059530392574,0.49892864255889435,0.035310055429363274,0.3533292260090093,1.0010355974191043,4.695066752576167
32,22,female,393,105,155,change,valid,clock,1,2,2,0.4463633340128581,1,j,change,0.5164157745639386,0.6582661558938075,0.5000187619843928,0.035328657055288204,0.3533077379233873,1.0010538783280936,4.7431885175356
32,22,female,394,135,85,change,valid,anti,2,0,1,0.46210544107270835,0,j,change,0.3908920024878171,0.2540583732673789,0.500533513877599,0.035316149065693025,0.35331639730247844,1.0010519540210225,4.614624021049167
32,22,female,395,45,355,change,valid,anti,2,0,2,0.6661957461947168,1,j,change,0.4400923410375981,0.25782034648352503,0.5002368500136072,0.03533507141037262,0.3532721382598538,1.001056444069036,4.908765759666494
32,22,female,396,165,115,change,valid,anti,2,2,2,0.19255922132288106,1,j,change,1.3808561045570968,0.6567018266052703,0.49984717802180967,0.03531807337094506,0.3533256981136219,1.0010455396659381,5.39148276447122
32,22,female,397,45,45,same,valid,clock,5,2,3,0.80593757486713,1,f,same,1.6283597182427911,0.6551812649454397,0.49940330473873473,0.035316149065693025,0.3533189630416018,1.0010394460314274,6.192228882102427
32,22,female,398,15,325,change,valid,anti,3,1,3,0.3244941400062089,1,j,change,0.5786635501463024,0.29213843388710303,0.4995694365006784,0.03531454547737667,0.3532987578291795,1.0010586890912236,4.637678491420957
32,22,female,399,15,65,change,valid,clock,3,1,3,0.4814267575402482,1,j,change,0.5296107417343592,0.2901136418902216,0.4997413411838352,0.03527798366121715,0.3533433375869208,1.0010288623470842,4.778816083478887
32,22,female,400,105,105,same,valid,clock,3,1,2,0.6383927297156333,1,f,same,2.244098874696647,0.28813232626391955,0.5000601345673203,0.03530909327673726,0.35326187529426534,1.0010824222008523,6.6757678863450565
32,22,female,401,105,155,change,valid,clock,4,1,1,0.5079026442199392,0,j,change,1.5109590837982978,0.2862563001263057,0.5112169408221234,0.03534180648057372,0.35329971998180554,1.001060292681359,5.8150270348978665
32,22,female,402,165,165,same,valid,anti,3,2,2,0.4453075313813315,1,j,change,0.8143313982291147,0.6536884974171369,0.49996873002601205,0.03531326260599599,0.3533292260090093,1.0010702349300118,4.9907466532295075
32,22,female,403,105,155,change,valid,clock,3,0,1,0.431884213217927,0,j,change,0.6188988671292464,0.2538506634187246,0.4997166459215805,0.03533603356299864,0.35333082959732565,1.0010708763638831,4.82612771555614
32,22,female,404,165,165,same,catch,clock,2,1,2,0.5028712251132674,1,f,same,1.214026459851084,0,0.4997759786929237,0.0353097347124276,0.3533167180175951,1.0010509918665775,7.157685662668882
32,22,female,405,105,55,change,valid,anti,4,1,2,0.397557157504707,1,j,change,0.47982605555262126,0.2896129970975315,0.5004443543584784,0.035358163084310945,0.3532987578291795,1.0010323902424716,4.696979833592195
32,22,female,406,105,105,same,valid,clock,5,2,3,0.5696494587718917,1,f,same,0.5732398933032528,0.6520807000806015,0.49941228483294253,0.03536201169481501,0.3532737418481702,1.0010525954567129,4.978946487291978
32,22,female,407,75,75,same,valid,clock,1,0,2,0.5892119549444033,1,f,same,1.2360450120868336,0.25745182789875815,0.49951331090778694,0.035325129161719815,0.35331319012402673,1.0010689520586311,5.6264748603844055
32,22,female,408,165,115,change,valid,anti,4,0,3,2.1794649595085502,1,j,change,0.554139872039741,0.25365497167909223,0.500082905522504,0.03534405150458042,0.3532759868721769,1.001091402296879,6.427713600385687
32,22,female,409,105,105,same,valid,clock,1,0,1,1.0170422965693433,0,f,same,3.0080875379699137,0.24979790875403524,0.5003109357985522,0.0353097347124276,0.353310945101839,1.00103591813604,7.829772030658205
32,22,female,410,15,65,change,valid,clock,1,1,1,0.6093972848684643,0,j,change,0.7877920094470028,0.2877391719892304,0.49968906420144776,0.03533667499686999,0.35330164428705757,1.001041691053615,5.132502268275857
32,22,female,411,135,85,change,valid,anti,1,2,2,0.3685395831380447,1,j,change,0.75199574600083,0.6504656064878124,0.4997099108513794,0.035301075335155474,0.3533260188323766,1.001053557609339,4.931776933150104
32,22,female,412,15,15,same,catch,anti,4,1,2,0.3190185268995265,1,j,change,0.44150253671614337,0,0.4998048432862561,0.03533186423192092,0.35324808443510847,1.0010949301904475,6.074412276815565
32,22,female,413,135,185,change,valid,clock,4,2,1,0.32226739709039975,0,j,change,0.4975479529075528,0.6487972929788988,0.5003173501536367,0.03532480844296515,0.3533067757707613,1.0010849879436137,4.6030207757721655
32,22,female,414,135,135,same,valid,clock,3,2,2,1.0115233865744813,1,f,same,1.6660565547153965,0.6545973239023133,0.49906141968131124,0.03531518691124802,0.35334750691799854,1.0010654241632437,6.486072353269265
32,22,female,415,45,45,same,valid,anti,2,1,2,0.4018746590372757,1,f,same,0.8015091050147021,0.29102353787972784,0.4992689240280015,0.035320318396770745,0.35329426777934714,1.0010599719626043,4.908156396057166
32,22,female,416,15,65,change,valid,clock,2,0,2,0.3233302555127011,1,j,change,0.6847123819807166,0.253358430796316,0.49971504233326414,0.03534212719932839,0.3533202459129825,1.0010548404807196,4.802673951660836
32,22,female,417,45,45,same,valid,anti,5,2,2,0.49625481918337755,1,f,same,0.7430781906514312,0.6531243167555841,0.49975513204481103,0.03535912523693696,0.3533202459129825,1.0010606133982947,5.0377593764224
32,22,female,418,45,95,change,valid,clock,4,0,2,0.3163456656766357,1,j,change,0.5886744320960133,0.24964735510390254,0.5001662921204115,0.0353453343759611,0.35331607658372377,1.0010429739249957,4.731654867997349
32,22,female,419,105,105,same,valid,anti,2,2,2,0.3046231134194386,1,f,same,0.7312433872029942,0.6516554919276605,0.500455579476693,0.03533731643437932,0.3532936263454758,1.0010394460296084,4.908658319240203
32,22,female,420,15,65,change,valid,clock,5,2,2,0.44333672118045797,1,j,change,3.0102042747184896,0.6501758088381029,0.5005171572738618,0.035314224758622004,0.35329298490978545,1.0010541990450292,7.264792862877584
32,22,female,421,15,15,same,catch,clock,3,2,1,0.41254654014483094,0,f,same,0.4391523174890608,0,0.4998032396979397,0.035316149065693025,0.35332858457331895,1.0010346352646593,6.1917218274356856
32,22,female,422,15,15,same,catch,anti,2,1,1,0.3240842627983511,0,f,same,0.5300122802800615,0,0.5005232509083726,0.035323846290339134,0.35325514022406423,1.0010949301904475,6.192802325331286
32,22,female,423,15,15,same,valid,anti,5,1,1,0.2829034700698685,0,f,same,0.3809924095749011,0.28915726436974304,0.5000899613132788,0.03534501365720644,0.35337091930887254,1.0009454757491767,4.4607035840526805
32,22,female,424,15,65,change,valid,clock,4,2,1,0.2482595452802343,0,j,change,0.5700721646862803,0.6486518863026676,0.49969676142609387,0.03531294188724132,0.3532833633798873,1.0010776114359032,4.637864507680206
32,22,female,425,165,165,same,catch,clock,1,1,1,0.338762549283274,0,j,change,0.6739070823132352,0,0.49899086179175356,0.035319676961080404,0.3533138315597171,1.0010532368924032,6.321093570348239
32,22,female,426,165,165,same,valid,clock,2,1,1,0.3682211104714952,0,j,change,1.2244632548936352,0.29231839767513257,0.5000562859549973,0.03534950370521983,0.35331960447729216,1.0010500297139515,5.462011791507393
32,22,female,427,75,75,same,valid,clock,2,1,1,0.9262766247793479,0,j,change,0.5108490776310646,0.2952527076939432,0.4997586599383794,0.0353331471033016,0.3533048514655093,1.0010532368924032,5.261262081836321
32,22,female,428,15,15,same,catch,clock,5,2,1,0.31319333151077444,0,j,change,0.8847484947909834,0,0.4998644967763539,0.03531165901767963,0.3533013235701219,1.0010429739249957,6.534046908811433
32,22,female,429,15,325,change,valid,anti,3,2,2,0.40689773948543007,1,j,change,0.5080886604810075,0.65397173943327,0.4999449969163834,0.035338278587005334,0.3532868912734557,1.001080818614355,4.778977725194636
32,22,female,430,45,355,change,catch,anti,2,2,1,0.2609397605592676,0,j,change,0.2346720196583192,0,0.5000142719363794,0.035291453803438344,0.3533135108427814,1.0010811393312906,5.827667801901043
32,22,female,431,105,55,change,valid,anti,3,1,1,0.2205306145879149,0,f,same,0.41865653284367,0.29832660013721446,0.4992541710125806,0.03531390404168633,0.3533228116539249,1.0010538783262746,4.413284832266072
32,22,female,432,105,55,change,valid,anti,5,1,1,0.3280791223369306,0,j,change,0.5480032597752142,0.3014116157747147,0.49987957050689147,0.03530845184104692,0.35330966223045834,1.0010112228756043,4.63761402716591
32,22,female,433,165,165,same,valid,clock,1,1,1,0.20540268190598,0,j,change,0.31756439289529226,0.30429472875014274,0.4994616753592709,0.03530620681704022,0.3533112658187747,1.0010256551704515,4.248084112703509
32,22,female,434,105,55,change,valid,anti,5,0,2,0.6217105991108838,1,j,change,1.6574593963396183,0.24604343801799686,0.5003099736459262,0.03528824662680563,0.3533103036643297,1.0010721592352638,6.003521159511365
32,22,female,435,15,15,same,valid,anti,2,0,2,0.8926939548236987,1,f,same,1.1033281836771494,0.242581365766538,0.5005094600492157,0.03531711121831904,0.35329843711042486,1.0010782528697746,5.768548948093667
32,22,female,436,45,45,same,catch,clock,3,1,2,0.9890186263219221,1,j,change,0.5876218366411194,0,0.500107280066004,0.03532961920791422,0.3533266602662479,1.0010481054086995,7.134519261822788
32,22,female,437,15,325,change,valid,anti,5,0,2,0.9952290036544582,1,j,change,0.6169001544894854,0.2390113271569449,0.5003436490042077,0.03533186423192092,0.3532833633798873,1.0010628584204824,5.438878745300826
32,22,female,438,15,325,change,valid,anti,5,1,2,1.3054945033800323,1,j,change,0.4899129475979862,0.30704862789524023,0.49941645416402025,0.03531711122013803,0.35332056663173717,1.0010275794757035,5.591083021943632
32,22,female,439,105,105,same,valid,anti,4,1,3,1.8113387814719317,1,j,change,0.42989736713207094,0.30544359147281924,0.4999482040930161,0.03535976667080831,0.3532676482118404,1.0010497089970158,6.015627290125849
32,22,female,440,45,355,change,valid,anti,2,2,2,0.6425566074740345,1,j,change,0.8787273408943292,0.6526174225688972,0.4998869470146019,0.03536040810649865,0.3532933056285401,1.001009619285469,5.450558642105534
32,22,female,441,15,325,change,valid,anti,4,2,2,1.1869168350167456,1,j,change,0.5054404945221904,0.6512618709159561,0.49982312419342634,0.035333467820237274,0.35329266419284977,1.0011003823929059,5.485826683518098
32,22,female,442,135,85,change,catch,anti,5,0,2,0.3032709676408558,1,j,change,0.7651926374765026,0,0.499659558172425,0.03531999767801608,0.3533346782096487,1.0010497089970158,6.43961960316301
32,22,female,443,105,105,same,valid,anti,1,2,2,4.263151750459656,1,f,same,1.088589922987012,0.6498883246525111,0.5000283835142909,0.035371312509596464,0.35330100285136723,1.0010596512456686,9.266173231810171
32,22,female,444,75,75,same,valid,anti,1,0,1,0.5220443700109172,0,f,same,0.6525180988992361,0.23556019209235082,0.49957681301020784,0.03535527662461391,0.35327053467153746,1.0010792150242196,4.943184219919203
32,22,female,445,75,75,same,valid,anti,2,2,2,0.8101046598039829,1,f,same,0.637331795598584,0.6484902004731166,0.49979618390716496,0.035269324283945025,0.35335969419065805,1.000994866271867,5.226074540563786
32,22,female,446,105,55,change,valid,anti,1,2,2,0.4240968670055736,1,j,change,0.6795703152693022,0.6471445437615935,0.5003609677587519,0.035320959832461085,0.35329971998180554,1.0010580476573523,4.932696110046891
32,22,female,447,165,215,change,valid,clock,5,1,2,0.3406355405877548,1,j,change,0.609092282345955,0.30388211026886275,0.4997519248681783,0.03535239016309788,0.3533112658187747,1.001053557609339,4.81463126926792
32,22,female,448,75,125,change,valid,clock,3,0,2,0.2789410030181898,1,j,change,0.83797438556212,0.23890239161739055,0.4995014443520631,0.03534469294027076,0.3533112658169557,1.001054519761965,4.931631968753209
32,22,female,449,135,85,change,valid,anti,5,1,3,0.2814053977435833,1,j,change,0.6343866450588393,0.30226225096815507,0.49972626745147863,0.035343730785825755,0.3532676482118404,1.001065103446308,4.684344839508412
32,22,female,450,75,125,change,valid,clock,5,2,2,0.22913322516433254,1,j,change,0.5513717576650379,0.6458383624641407,0.5001364653762721,0.035321601266332436,0.3532904191688431,1.0010753664118965,4.614545765934963
32,22,female,451,165,165,same,catch,anti,5,0,1,0.10698693107406143,0,j,change,0.2652588656783337,0,0.5036573041688825,0.03536457743757637,0.3533058136181353,1.0010253344516968,5.6774455605773255
32,22,female,452,135,85,change,catch,anti,3,1,1,0.2675760509846441,0,j,change,0.6468073997257306,0,0.5005572469854087,0.03527862509690749,0.3533282638563833,1.0010766492832772,6.157873923952138
32,22,female,453,75,25,change,catch,anti,5,1,1,0.37544367283226165,0,j,change,0.2630135211365996,0,0.4993067687155417,0.035348541552593815,0.3533436583056755,1.0010282209132129,5.99139289937375
32,22,female,454,15,15,same,valid,clock,4,0,1,0.2966067747765919,0,j,change,0.26907123684941325,0.23558120940116178,0.49979842893299065,0.03534148576181906,0.35326636534227873,1.0010686313398764,4.40236054633715
32,22,female,455,15,15,same,valid,anti,1,0,2,0.498622677883759,1,j,change,0.8545134760752262,0.23879786902311717,0.4994013804334827,0.035361049542188994,0.3532779111774289,1.0010561233502813,5.120395175508747
32,22,female,456,135,85,change,valid,anti,1,1,2,0.20945334632051527,1,j,change,0.5395898726328596,0.3006353118799973,0.49908034202599083,0.03530845184104692,0.3533035685941286,1.0010577269385976,4.507115603011698
32,22,female,457,165,165,same,valid,anti,2,1,2,0.33968717837888107,1,f,same,0.8368647023562517,0.299006539023252,0.5002140790584235,0.03534822083565814,0.35329426777934714,1.0010429739249957,4.979759185916919
32,22,female,458,165,165,same,catch,anti,2,0,2,0.2097246734847431,1,j,change,0.7864459573047498,0,0.49964159798219043,0.03531582834875735,0.3533189630434208,1.0010410496179247,6.344570105198727
32,22,female,459,105,105,same,valid,anti,5,0,2,0.30497558215756726,1,f,same,0.9477765765113872,0.23559729203447852,0.5004507687117439,0.03530909327673726,0.35327374184998916,1.0010840257891687,5.085612700677302
32,22,female,460,15,65,change,catch,clock,1,1,1,0.2963450691422622,0,j,change,0.23794879228989885,0,0.49943858368533256,0.035348541552593815,0.353285608403894,1.0010734421066445,5.850040426463238
32,22,female,461,15,325,change,valid,anti,3,0,2,0.8007342510791204,1,j,change,0.5145979467015422,0.23249596397158212,0.499845895150429,0.03532288413589413,0.35329971998180554,1.0010509918665775,5.203286586591275
32,22,female,462,135,185,change,valid,clock,4,0,2,0.43597111873168615,1,j,change,0.5072535116178187,0.229280061456627,0.4990248578669707,0.035361049542188994,0.35320254252292216,1.0011555458349903,4.743150993566815
32,22,female,463,165,215,change,valid,clock,1,1,2,0.3383305425541039,1,j,change,0.7153960847426788,0.2974608733873035,0.49978303448369843,0.035353993753233226,0.3532881741448364,1.0010577269385976,4.861786711831883
32,22,female,464,45,355,change,valid,anti,5,1,2,0.3035775737516815,1,j,change,0.5208490551813156,0.2959829241651414,0.4990617404000659,0.03530332035916217,0.35325193304561253,1.0010942887565761,4.589164488726965
32,22,female,465,135,185,change,catch,clock,5,1,2,0.487304871348897,1,f,same,1.0434213265070866,0,0.5001666128409852,0.03529401954438072,0.353356807730961,1.0010432946419314,6.804435653928522
32,22,female,466,75,25,change,valid,anti,2,0,1,0.5182496383094986,0,j,change,0.28760038062864623,0.22615198344028084,0.5004219041202305,0.03528985021512199,0.35333628179796506,1.0010465018203831,4.567553247956312
32,22,female,467,105,155,change,valid,clock,5,1,1,0.6877425227066851,0,j,change,0.512812190609111,0.29454993054723666,0.499423509952976,0.035328657055288204,0.35329073988577875,1.001020202969812,4.9671472835052555
32,22,female,468,135,85,change,catch,anti,5,1,1,0.4955181306522718,0,j,change,0.6813794837544265,0,0.49970926941387006,0.035340202892257366,0.3532923434740951,1.001077932154658,6.792678464158598
32,22,female,469,15,325,change,valid,anti,1,1,1,0.1377966758900584,0,j,change,0.22719961821712786,0.29697014936671406,0.5003616091944423,0.035348541552593815,0.3532634788825817,1.0010384838769824,4.131968594041609
32,22,female,470,45,355,change,catch,anti,1,2,2,0.623070121395358,1,f,same,1.623657355483374,0,0.499164049342653,0.03537516112010053,0.3533144729954074,1.0010266173230775,7.5102063593840285
32,22,female,471,105,155,change,valid,clock,4,0,1,0.3252962549486256,0,j,change,0.118933344281686,0.2291681570041808,0.5006258805715333,0.03529818887363945,0.3533661085421045,1.0010012806251325,4.178922625895211
32,22,female,472,75,125,change,valid,clock,5,0,2,0.348995688591458,1,j,change,1.525902283094183,0.23208412795267785,0.499633259321854,0.03534084432794771,0.3532708553902921,1.0010795357411553,5.650156013120068
32,22,female,473,135,135,same,valid,anti,4,1,2,0.41602183702707407,1,f,same,0.37995520856748044,0.2995979791400383,0.49950465152869583,0.035333467820237274,0.3532477637145348,1.0010785735903482,4.5781045392141095
32,22,female,474,45,45,same,valid,anti,4,0,2,0.3436980738024431,1,f,same,0.5064453030408913,0.22906103493577107,0.49975513204481103,0.035329298490978545,0.3533192837603565,1.0010772907189676,4.649211820242272
32,22,female,475,165,215,change,valid,clock,1,0,1,0.7674322090988426,0,j,change,0.840922101842807,0.22613836136737242,0.5000851505465107,0.03532897777404287,0.35329522993379214,1.0010262966061418,5.3916290117376775
32,22,female,476,15,15,same,valid,anti,2,1,2,0.45305125998856965,1,j,change,0.7639139360508125,0.29811500292781246,0.49982953854851075,0.03531646978444769,0.35328175979157095,1.0010792150242196,5.014540057160048
32,22,female,477,135,135,same,valid,anti,5,0,2,0.4408315953096462,1,f,same,0.5521097290675243,0.22895846731208272,0.49994114830406033,0.035352069446162204,0.3533067757707613,1.001038804595737,4.790770514626274
32,22,female,478,45,355,change,valid,anti,5,0,2,0.4505820544982271,1,j,change,1.3249582185035251,0.22612890514532386,0.5000309492570523,0.03535527662461391,0.3532577059631876,1.0010724799521995,5.603692358612534
32,22,female,479,165,115,change,valid,anti,2,0,1,0.7972554263033089,0,j,change,0.42121201138979814,0.22339672442799352,0.4999581463416689,0.035311979736434296,0.35331832160773047,1.0010654241632437,4.990776479975466
32,22,female,480,15,325,change,catch,anti,2,1,2,0.4111328165708983,1,j,change,0.602015646532891,0,0.5001771965235093,0.03536072882525332,0.3532958713694825,1.001037842443111,6.286659715644419
