subject,age,gender,ntrial,memory_ori,test_ori,type,trial_type,which_change,trial,quest,pas,pas_rt,vis,test_key,test,test_rt,contrast,fix_dur,target_dur,mask_dur,retention_dur,trial_dur
33,24,female,1,135,135,same,valid,clock,2,2,1,0.7669499271644327,0,j,change,0.8440168596441708,0.2,0.5120138756592496,0.03533283429214862,0.35331070328265923,1.001091091726721,5.332400356897779
33,24,female,2,105,105,same,valid,anti,5,0,2,2.157436967162539,1,f,same,1.707551817235526,0.2,0.49985631713889234,0.03532674059920282,0.35328119698101546,1.001048115156891,7.547161654123329
33,24,female,3,45,45,same,valid,clock,2,2,1,0.292710532274441,0,j,change,1.0703305154813734,0.3670372117912738,0.4989413010612225,0.03529787573870635,0.3533337951712383,1.001067037676421,5.037157093475116
33,24,female,4,75,75,same,valid,clock,2,0,1,0.3345058881106979,0,j,change,1.2958125426157494,0.0723357464867447,0.5000602954864917,0.03532513699565243,0.3533312294057396,1.0010400971400486,5.332809596475727
33,24,female,5,15,65,change,catch,clock,5,2,1,0.2396482592243956,0,j,change,1.8817297620446425,0,0.4999509297372242,0.03533892798463967,0.3533591321042877,1.0010356070504258,7.310910468258726
33,24,female,6,45,355,change,valid,anti,4,2,2,1.3673470435005584,1,j,change,1.3052096583105595,0.4895303947352734,0.500635668372297,0.035275425291729334,0.35333860598120737,1.0010773007377338,6.393031317090845
33,24,female,7,165,115,change,valid,anti,5,1,1,0.2345369338720502,0,j,change,1.2070447578528274,0.2,0.4996917874341307,0.03532770276115116,0.3532866492323592,1.0010737728105141,5.120208352977443
33,24,female,8,165,215,change,valid,clock,2,0,1,0.13834799347523585,0,j,change,1.2789808010190882,0.15406686854268764,0.49970333337819284,0.03534117302956474,0.3532702924781006,1.0010798665032326,5.0962825908329705
33,24,female,9,45,45,same,catch,anti,2,1,1,0.26207048285778,0,j,change,0.9045339639983467,0,0.5006276503554545,0.03528953700129023,0.35334694471885086,1.0010612647042763,6.416908008972541
33,24,female,10,45,355,change,valid,anti,5,2,1,0.20267333509082164,0,j,change,0.546515081248117,0.45516976949469906,0.5002177693365866,0.035317439699610986,0.35332353210947076,1.0010798665032326,4.426011023811043
33,24,female,11,15,65,change,valid,clock,4,1,2,0.40254004357939266,1,j,change,1.5915054564206912,0.33948538693435915,0.49995638198879533,0.035359133386918984,0.3533113447242613,1.0010234196652164,5.697691580889568
33,24,female,12,75,75,same,valid,clock,4,1,1,1.081180816541746,0,j,change,2.0588201712776026,0.277883819201003,0.4996385478020784,0.03534887032583356,0.35330717535543954,1.0010298340780537,6.839445307182814
33,24,female,13,75,25,change,valid,anti,1,0,1,0.22872419240911768,0,f,same,1.7594947751395011,0.21311075128297638,0.5003229657172596,0.035304931593600486,0.3533283429196672,1.0010461908323123,5.744693516118332
33,24,female,14,105,105,same,valid,clock,3,2,1,0.37715917174500646,0,f,same,2.8248242931795176,0.5317475100709874,0.5005833909026478,0.035285688353269506,0.353319042019848,1.0010994304643646,6.934855537787371
33,24,female,15,105,105,same,valid,anti,1,2,2,0.2951521787517777,1,f,same,1.417139248577314,0.5965457343825109,0.4996959568029524,0.03533732438154402,0.3532625951816044,1.0010798665030052,5.532361677985136
33,24,female,16,165,165,same,valid,clock,5,2,3,0.9626504741213466,1,f,same,0.8515169125630564,0.5780348544544248,0.5002347675322198,0.03534021086716166,0.3532927429250776,1.001042342184519,5.532747825674505
33,24,female,17,105,105,same,valid,clock,2,1,3,0.32010264344353345,1,f,same,1.045958630882069,0.3477553019009776,0.4999409873962577,0.03533187212997291,0.35329851589676764,1.0010522845254854,5.097337761844301
33,24,female,18,165,165,same,valid,clock,1,0,4,1.466652747389162,1,j,change,0.8048177376490457,0.26426607632977905,0.49973700904865836,0.035341493749911024,0.35330974112093827,1.001023098944188,6.0158073597694965
33,24,female,19,45,45,same,catch,anti,5,1,2,0.6283171337322528,1,f,same,1.275047161974726,0,0.499508976650759,0.03536201987299137,0.3533184005787007,1.0010612647042763,7.2045906032690255
33,24,female,20,105,155,change,valid,clock,5,2,2,0.9453238605278784,1,f,same,1.1121383794238682,0.5630351131403806,0.5003361152644175,0.035364264917461696,0.3533046095899408,1.0010298340780537,5.768969825957811
33,24,female,21,165,165,same,valid,clock,4,2,2,0.531894387965167,1,f,same,1.1614180728665815,0.5499424784330216,0.4992806235327407,0.0353270613195491,0.35331904202030273,1.0010776214585348,5.402210022007694
33,24,female,22,15,325,change,catch,anti,1,0,1,0.37774224192753536,0,j,change,1.2974517459711024,0,0.5001369477272419,0.035306214475895104,0.35333315372963625,1.0010016106593866,6.863520204440192
33,24,female,23,135,135,same,valid,anti,5,2,3,0.3222056088911813,1,f,same,1.0065324386509928,0.5388260803161338,0.5006282917966018,0.035286329794416815,0.35332866364024085,1.001087243078473,5.015055269793265
33,24,female,24,105,155,change,valid,clock,5,1,2,0.9644712053773219,1,f,same,0.7335933736544575,0.31335834852229294,0.49979538021125336,0.03532032618568337,0.3533055717521165,1.0010628683075993,5.344250985735016
33,24,female,25,165,215,change,catch,clock,2,1,2,0.28577206125237353,1,f,same,0.9080901148113298,0,0.500003207206646,0.03533668294039671,0.35325746365151645,1.0011029583915843,6.356820991039967
33,24,female,26,135,135,same,valid,anti,5,0,2,0.7259483549919423,1,f,same,1.0968027997632817,0.2177820111252288,0.5008313079824802,0.03532096762728543,0.353294025807827,1.0010558124527051,5.4391127839903675
33,24,female,27,45,45,same,valid,anti,1,0,3,0.41593077308425563,1,f,same,1.0048848965579964,0.18486159551776588,0.49967222347322604,0.035252974844752316,0.3533219285063751,1.001089488123398,5.049994900541606
33,24,female,28,15,15,same,valid,anti,5,0,3,0.3804718955680073,1,f,same,0.6765605786827109,0.15850990239866825,0.4994210991867476,0.035328344202753215,0.3533103825620856,1.001064792631496,4.649464813414397
33,24,female,29,165,215,change,valid,clock,3,1,3,0.2646577365203484,1,f,same,0.5571521030615258,0.2866257759838685,0.49965490455679173,0.03529659285595699,0.35327798977414204,1.001088846681796,4.448791492435248
33,24,female,30,165,215,change,valid,clock,1,0,3,0.2552509992051455,1,j,change,1.393141965722407,0.13720557466136166,0.500285120677745,0.03531327033078924,0.35329595013172366,1.000999044893888,5.28580252971642
33,24,female,31,165,215,change,valid,clock,5,2,3,0.44175808809450245,1,j,change,1.7270224485228027,0.5290210293689517,0.4994457946786497,0.035351756811451196,0.3533382852606337,1.0010542088493821,5.8032420369868305
33,24,female,32,105,155,change,catch,clock,4,0,3,0.32846864217754046,1,f,same,2.4789004284189105,0,0.5000073765754678,0.03529659285595699,0.3533277014785199,1.0010529259666328,7.970850660267843
33,24,female,33,15,15,same,valid,anti,3,0,3,0.3123193941714817,1,f,same,0.8664310652607128,0.11902851889602863,0.4997912108424316,0.035305893755776196,0.3532959501321784,1.0010840358722817,4.849559554300868
33,24,female,34,75,125,change,valid,clock,5,0,3,0.5075885718242716,1,j,change,1.2667132353080888,0.10294738435941947,0.49943938026490287,0.03531776042018464,0.3532831213051395,1.0010035349832833,5.403167693934847
33,24,female,35,45,95,change,valid,clock,5,0,3,0.3078344362916141,1,j,change,1.4601693790013996,0.08825443627303954,0.4991504109393645,0.0352937063698846,0.35333058796459227,1.0010619061458783,5.414291249007874
33,24,female,36,15,15,same,valid,clock,5,0,3,0.4428501419833992,1,f,same,1.3762258745891813,0.07497717738789486,0.49984861984239615,0.035328344202753215,0.35333988886395673,1.0010304755196557,5.47367524722722
33,24,female,37,15,15,same,catch,anti,2,1,3,0.2677998369458692,1,f,same,1.0260701005590818,0,0.5001128936764871,0.03536779284513614,0.35334213390842706,1.0010609439832479,6.4747884686803445
33,24,female,38,165,165,same,valid,clock,2,2,3,0.2782870822052246,1,f,same,0.6795124917493922,0.5201396311879471,0.5008306665408782,0.03529081988381222,0.3533517555288199,1.0010644719109223,4.674060240322433
33,24,female,39,105,55,change,valid,anti,1,0,1,0.39682480120109176,0,j,change,1.6362245019049624,0.062296259146397415,0.49938806495765675,0.03531519465514066,0.35333796454006006,1.0010333620057281,5.720269354049378
33,24,female,40,165,165,same,valid,clock,3,1,3,0.3295805807479155,1,f,same,1.0296685865005202,0.2656207977754808,0.500309174728045,0.03531391177239129,0.3532722168019973,1.0010866016373257,5.014567774371699
33,24,female,41,135,85,change,catch,anti,2,2,1,0.4027639066084703,0,j,change,1.5144779725837907,0,0.5004368215554678,0.03528825411831349,0.3533527176905409,1.0010465115533407,7.110826311154142
33,24,female,42,15,15,same,valid,anti,2,2,3,0.24264892183327902,1,f,same,0.9146164597696043,0.5119246477799115,0.5008765295970079,0.035319043302934006,0.3533392474223547,1.00107184848639,4.814986507281446
33,24,female,43,75,75,same,valid,anti,1,0,1,0.17978061423127656,0,j,change,1.1749528059531258,0.07338285680511636,0.4996642054561562,0.03530429015199843,0.35336330147310946,1.0010327205645808,5.0020452357262
33,24,female,44,15,325,change,catch,anti,3,1,1,0.3790193516438194,0,f,same,0.7579200366390069,0,0.5000365621563105,0.035290499163238565,0.3533418131878534,1.00105356740778,6.322283544014681
33,24,female,45,45,95,change,valid,clock,3,1,3,0.3448497712297467,1,j,change,1.3255988336027258,0.2478679983777565,0.500041693687308,0.03538767752706917,0.3533046095899408,1.0010362484918005,5.3801242343593
33,24,female,46,105,105,same,catch,clock,4,2,2,0.45231332613639097,1,j,change,1.831550767837598,0,0.49968376941706083,0.035345021677585464,0.3533039681487935,1.0010705656036407,7.451740839736431
33,24,female,47,75,25,change,catch,anti,3,0,2,0.7214220241453404,1,f,same,1.7485434470672772,0,0.5001828107829169,0.03531615681686162,0.353337323098458,1.0010580574971755,7.65253667601246
33,24,female,48,75,75,same,valid,clock,2,1,2,0.22561320188924583,1,f,same,1.3061147320477176,0.23213282335943722,0.5007870485296735,0.035322571230608446,0.35326548166813154,1.0010994304639098,5.216033275411519
33,24,female,49,45,355,change,valid,anti,3,0,1,0.12165063384009045,0,j,change,1.0272102625481239,0.08356785538881978,0.49907151365414393,0.03533475861604529,0.35330621319326383,1.0010612647038215,4.790156312841191
33,24,female,50,45,45,same,valid,anti,2,0,2,0.3828044970168776,1,f,same,1.2467762761639278,0.09324518623451696,0.4991593911181553,0.03533155140939925,0.35332128706477306,1.0010400971395939,5.273081785695922
33,24,female,51,75,25,change,valid,anti,2,0,2,0.29198345851045815,1,f,same,1.2977756738505377,0.08314018279182096,0.5084634978179565,0.03531872258236035,0.3533232113891245,1.0010625475870256,5.3056997194980795
33,24,female,52,165,115,change,valid,anti,4,2,3,0.3877573863574071,1,f,same,1.1991778004849039,0.5041874163464981,0.4997745333671446,0.035310704565745255,0.3533020438244421,1.0010798665030052,5.261402100976738
33,24,female,53,165,165,same,catch,clock,3,1,1,0.5223414020242672,0,j,change,1.1909420143438183,0,0.49984990272560026,0.03529498925263397,0.35335303841111454,1.0010500394805604,6.887259948594874
33,24,female,54,165,165,same,valid,anti,1,2,2,0.3691908666451127,1,f,same,1.3103052683504757,0.4968096166622741,0.5002270702357237,0.035317439699610986,0.3532821591429638,1.0011154664980495,5.3451422684829595
33,24,female,55,45,45,same,valid,anti,1,1,2,0.7075085199448949,1,j,change,2.97181891597711,0.21764760448508175,0.49900480375390543,0.03532866492332687,0.35331455193090733,1.0010622268659972,7.369307929690422
33,24,female,56,75,75,same,catch,clock,5,2,1,0.2788794532866632,0,f,same,1.283464476015979,0,0.49931269559965585,0.035305573034747795,0.35332641859531577,1.0010513223633097,6.74523777909917
33,24,female,57,165,165,same,catch,anti,1,2,1,0.2354391211224538,0,f,same,1.294449479758896,0,0.5002844792361429,0.03532032618568337,0.3533135897687316,1.001003214262255,6.722039411439255
33,24,female,58,105,155,change,valid,clock,3,2,2,0.8665516562336961,1,j,change,2.051191509369346,0.4902473265035139,0.5006205945005604,0.03531615681731637,0.35333636093673704,1.0010522845250307,6.663811290522062
33,24,female,59,15,325,change,catch,anti,2,2,1,0.9806230191493341,0,j,change,1.5038864931057105,0,0.49975176219959394,0.03534790816365785,0.3532808762602144,1.0010696034419198,7.687254047334591
33,24,female,60,105,155,change,catch,clock,5,1,1,0.20041578227937862,0,j,change,1.8594977257698702,0,0.5002944215771095,0.03534983248755452,0.35330493031051446,1.001046190832767,7.21751821212365
33,24,female,61,165,165,same,valid,anti,4,2,2,0.4022972580305577,1,f,same,1.2012114902672693,0.483818235119979,0.49967350635552066,0.03531615681686162,0.35334502039449944,1.0010583782182039,5.249608239698773
33,24,female,62,165,165,same,valid,clock,3,0,1,0.22581974600188914,0,j,change,1.1552778755972213,0.07372698979024175,0.49982905588194626,0.0353354000571926,0.35329434652840064,1.001059981821527,5.026224687922877
33,24,female,63,165,215,change,catch,clock,1,0,1,0.13966006174496215,0,j,change,1.0291634514419457,0,0.4994829982765623,0.035315515375259565,0.35328183842239014,1.0010628683075993,6.368227742466388
33,24,female,64,75,125,change,valid,clock,4,0,2,0.2561775612271049,1,j,change,1.313837365112704,0.08184677535776207,0.500508662986249,0.03533347573329593,0.3533001195005454,1.001052605246059,5.2629361079521
33,24,female,65,135,135,same,valid,clock,5,0,1,0.2912195018698185,0,j,change,1.5582816812693636,0.07332511819232043,0.49961321086948374,0.03532545771668083,0.35329691229389937,1.0010644719109223,5.532775728372599
33,24,female,66,75,125,change,valid,clock,1,0,1,0.17190595956753896,0,j,change,1.1852726350216471,0.08074057125301859,0.499688259506911,0.035360736990242,0.3533058924726902,1.0010529259670875,5.014748981551747
33,24,female,67,15,325,change,valid,anti,5,1,1,0.7712135877800392,0,j,change,1.5794633573427745,0.20462369645871445,0.4995837045676126,0.03530653519646876,0.35331391048930527,1.0010833944306796,6.003687004847507
33,24,female,68,15,15,same,catch,clock,5,0,1,0.8084896686250431,0,f,same,1.295498236356707,0,0.49994066667568404,0.03533604149833991,0.3533113447242613,1.0010593403803796,7.3348878664314725
33,24,female,69,105,155,change,valid,clock,1,1,1,0.9240591177999704,0,f,same,1.651297090614662,0.22470478822696585,0.5002771026606752,0.03537388653830931,0.3532876113945349,1.0010920538888968,6.287230378148706
33,24,female,70,75,75,same,valid,clock,4,0,1,0.17334150529586623,0,j,change,1.233875928566249,0.08810014814111682,0.49924855146537084,0.0353562469008466,0.3533520762493936,1.0010631890286277,5.07231866292841
33,24,female,71,75,75,same,catch,clock,2,1,1,0.25624908193731244,0,j,change,1.0638503543000297,0,0.4999557405471933,0.03529819645928001,0.3532895357184316,1.0010679998385967,6.487202924459325
33,24,female,72,105,105,same,valid,clock,1,2,2,0.6766635300186863,1,f,same,1.323760783430771,0.4774840962171139,0.4998919171334819,0.03532609915782814,0.35332706003691783,1.0010048178660327,5.792047602645198
33,24,female,73,135,135,same,catch,anti,3,0,1,0.14626722831235384,0,j,change,1.304670847581292,0,0.49922064876636796,0.03534630456033483,0.35331294832712956,1.0010452286705913,6.627215778943992
33,24,female,74,135,135,same,valid,clock,1,1,2,0.24754087424616955,1,j,change,1.3621042226723148,0.24235009079975758,0.49987972974804507,0.03535720906302231,0.35329210148347556,1.0010497187599867,5.332439484820043
33,24,female,75,105,105,same,valid,anti,4,2,2,1.057425998515555,1,j,change,1.9217175361723093,0.47170857098341284,0.5000946125983319,0.03533443789501689,0.3532718960814236,1.0010907710056927,6.698754769918196
33,24,female,76,45,45,same,catch,clock,5,0,1,0.13531974888837794,0,j,change,2.055119375441791,0,0.49953848295263015,0.03525361628635437,0.35338767624398315,1.0010737728107415,7.416217818085897
33,24,female,77,105,155,change,catch,clock,3,2,2,0.4146289678760695,1,j,change,1.3658851986765512,0,0.5004227098461342,0.03527927393952268,0.3533453411150731,1.001060623263129,6.969620055048381
33,24,female,78,75,75,same,catch,anti,5,1,1,0.1262164133290753,0,j,change,0.7479244561700398,0,0.5002286738390467,0.035302365828101756,0.3533379645396053,1.0010195710169683,6.074509826560643
33,24,female,79,165,215,change,catch,clock,3,1,1,0.7540633705561959,0,j,change,0.32192626118603584,0,0.5000628612515357,0.03529691357653064,0.353333153730091,1.001063189028173,6.286475080965829
33,24,female,80,105,105,same,valid,anti,2,2,2,0.3319176722861812,1,f,same,1.437692953574242,0.4658838821024859,0.4999509297372242,0.03533155140939925,0.3532754240086433,1.0010817908273566,5.497487794974859
33,24,female,81,135,185,change,valid,clock,3,1,2,0.24303859744986767,1,j,change,1.2650798049248806,0.2323072430708884,0.49946439647783336,0.035296592856411735,0.3533174384169797,1.000997441290565,5.179194336842556
33,24,female,82,15,15,same,catch,anti,2,2,1,0.08878734872405403,0,j,change,1.0603057494308814,0,0.4992424577726524,0.03534502167713072,0.3533530384115693,1.0010798665030052,6.297240391048035
33,24,female,83,105,105,same,valid,anti,3,0,1,0.19370855086208394,0,j,change,0.7404619275698678,0.09547146495710136,0.5005170017234377,0.0353017243864997,0.3533020438244421,1.0011420863138483,4.579768041980969
33,24,female,84,135,85,change,valid,anti,5,2,2,0.2612237802832169,1,j,change,1.1553275873015991,0.46051982214773507,0.4996792793276654,0.035329947806076234,0.3533055717516618,1.001049398039413,5.061784592450294
33,24,female,85,75,75,same,valid,anti,5,2,2,0.7140236396794535,1,f,same,1.1781510324958617,0.4550200926869629,0.49909396410112095,0.03538222527549806,0.3533135897687316,1.001042983626121,5.532174697832943
33,24,female,86,15,65,change,valid,clock,4,2,2,0.23506516081897644,1,j,change,1.3355321942617593,0.44990584401065836,0.49987267389315093,0.035359133386918984,0.3532901771595789,1.0010208538992629,5.238782634130075
33,24,female,87,105,55,change,valid,anti,4,1,2,0.13103427926716904,1,j,change,1.4412042034937258,0.22307075054973577,0.4996895423892056,0.035299800062603026,0.3533344366123856,1.0010256647096867,5.249877645063407
33,24,female,88,105,55,change,catch,anti,5,1,1,0.11311272882630874,0,j,change,1.4929582569216109,0,0.5000846702573654,0.03530910096196749,0.35332577715416846,1.0010186088547925,6.827809561196318
33,24,female,89,15,325,change,valid,anti,1,0,1,0.12195403559599072,0,j,change,1.3506528910725137,0.10284665645458906,0.500507059382926,0.035356567621420254,0.35329434652840064,1.0010776214585348,5.144634118649719
33,24,female,90,75,125,change,valid,clock,4,2,1,0.1594934281129099,0,j,change,0.9639769748218896,0.4445900065255991,0.49999743423450127,0.03526163430296947,0.3533437375117501,1.0010609439837026,4.779607809933168
33,24,female,91,15,15,same,valid,anti,4,2,2,1.0447575319644784,1,f,same,1.1366407973373498,0.461766452112313,0.49909492626329666,0.03529691357653064,0.3533427753500291,1.0010670376759663,5.85032735959021
33,24,female,92,105,105,same,valid,anti,1,1,1,0.27215843088060865,0,f,same,1.1707144822703413,0.21446065237794443,0.4995792144782172,0.035347587443084194,0.35331455193090733,1.001044587229444,5.1787135765548555
33,24,female,93,105,105,same,valid,clock,1,1,1,0.6928345870305748,0,j,change,1.7798441810682561,0.22760217331577015,0.5003521512981024,0.03529883790088206,0.3533264185957705,1.0010644719109223,6.121680140142416
33,24,female,94,105,105,same,valid,clock,2,2,1,0.2483952741167741,0,f,same,1.2450238584110593,0.45745761171898613,0.5004913440698147,0.03529915862100097,0.35332417355084544,1.00106158542485,5.179798574588858
33,24,female,95,75,75,same,catch,anti,5,0,1,0.1560043079202842,0,j,change,1.1634617049899134,0,0.5003579242702472,0.035303969431424775,0.35330525103154287,1.001084677313429,6.475901048692322
33,24,female,96,105,105,same,valid,anti,4,1,2,0.3635317503844817,1,f,same,0.8356046771336878,0.2407471144671376,0.4999021801950221,0.03530589375532145,0.3532892149978579,1.0010843565924006,4.8731014138006685
33,24,female,97,45,355,change,catch,anti,4,0,1,0.13112664682057584,0,j,change,0.547805981953843,0,0.4995869117742586,0.03533219285054656,0.3532712546402763,1.001065434073098,5.885232673226255
33,24,female,98,105,105,same,valid,anti,2,1,2,0.34180581133023225,1,f,same,1.0008749259936849,0.2335326633393266,0.5001943567276612,0.03533123068837085,0.35332481499199275,1.0010378520951235,4.991356898605318
33,24,female,99,15,325,change,valid,anti,4,1,3,0.42500460234168713,1,j,change,1.0583695587329203,0.22666529175346145,0.49951314601958074,0.03535015320812818,0.3532978744560751,1.001081470106783,5.143314994525099
33,24,female,100,15,325,change,valid,anti,5,0,2,0.283707903006416,1,j,change,1.4331172317442906,0.10966404979430626,0.49997851171474395,0.035356888342448656,0.35327061319867425,1.0010064214693557,5.3912041714215775
33,24,female,101,165,165,same,valid,clock,4,1,2,0.11885042165158666,1,f,same,2.04164686216518,0.2204324231095687,0.5096950651991392,0.03532930636447418,0.3533001195005454,1.0010497187599867,5.813258143578878
33,24,female,102,15,325,change,valid,anti,5,2,2,0.2693149214010191,1,j,change,1.4158849100285806,0.47202048023756665,0.4995753658299691,0.03533796582269133,0.35329562941115,1.0010542088493821,5.297094142421429
33,24,female,103,15,65,change,valid,clock,4,0,1,0.23631693360221107,0,j,change,0.5354396342759173,0.10248735177491032,0.4992713226329215,0.03529530997320762,0.3533475861599982,1.001069603441465,4.437187497794639
33,24,female,104,45,45,same,valid,clock,5,2,2,0.4709311611563862,1,f,same,0.9202550499076096,0.468302497864237,0.4993649730690777,0.03535143609087754,0.3532911393217546,1.0010651133525243,5.096437498917567
33,24,female,105,165,165,same,catch,anti,5,1,1,0.26521995985876856,0,j,change,0.7918635089795316,0,0.49987042884822586,0.03539088473371521,0.353234692483511,1.0010548502909842,6.203629724135681
33,24,female,106,45,355,change,valid,anti,2,1,2,0.440054740603955,1,j,change,1.4216392803286908,0.21443152929334014,0.5007944251051413,0.035316477537435276,0.35331230688598225,1.0010593403799248,5.4980824111012225
33,24,female,107,75,25,change,valid,anti,1,1,1,0.32051669383145054,0,j,change,0.6259947953449227,0.20859904834813137,0.5002511242860237,0.035323212671755755,0.35329819517664873,1.0010442665088704,4.673718993527473
33,24,female,108,75,75,same,valid,anti,5,1,2,0.45010099493947564,1,f,same,0.8346024250331538,0.2180352536524032,0.4991808794034114,0.03528055682227205,0.35329081860118094,1.0010821115479303,4.908175747231326
33,24,female,109,75,25,change,valid,anti,2,2,2,0.3246584805924613,1,j,change,1.496000933938376,0.46483104853304336,0.4989307172786539,0.03536330275574073,0.35333155012631323,1.0010182881337641,5.49610997896707
33,24,female,110,105,155,change,valid,clock,3,1,1,0.10578265786352858,0,j,change,0.6493050945196046,0.21287592429165375,0.5005471494664562,0.03530140366638079,0.3533302672440186,1.001064471911377,4.437829259860337
33,24,female,111,165,115,change,valid,anti,3,1,1,0.11867627032643213,0,j,change,0.9404829027016604,0.22131216871731038,0.5004512539858297,0.03532417483347672,0.3532664438298525,1.0010413800223432,4.7088340584828074
33,24,female,112,165,165,same,valid,anti,3,0,1,0.1320458322666127,0,j,change,0.6362280298321821,0.10880997942178555,0.49998171892184473,0.03534309735368879,0.3532651609475579,1.0010330412851545,4.44963274275824
33,24,female,113,165,215,change,valid,clock,5,1,1,0.12055280697950366,0,j,change,0.9254394995728035,0.22959900841789693,0.49971808652890104,0.035355926180272945,0.3533260978747421,1.0010660755142453,4.719783141510561
33,24,female,114,105,155,change,catch,clock,2,2,1,0.15222076615054903,0,j,change,0.8722931977067674,0,0.5003393224710635,0.03534438023598341,0.35329434652840064,1.0010112322797795,6.2398701979295765
33,24,female,115,165,165,same,valid,clock,4,0,1,0.06254117251637581,0,j,change,1.2634271313008867,0.1152818404593711,0.5004217476839585,0.03531551537571431,0.3532844041874341,1.001094298933367,5.074171786972329
33,24,female,116,105,55,change,catch,anti,5,0,1,0.11167269300813132,0,j,change,0.34247836258009556,0,0.4992418163305956,0.03529659285595699,0.3533418131878534,1.0010586989387775,5.673188842255968
33,24,female,117,75,75,same,valid,anti,2,2,2,1.2129193984046651,1,f,same,0.48912821065459866,0.46128260631703405,0.5005862773887202,0.03531936402396241,0.35326099157873614,1.0010410593017696,5.486058272380433
33,24,female,118,165,215,change,valid,clock,1,1,2,0.3189544634374215,1,j,change,0.8149768856610535,0.2378172068858888,0.49967382707654906,0.03534983248755452,0.35331455193090733,1.001044587229444,4.76714460461244
33,24,female,119,105,105,same,catch,clock,3,0,1,0.16465446516940574,0,j,change,0.6915407998390037,0,0.49931782713019857,0.035326740599430195,0.35327702761196633,1.0010952610955428,6.026153167213124
33,24,female,120,135,185,change,valid,clock,1,2,3,0.6448332861873496,1,j,change,1.2100143105562893,0.4578623969045762,0.5008675494182171,0.03534630456033483,0.35328696995293285,1.001049398039413,5.545941632686208
33,24,female,121,75,75,same,catch,clock,1,2,1,0.13429151841364728,0,j,change,0.7533196193176082,0,0.4993883856782304,0.03531551537571431,0.3532911393217546,1.0010753764136098,6.085563143806667
33,24,female,122,45,45,same,valid,anti,4,1,2,0.3254699038925537,1,f,same,0.740182259143694,0.23325204117811776,0.4998114162449383,0.035356567621875,0.3533039681487935,1.001036569212829,4.732353467535631
33,24,female,123,135,135,same,valid,clock,1,2,3,0.34158804199387305,1,f,same,1.7437339198672817,0.4546538981777169,0.49956253700338493,0.03532866492287212,0.35334341679163117,1.0010487565982658,5.73283005845451
33,24,female,124,105,105,same,valid,anti,1,0,1,0.22228796996023448,0,f,same,1.7009035984219736,0.12184651223500022,0.49933514604663287,0.035325778437254485,0.35333604021570864,1.0010436250672683,5.567234598833238
33,24,female,125,15,65,change,valid,clock,2,2,2,0.66985815807584,1,j,change,1.2818826816610454,0.45134802168019816,0.5004047494885526,0.035335720777766255,0.35326612310927885,1.0010885259612223,5.5808020454283
33,24,female,126,105,105,same,valid,clock,2,0,2,0.31232516714362646,1,f,same,0.987225374906302,0.12799014810378737,0.49960230636679626,0.03535400185637627,0.353294025807827,1.0010208538992629,4.978799722127405
33,24,female,127,15,15,same,valid,anti,1,0,2,0.3170663808405152,1,f,same,0.9404970144114486,0.12156931885437819,0.5001853765488704,0.03531198744803987,0.3533026852655894,1.0010497187599867,4.932736857027066
33,24,female,128,15,15,same,valid,clock,4,2,2,0.48548386165657575,1,f,same,0.5810595841276154,0.44813181445431816,0.49960294780794356,0.03533283429169387,0.35332417355084544,1.001073452089713,4.684607460347706
33,24,female,129,45,45,same,valid,clock,4,0,1,0.18255933813497904,0,j,change,1.501578266427714,0.11542293194622195,0.49982039642327436,0.03533347573329593,0.35329242220450396,1.0010567746148809,5.37967201821175
33,24,female,130,45,45,same,catch,clock,1,1,1,0.12823374635763685,0,f,same,0.9706107612046253,0,0.49981622705490736,0.03532545771622608,0.3533238528302718,1.0010551710115578,6.297697738726583
33,24,female,131,135,85,change,valid,anti,3,1,2,0.4907064770818579,1,j,change,1.1404560904534264,0.22871387337708127,0.500290893649435,0.035239504576566105,0.3533799789479417,1.0010545295704105,5.321502909898754
33,24,female,132,15,65,change,valid,clock,5,1,2,1.013749615936831,1,f,same,1.7470238725227318,0.22451802851669952,0.4991452794088218,0.03532417483347672,0.3533309086851659,1.0010458701117386,6.4622348201301065
33,24,female,133,15,325,change,valid,anti,1,1,2,0.14129734077687317,1,j,change,1.3669118255484136,0.22034596148171418,0.49980628471394084,0.035356567621875,0.3532795933779198,1.001086280916752,5.2503888738147
33,24,female,134,165,215,change,catch,clock,5,1,1,0.18680600055586183,0,j,change,0.6937803922924104,0,0.4990843424807281,0.03532449555450512,0.3533119861654086,1.0010429836256662,6.144188637636489
33,24,female,135,105,105,same,valid,clock,5,0,1,0.132569248404252,0,j,change,0.5154337201865928,0.12114218556037035,0.5005433008186628,0.03533058924722354,0.35327157536084997,1.0010933367716461,4.414060971565505
33,24,female,136,15,325,change,valid,anti,2,1,2,0.20267493869414466,1,j,change,0.9507546236695816,0.2164083282491499,0.5005407350531641,0.0352975550181327,0.35333219156746054,1.0010619061454236,4.849738837156565
33,24,female,137,105,55,change,catch,anti,1,1,1,0.10017517763117212,0,j,change,0.5252814484260853,0,0.5000766522402955,0.035323212671755755,0.35331262760701065,1.0010660755142453,5.839245498204036
33,24,female,138,105,105,same,valid,clock,3,1,2,0.4579910441962056,1,f,same,1.1711718299484346,0.21272668279032397,0.4996590739256135,0.0352638793474398,0.3533501519254969,1.0010657547936717,5.3084710668258595
33,24,female,139,105,155,change,valid,clock,4,0,1,0.11980745213713817,0,j,change,0.5577643588248975,0.12654907239398172,0.4997277081492939,0.035299800063057774,0.35334983120492325,1.001048435877692,4.4021628760688145
33,24,female,140,15,15,same,valid,anti,1,2,2,0.6364830027664539,1,f,same,0.8851428714378926,0.4450927265065706,0.49982424507152245,0.03530845952082018,0.35336586723815344,1.0010708863242144,5.21475841073925
33,24,female,141,15,65,change,catch,clock,4,0,1,0.1898265478457688,0,j,change,0.7066384047607244,0,0.500043297290631,0.035310704565745255,0.35329530869057635,1.0011122592914035,6.133857583344252
33,24,female,142,165,165,same,valid,anti,4,1,2,0.4343125576897364,1,f,same,1.0745091851194957,0.20899432070711566,0.49993136577586483,0.03535496401855198,0.3533184005791554,1.0010663962352737,5.226974661142776
33,24,female,143,105,105,same,valid,clock,5,2,2,0.40935856506985147,1,f,same,0.9490147140231784,0.4421959227300184,0.4990705514919682,0.03534117302933737,0.3532664438298525,1.001087243078473,5.002118039319157
33,24,female,144,135,135,same,valid,clock,3,0,2,0.12287514536683375,1,f,same,0.9237743178427991,0.13214711784245997,0.4992668325435261,0.03535047392870183,0.3533305879641375,1.0010683205591704,4.8131863021485515
33,24,female,145,45,45,same,valid,anti,3,0,2,0.21020962944567145,1,f,same,0.6413804074304608,0.12644386450712475,0.5006853800764475,0.035321609068432736,0.35330621319326383,1.0010359277712269,4.485821580524316
33,24,female,146,105,105,same,valid,anti,3,2,2,0.29180000628593916,1,f,same,0.8260465596617905,0.439126612982788,0.499613210869029,0.035337645102117676,0.35330076094214746,1.0010593403799248,4.707759002789771
33,24,female,147,15,325,change,valid,anti,3,1,1,0.16286644742194767,0,j,change,0.9386560777529667,0.20550057000676705,0.5003457368843556,0.0353228919511821,0.35330236454501573,1.0010760178552118,4.767766802716324
33,24,female,148,45,45,same,catch,anti,3,1,1,0.20641101380442706,0,j,change,0.4461195685153143,0,0.4998553549771714,0.03532898564390052,0.3533058924726902,1.0010516430838834,5.86268472708889
33,24,female,149,135,135,same,catch,anti,1,0,1,0.07468910941634022,0,j,change,0.7895530372570647,0,0.5001391927717123,0.03533315501272227,0.3533081375171605,1.0010705656036407,6.086100671653185
33,24,female,150,165,165,same,valid,clock,2,1,2,0.38050909916637465,1,f,same,0.9447401489042022,0.21163215417513243,0.5004063530914209,0.03531679825846368,0.35333828526017896,1.0010603025425553,4.956667750702763
33,24,female,151,135,185,change,valid,clock,3,2,1,0.41563089925557506,0,j,change,0.9663766068906625,0.436175226858035,0.5060866369167343,0.035362661314593424,0.3532738204053203,1.0010612647042763,5.114588685359195
33,24,female,152,105,55,change,valid,anti,2,0,1,0.1048868850261897,0,j,change,0.8618357794698568,0.12116600166009833,0.49978190994306715,0.03530076222432399,0.3532718960814236,1.0010795457824315,4.626071447585218
33,24,female,153,45,355,change,valid,anti,1,2,2,0.32666843704464554,1,j,change,0.9282775568008219,0.446708177611398,0.49917671003458963,0.035371000051782175,0.35330942039990987,1.0010676791175683,4.872207244567107
33,24,female,154,45,45,same,valid,clock,1,1,2,0.4018091211673891,1,f,same,1.002933631988526,0.20821578362140794,0.5004855710976699,0.03530525231417414,0.35328729067396125,1.001114504335419,5.003863080496103
33,24,female,155,15,15,same,valid,clock,4,0,1,0.3187270724811242,0,f,same,0.7436781144706401,0.1259652854457828,0.4996045514112666,0.03534438023598341,0.3533007609416927,1.001039134977873,4.672791790063911
33,24,female,156,75,25,change,valid,anti,3,0,2,0.31110033489676425,1,f,same,0.7168774122201285,0.13095288148651169,0.5000647855758871,0.03532449555450512,0.35334053030510404,1.0010362484918005,4.708856829650358
33,24,female,157,165,115,change,valid,anti,3,0,1,0.33192857678886867,0,j,change,0.8077757444089002,0.12590175222926375,0.499792493725181,0.03536779284513614,0.35327798977414204,1.0010657547936717,4.778858285721981
33,24,female,158,105,155,change,valid,clock,1,2,1,0.435825397100416,0,j,change,1.1712170515638718,0.4441848627940461,0.5001250810623787,0.03533636221936831,0.3534258420036167,1.0008736431109355,5.2387589008008035
33,24,female,159,135,135,same,catch,clock,4,0,1,0.1489814873616524,0,j,change,0.5438761915575014,0,0.499507373047436,0.03534309735323404,0.3533010816627211,1.0010298340785084,5.850477136144036
33,24,female,160,45,95,change,valid,clock,2,0,2,0.4224218387689689,1,j,change,0.7006653029620793,0.1306235249700871,0.5000750486374272,0.035313911771936546,0.35335496273546596,1.001121560190768,4.766909516359647
33,24,female,161,165,115,change,valid,anti,2,1,1,0.0911414384577256,0,j,change,0.5476071351372411,0.2050242654672849,0.49999647207232556,0.03532706132000385,0.35330717535543954,1.001059019659806,4.284135744383093
33,24,female,162,75,25,change,catch,anti,3,1,1,0.20016529943450223,0,j,change,0.44355380313800197,0,0.4998226414686542,0.035349191045952466,0.35328632851178554,1.0010516430838834,5.721265512457194
33,24,female,163,105,55,change,valid,anti,5,0,1,0.051362774207973416,0,j,change,0.6332966428885811,0.125844370545096,0.5000991026877273,0.03533026852664989,0.35331455193090733,1.0010400971400486,4.354935153487531
33,24,female,164,15,15,same,valid,anti,2,1,2,0.5599965747032911,1,f,same,0.5462312434533487,0.21068968410323088,0.5003011567114299,0.03533123068837085,0.35329242220450396,1.0010724899279921,4.76767603876624
33,24,female,165,75,75,same,catch,clock,3,0,1,0.052299599291927734,0,j,change,1.6377100800582411,0,0.4993675388345764,0.03530557303520254,0.35333251228848894,1.0010516430838834,6.851207417114438
33,24,female,166,45,95,change,catch,clock,1,0,1,0.1699226229306987,0,j,change,0.4567238768199786,0,0.5003383603093425,0.035352718973626907,0.3532510492377696,1.001084035871827,5.804030689119827
33,24,female,167,75,25,change,valid,anti,4,2,2,0.18903404706497895,1,j,change,1.8042805305231013,0.45306592144774227,0.4998155856133053,0.03532706132000385,0.35328280058456585,1.0011026376710106,5.638470508772116
33,24,female,168,105,105,same,catch,clock,2,0,1,0.07672311991927927,0,j,change,0.5465949406957407,0,0.4996622811318048,0.035328344202753215,0.35328985643900523,1.0010641511903486,5.815204276617806
33,24,female,169,45,45,same,valid,anti,4,2,3,0.22472833355504918,1,f,same,1.1574456266207562,0.4506276431197582,0.4998396396640601,0.03535111537030389,0.35329595013172366,1.0010795457824315,5.061589273561367
33,24,female,170,75,125,change,valid,clock,3,2,3,0.5036991922329435,1,j,change,0.7072849776359362,0.448238109814319,0.5001148180003838,0.035361057711270405,0.35331038256163083,1.001064792631496,4.837858381296883
33,24,female,171,15,15,same,catch,anti,1,2,1,0.12458875591801188,0,j,change,0.48710927402316884,0,0.49977068471935127,0.03531968474453606,0.35332128706477306,1.001042983626121,5.815175411757082
33,24,female,172,135,135,same,catch,clock,5,0,1,0.16790112053377015,0,j,change,0.8096763351122718,0,0.49997530450855265,0.03533315501272227,0.35332224922694877,1.001084035871827,6.180657464549313
33,24,female,173,165,165,same,catch,anti,1,2,1,0.08669175985232869,0,j,change,0.6178257191040757,0,0.4998274522781685,0.035320005465109716,0.3533209663441994,1.0010779421795633,5.885639988479852
33,24,female,174,75,75,same,valid,clock,1,2,2,0.40243099855069886,1,f,same,1.3909398975874865,0.4459758455254649,0.5000667098997837,0.035288895559915545,0.3533302672440186,1.001044587229444,5.462398066952574
33,24,female,175,135,85,change,valid,anti,1,0,1,0.13977359686305135,0,j,change,0.6536030722472788,0.13032542768875618,0.49927998209113866,0.03535047392915658,0.3533219285063751,1.001051001642736,4.437122070778059
33,24,female,176,45,95,change,valid,clock,1,1,2,0.6588295363212637,1,j,change,1.2714749751285126,0.2075527148190222,0.4991840866100574,0.035355926180272945,0.3532754240086433,1.0010882052406487,5.579225703324482
33,24,female,177,75,75,same,valid,anti,3,1,2,0.18134284462576034,1,f,same,0.9058774628942956,0.20461476684405946,0.49991629190481035,0.03531872258236035,0.353331550126768,1.0010647926319507,4.696664312577013
33,24,female,178,15,15,same,catch,clock,2,1,1,0.09550099455464078,0,j,change,0.4798542516978159,0,0.49968697662370687,0.03533860726429339,0.35330076094214746,1.0010542088493821,5.744485368402366
33,24,female,179,75,75,same,catch,clock,1,2,1,0.0716692035671258,0,j,change,0.5097152706016459,0,0.5003999386785836,0.03531936402396241,0.35327542400909806,1.0010596611009532,5.7690734187349335
33,24,female,180,165,115,change,valid,anti,5,0,1,0.1619267358523757,0,j,change,0.9144047841259635,0.1346458008284556,0.4998313009264166,0.03533828654371973,0.35332866364024085,1.001071207044788,4.719850172130464
33,24,female,181,15,65,change,valid,clock,5,0,1,0.08661318328768175,0,j,change,0.31936370301536954,0.13875870113949484,0.4997283495904412,0.03532128834785908,0.35330845823773416,1.0010080250726787,4.048149473793728
33,24,female,182,15,15,same,valid,clock,1,1,3,0.4420679042636948,1,f,same,0.8979117235594458,0.20164511807371996,0.49994419460290374,0.0353145532135386,0.3533030059866178,1.001069282721346,4.956167747174732
33,24,female,183,45,45,same,valid,clock,3,1,2,0.2556483721182303,1,f,same,0.6955555812132843,0.19873090159451018,0.4994358523376832,0.03534951176698087,0.35331134472380654,1.0010766592968139,4.672633033331294
33,24,female,184,135,85,change,valid,anti,5,1,2,0.41309175369451623,1,j,change,1.052128013732272,0.19598948400999128,0.4999454774856531,0.03534534239815912,0.35332160778580146,1.0010577367770566,5.143692482756705
33,24,female,185,165,165,same,valid,anti,1,1,2,0.38123039995798536,1,f,same,1.0973541185985596,0.19337416925259318,0.5005814665787511,0.035337324381089275,0.35329466724942904,1.0010420214639453,5.144838096997773
33,24,female,186,75,75,same,valid,clock,5,2,3,0.537713543841619,1,f,same,0.7882688716854318,0.4438119275393024,0.5000186017991837,0.03531519465514066,0.35330364742821985,1.0010779421791085,4.967782646317573
33,24,female,187,45,95,change,catch,clock,1,2,1,0.6269463735793579,0,j,change,0.38655564599912395,0,0.49991468830148733,0.035320005465109716,0.3532933843666797,1.0010218160618933,6.215829617784038
33,24,female,188,45,95,change,valid,clock,5,2,2,0.17351886382812154,1,j,change,0.9692826569016688,0.44153396154966384,0.5003755639072551,0.0353309099677972,0.3533225699475224,1.0010275890335834,4.815093948706362
33,24,female,189,135,85,change,valid,anti,2,0,2,0.15057707270580067,1,j,change,0.863529826060585,0.14311996341166955,0.49925785236428055,0.03535079464973023,0.3532917807629019,1.0010429836256662,4.7192542731218055
33,24,female,190,75,75,same,valid,clock,3,2,2,0.227510906106545,1,f,same,1.0762487740453253,0.4392802294208864,0.5001228360174537,0.03527093520233393,0.3533469447183961,1.0010282304751854,4.991566649925062
33,24,female,191,135,185,change,valid,clock,5,0,2,0.1339544409870541,1,j,change,1.2182446444458037,0.13856551183337412,0.4994990343102472,0.03532609915782814,0.3533196834619048,1.0010442665088704,5.002564161774444
33,24,female,192,15,325,change,valid,anti,1,2,2,0.2404170266759138,1,j,change,0.9759254234636501,0.4371088469643562,0.4999611927987644,0.03533219285054656,0.3533046095899408,1.0010609439832479,4.861845080369221
33,24,female,193,135,85,change,valid,anti,1,1,2,0.17383701873450264,1,j,change,0.816381000763613,0.19068534622427719,0.4997995495800751,0.03530781807921812,0.3533418131878534,1.0010615854253047,4.672870045907985
33,24,female,194,15,15,same,valid,clock,5,2,3,0.19150616200658988,1,f,same,0.7711683661655115,0.4350395642064615,0.500001603603323,0.03537228293498629,0.3532815177018165,1.0010750556930361,4.614662451114327
33,24,female,195,75,125,change,valid,clock,3,1,2,0.24349273792176973,1,j,change,0.82646926950747,0.1880561252492261,0.4997421405796558,0.035355926180272945,0.35326516094710314,1.0010833944306796,4.731863085627992
33,24,female,196,105,105,same,valid,clock,4,2,3,0.22557022531918847,1,f,same,1.1660364505455618,0.43303981526444957,0.4996488108640733,0.03533123068837085,0.35329947805894335,1.0010705656036407,5.0144391653821
33,24,female,197,15,15,same,catch,clock,3,2,1,0.04273699172972556,0,j,change,0.6327033096449668,0,0.4999894162178862,0.03533796582269133,0.35330428886936716,1.0010307962402294,5.873881085755329
33,24,female,198,75,75,same,valid,anti,1,2,2,0.17508654647326694,1,f,same,0.9966042095229568,0.43091333734496895,0.5009159782398456,0.035320005465109716,0.3532757447296717,1.0010882052406487,4.862112882130532
33,24,female,199,105,55,change,valid,anti,3,2,2,0.07334721412371437,1,j,change,0.9472590890636639,0.4287948665401818,0.49987427749647395,0.035282160425595066,0.3533482276011455,1.0010346448880227,4.685222602596696
33,24,female,200,135,135,same,valid,anti,3,2,2,0.3556657551785065,1,f,same,1.0779380098256297,0.42676227214406737,0.4990503460899163,0.03530910096196749,0.3532635573437801,1.0010785836207106,5.037181147525644
33,24,female,201,135,85,change,catch,anti,2,1,1,0.10667169556654699,0,j,change,1.4434495689192772,0,0.5055786153716326,0.03549223246636757,0.35313366547188707,1.0010532466876612,6.728074733047833
33,24,female,202,45,355,change,valid,anti,5,0,1,0.13420299950803383,0,j,change,0.6475010407384616,0.13434062385757786,0.5001754342074491,0.03533956942601435,0.3533312294057396,1.0010272683130097,4.473047276151192
33,24,female,203,165,115,change,valid,anti,1,0,1,0.1476152172976981,0,j,change,0.30029461400908986,0.13808349137487425,0.5001885837550617,0.03533058924722354,0.353255539327165,1.0011199565869902,4.0957720035225975
33,24,female,204,165,165,same,valid,anti,3,2,2,0.24040612217277157,1,f,same,0.9224686639868196,0.4248141500548628,0.4999326486586142,0.0353437387948361,0.3532754240086433,1.0010753764140645,4.8142167776677525
33,24,female,205,45,355,change,valid,anti,1,1,2,0.26132641089861863,1,j,change,0.9068569438268241,0.1855814216750077,0.5002447098727316,0.035342455912086734,0.35325489788556297,1.0010737728102868,4.802788858677104
33,24,female,206,45,95,change,valid,clock,2,2,3,0.3456300846250997,1,j,change,0.7700734257905424,0.4227639115274766,0.5002023747438216,0.035337645102117676,0.3532722168019973,1.001048435877692,4.814747891101433
33,24,female,207,15,65,change,valid,clock,5,2,3,0.1671503134402883,1,j,change,0.9562812822928208,0.42074169659277105,0.4998284144403442,0.03535945410749264,0.3532847249080078,1.0010558124527051,4.814681501922223
33,24,female,208,165,165,same,valid,clock,5,1,3,0.17408910518270204,1,f,same,0.9642127045158304,0.18320231559205555,0.499527257729369,0.035319043302934006,0.3533100618410572,1.001064792631496,4.790591851513909
33,24,female,209,105,155,change,catch,clock,4,2,1,0.04979605372454898,0,j,change,0.7910440676619146,0,0.49993778018961166,0.03532545771668083,0.35330942039990987,1.0010583782182039,6.038877118439814
33,24,female,210,45,355,change,catch,anti,1,2,1,0.12227988779932275,0,j,change,0.344931234280466,0,0.500596219729232,0.0353020451075281,0.3533402095845304,1.0010593403803796,5.734000688908054
33,24,female,211,45,45,same,valid,clock,5,1,2,0.030950827747801668,1,j,change,1.0221409516038875,0.18074278577354053,0.4993168649684776,0.03537035861063487,0.35324816275169724,1.0010570953354545,4.755361006396015
33,24,female,212,105,105,same,catch,anti,2,0,1,0.08083219317177281,0,j,change,0.3794372506799846,0,0.49902853708408657,0.03531102528586416,0.353338926701781,1.0010542088493821,5.67325811792125
33,24,female,213,15,325,change,catch,anti,4,2,1,0.07771382607597843,0,j,change,0.3247582247208811,0,0.4995134667401544,0.03534438023598341,0.3533716402102982,1.0010445872289893,5.614361615123471
33,24,female,214,75,75,same,valid,anti,3,2,2,0.368230308231432,1,f,same,1.2229329392316686,0.4187152820153489,0.5006427242274185,0.03532770276115116,0.35332706003691783,1.0010644719109223,5.309840864817033
33,24,female,215,135,85,change,valid,anti,2,1,2,0.14649205350406191,1,j,change,0.8010271400244164,0.17831927423830055,0.4993758775722199,0.035359133386918984,0.35328536634960983,1.001046832274369,4.613172062150625
33,24,female,216,105,105,same,valid,clock,3,0,2,0.09984579750107514,1,j,change,0.7952762976519807,0.14207982203156916,0.4999397045139631,0.035366189242267865,0.35328857355625587,1.0010827529890776,4.567226901536742
33,24,female,217,15,65,change,catch,clock,1,0,1,0.09448591362752268,0,j,change,1.0114612739412223,0,0.5000525981904502,0.03530813879979178,0.35333187084734163,1.0010359277712269,6.333950079185797
33,24,female,218,105,55,change,catch,anti,5,2,1,0.09844360672195762,0,j,change,0.5178596513510456,0,0.49999743423450127,0.03534277663266039,0.353314872651481,1.0009993656144616,5.826908336107408
33,24,female,219,15,325,change,valid,anti,3,2,2,0.38245972229424297,1,j,change,1.265329646328155,0.41676670123754245,0.5006677404394395,0.035333155012267525,0.35331070328265923,1.001081470106783,5.345044127957408
33,24,female,220,45,95,change,valid,clock,1,0,2,0.1864006096261619,1,j,change,0.6169248147357393,0.13793653350843582,0.499406346035812,0.03535111537030389,0.353273178964173,1.001050360201134,4.472039251078968
33,24,female,221,75,75,same,valid,clock,5,0,2,0.26683895781206957,1,f,same,0.7717559264369811,0.13408675413676346,0.49970172977464244,0.03533187212997291,0.3533193627408764,1.0010657547936717,4.720131123439842
33,24,female,222,105,105,same,valid,anti,4,0,1,0.15207612112726565,0,j,change,0.35524978046669275,0.13025279442446835,0.4996696577077273,0.03534951176698087,0.3532712546402763,1.0010673583969947,4.236548493927785
33,24,female,223,165,165,same,valid,anti,5,0,1,0.053209483838600136,0,j,change,0.5713411063193234,0.13372550569251118,0.5004345765105427,0.03531294961021558,0.3532946672489743,1.0010651133520696,4.3086144289663935
33,24,female,224,135,185,change,catch,clock,2,1,1,0.0768770658419271,0,j,change,0.47672401793715835,0,0.4998194342615534,0.03533123068837085,0.35331551409308304,1.001051001642736,5.756704505291964
33,24,female,225,165,215,change,valid,clock,4,2,2,0.47146933044450634,1,j,change,0.9260219283137303,0.41489389316685343,0.4996436793335306,0.035332513571574964,0.3533113447242613,1.0010763385757855,5.096642760147915
33,24,female,226,105,105,same,catch,anti,1,1,1,0.06922242555901903,0,j,change,0.5475660828910804,0,0.500064144134285,0.03534470095701181,0.35328183842239014,1.0010930160506177,5.815730579240608
33,24,female,227,165,165,same,catch,anti,2,1,1,0.22243421858638612,0,j,change,0.1504779700180734,0,0.4996488108640733,0.03535720906347706,0.35331551409308304,1.0010474737155164,5.532524924807149
33,24,female,228,15,325,change,valid,anti,2,2,2,0.7129226056117659,1,j,change,0.9844591591090648,0.41291829433693866,0.5004146918290644,0.0352811982638741,0.35330076094214746,1.0010282304747307,5.4741309913029
33,24,female,229,105,105,same,valid,clock,4,1,1,0.05904082710048897,0,j,change,0.3920893604763478,0.17603207812148244,0.4997668360715579,0.035320646906257025,0.3532917807629019,1.0010692827208914,4.131192394558184
33,24,female,230,45,45,same,valid,anti,5,0,2,0.21348611183293542,1,f,same,0.8205571046364639,0.1370303147335465,0.49965618743908635,0.035358491945771675,0.353314872651481,1.0010683205591704,4.68441663154772
33,24,female,231,135,135,same,valid,clock,1,0,2,0.15596197279137414,1,f,same,1.1355019182301476,0.1334981659574334,0.4999509297372242,0.03530685591749716,0.3533100618410572,1.00107986650346,4.943539049987066
33,24,female,232,45,95,change,valid,clock,4,2,2,0.12387964251183803,1,j,change,0.7377726847334998,0.41096656705923396,0.5002456720349073,0.03531198744803987,0.3533090996793362,1.001060623263129,4.543531416834867
33,24,female,233,165,215,change,valid,clock,1,2,2,0.1366949991306683,1,j,change,0.8934444053165862,0.40900071306033775,0.500389354896015,0.035335720778221,0.35326580238825045,1.0011052034360546,4.696821465706307
33,24,female,234,105,55,change,valid,anti,3,0,1,0.6073958828446848,0,j,change,0.6396388941807345,0.12994503353936604,0.5003582449908208,0.03533892798486704,0.3533004402215738,1.0010362484918005,4.991842790424016
33,24,female,235,45,45,same,valid,anti,5,1,2,0.5312587195930973,1,f,same,0.5396090030139931,0.1801119402915917,0.49977517480874667,0.03530878024184858,0.3532985158972224,1.0010981475816152,4.790838485710992
33,24,female,236,75,25,change,valid,anti,1,2,2,0.09290347783098696,1,j,change,0.9244224943217887,0.40709231392384765,0.4999012180328464,0.03534053158819006,0.353333153730091,1.0009842917429523,4.766790528990441
33,24,female,237,105,55,change,valid,anti,2,2,2,0.07177889003696691,1,j,change,0.8991343107618377,0.40525769503374665,0.5004698557850134,0.03527767033665441,0.3533360402161634,1.0010410593022243,4.673676016956961
33,24,female,238,15,15,same,valid,clock,2,1,2,0.14077328319854132,1,f,same,1.0128095836466855,0.17783730182681268,0.4999159711842367,0.035338286543264985,0.3532959501321784,1.001026947592436,4.8497359506704925
33,24,female,239,75,125,change,valid,clock,1,2,2,0.11476893037752234,1,j,change,0.7389923854498193,0.4034725697588928,0.4999028216361694,0.0353520775324796,0.353298195176194,1.0010833944306796,4.519668836662731
33,24,female,240,135,185,change,valid,clock,2,2,2,0.07826899355950445,1,j,change,0.6879997228975299,0.4015639452274739,0.5004002593991572,0.035345021677585464,0.353294025807827,1.0010644719109223,4.437810978781727
33,24,female,241,75,75,same,valid,anti,4,2,2,0.14917937201607856,1,f,same,0.6254656062355934,0.3996468756326269,0.5000041693688217,0.035336682939941966,0.3533020438244421,1.0010561331732788,4.461525706723933
33,24,female,242,15,15,same,valid,clock,1,2,2,0.13373827525401794,1,f,same,1.1549363080816875,0.39773942188770695,0.49974021625575915,0.03534053158819006,0.353274782567496,1.0010923746094704,4.990887363541788
33,24,female,243,135,135,same,valid,clock,2,1,2,0.13558434344349735,1,f,same,1.0704325046549457,0.17568656465592558,0.49938646135433373,0.03534630456033483,0.3533158348136567,1.0009929512011695,4.8841287526724955
33,24,female,244,165,165,same,valid,clock,2,0,1,0.28267871036950964,0,f,same,1.499747592831227,0.13318415212368812,0.5004669692984862,0.03533668294039671,0.3533376438194864,1.0010356070506532,5.556852549953874
33,24,female,245,45,45,same,valid,anti,1,2,2,0.1718597757903808,1,f,same,0.8831640248904478,0.3959095146316972,0.49969371175802735,0.035345983839761175,0.3532837627462868,1.001045549391165,4.720324838725446
33,24,female,246,15,65,change,catch,clock,2,1,1,0.05682015716593014,0,j,change,0.3432490543550557,0,0.4997052577023169,0.0353184018617867,0.3533267393163442,1.001059981821527,5.638841582589521
33,24,female,247,165,165,same,catch,clock,5,0,1,0.05236919567732912,0,j,change,0.3337707963301,0,0.49947850818671213,0.035348549605259905,0.3533020438248968,1.0010567746148809,5.6505094006433865
33,24,female,248,45,45,same,catch,clock,2,1,1,0.05696031209981811,0,j,change,0.3450040378729682,0,0.49942174062834965,0.03530012078317668,0.35330044022111906,1.00110392055376,5.6265509249906245
33,24,female,249,15,325,change,valid,anti,3,0,1,0.007137959280044015,0,j,change,0.2853897622112527,0.13625811949427313,0.4996321333887863,0.035332513571574964,0.35332930508138816,1.001044587229444,4.048322662956707
33,24,female,250,15,65,change,valid,clock,2,0,1,0.04962607176821621,0,j,change,0.2949154868961159,0.13952353352047173,0.4995634991651059,0.035352718973626907,0.35322795734919055,1.0010554917321315,4.037063763759761
33,24,female,251,135,185,change,catch,clock,5,1,1,0.037091987178882846,0,j,change,0.44740052687984644,0,0.5065362872987862,0.03532706132000385,0.3532683681537492,1.0010830737096512,5.727807252007551
33,24,female,252,135,85,change,valid,anti,1,2,2,0.08132289579998542,1,j,change,1.1293485714136295,0.3941330002401988,0.4996844108586629,0.035307176638070814,0.35332256994797717,1.001027909754157,4.896352379651489
33,24,female,253,75,75,same,valid,anti,2,0,2,0.4278170019160825,1,f,same,0.5880397488372182,0.14275263889054673,0.4995535568245941,0.03529017844266491,0.35335432129431865,1.0010609439837026,4.767091044260269
33,24,female,254,165,165,same,valid,anti,2,0,1,0.0630892841450077,0,j,change,1.2266786359623438,0.13935105410659454,0.4991847280516595,0.03530942168299589,0.3533248149924475,1.0010516430843381,4.92006839047599
33,24,female,255,75,25,change,valid,anti,4,1,2,0.2279493312653358,1,j,change,1.0693019642858417,0.1736114046558482,0.4996853730208386,0.035319043302934006,0.35332064562362575,1.0010657547936717,4.978834359960274
33,24,female,256,165,115,change,valid,anti,4,0,1,0.08352752970040456,0,j,change,0.3029681415328014,0.14247551520755364,0.500309174728045,0.03531166672746622,0.35331134472380654,1.0010558124527051,4.060809280886588
33,24,female,257,135,185,change,valid,clock,4,1,1,0.12403390915505952,0,j,change,0.27388775674489807,0.1714651441886268,0.5003499062536321,0.035335720777766255,0.353273178964173,1.0010853187545763,4.0848399186907045
33,24,female,258,105,55,change,valid,anti,5,1,1,0.4211254858114444,0,j,change,0.3089588829684544,0.17499950485512025,0.4998348288536363,0.035325778437254485,0.35332256994797717,1.0010500394810151,4.401775124776577
33,24,female,259,165,165,same,catch,anti,4,1,2,0.20196839105346953,1,f,same,1.1595598172916652,0,0.5003572828286451,0.03533155140939925,0.35328953571797683,1.001063830469775,6.557808938998278
33,24,female,260,135,135,same,catch,anti,4,2,1,0.028788208255718928,0,j,change,0.21115543470796183,0,0.5000753693580009,0.03529563069378128,0.3533283429196672,1.0010404178606223,5.426777546217636
33,24,female,261,165,165,same,valid,anti,1,0,2,0.05876180011546239,1,j,change,1.1255031305545344,0.14543802789320165,0.4998986522678024,0.03534309735368879,0.3533026852655894,1.0010506809217077,4.837465498473648
33,24,female,262,135,135,same,valid,anti,4,2,2,0.09059493043287148,1,j,change,0.8078671498001313,0.39223880032270925,0.5000487495422021,0.03532834420229847,0.3533090996793362,1.0010458701121934,4.567300025849818
33,24,female,263,45,355,change,valid,anti,2,0,1,1.012448452170247,0,j,change,0.9688330065191622,0.1423132188070177,0.49981622705490736,0.03528408474994649,0.35336779156250486,1.0010484358772374,5.720721570196929
33,24,female,264,45,355,change,catch,anti,5,2,1,0.05623099329159231,0,j,change,0.32327328800874966,0,0.5000343171118402,0.035307497359099216,0.35330493031051446,1.0010753764136098,5.5683112581291425
33,24,female,265,165,165,same,catch,clock,4,0,1,0.001795073602352204,0,j,change,0.5556200204105153,0,0.5000577297209929,0.03530268654867541,0.3533184005787007,1.0010737728102868,5.815894788224796
33,24,female,266,105,105,same,catch,anti,1,2,1,0.05727461835840586,0,j,change,0.29495365265574947,0,0.4994101946840601,0.03537388653785456,0.3532401447346274,1.0010994304643646,5.544486202275948
33,24,female,267,75,25,change,valid,anti,5,1,1,0.0786888169195663,0,j,change,0.3075114705748092,0.17837988589340936,0.49919819831939094,0.035309742403569544,0.3533293050818429,1.0010641511903486,4.1182898019164895
33,24,female,268,15,325,change,valid,anti,2,0,2,1.329992706811936,1,j,change,0.6380304800095473,0.14518078457202682,0.49994868469229914,0.035324816275078774,0.3533248149924475,1.00104779443609,5.662225326798307
33,24,female,269,15,15,same,valid,clock,3,0,2,0.34984756146423024,1,f,same,0.9446695903561704,0.1421614878141071,0.49964881086361856,0.03527991538112474,0.3533418131878534,1.0010763385757855,4.92018064271133
33,24,female,270,105,105,same,catch,anti,4,1,1,0.06231474372179946,0,j,change,0.28155426369266934,0,0.4997058991434642,0.035307497359099216,0.35336843300365217,1.0010481151566637,5.5555683843826955
33,24,female,271,45,95,change,catch,clock,3,2,1,0.02197000748537903,0,j,change,0.34108964206916426,0,0.5003973729126301,0.03533989014704275,0.3533360402161634,1.0010426629050926,5.568600548175709
33,24,female,272,105,55,change,catch,anti,3,0,1,0.09834386259308303,0,j,change,0.40135626357869114,0,0.49986016578714043,0.03529819645928001,0.35331872129927433,1.001048756597811,5.685569943085284
33,24,female,273,165,115,change,valid,anti,4,1,1,0.035577223443851835,0,j,change,0.7755898213522414,0.18199679681773706,0.500038486480662,0.03531327033078924,0.3533350780535329,1.0010696034419198,4.496464375310097
33,24,female,274,45,355,change,valid,anti,1,0,2,0.1474215020120937,1,j,change,0.8516006206587008,0.13908662042686826,0.4993928757676258,0.035344059515409754,0.3532641987853822,1.0010785836202558,4.708095118054189
33,24,female,275,105,155,change,valid,clock,2,2,2,0.14747538308483854,1,j,change,1.2313268406642237,0.39035013377286143,0.4991128866204235,0.0352895370015176,0.3533918456128049,1.0010603025425553,5.06109151507826
33,24,female,276,105,155,change,valid,clock,2,0,2,0.052185422732236475,1,j,change,0.8295507537259255,0.13619791472674395,0.49996311712266106,0.03530268654913016,0.35338511047893917,1.0010250232680846,4.566848451143869
33,24,female,277,75,125,change,valid,clock,5,1,2,0.07440879954901902,1,j,change,0.5955471783313442,0.18535760322241673,0.5003059675209443,0.03532930636447418,0.35326900959535124,1.0010715277658164,4.36673061836882
33,24,female,278,105,155,change,valid,clock,5,0,1,0.0544856313931632,0,j,change,0.32204332423089,0.13344555847844192,0.5004012215608782,0.035308138800246525,0.3533709987691509,1.0010426629055473,4.04963441050586
33,24,female,279,135,85,change,valid,anti,3,2,2,0.2422897146802825,1,j,change,0.5929580003453339,0.38842807210541186,0.4997216144565755,0.03536201987299137,0.35334983120492325,1.0010635097487466,4.554758564685017
33,24,female,280,105,105,same,catch,clock,5,2,1,0.011596297344112827,0,j,change,0.22523443077534466,0,0.5004874954215666,0.035269652319584566,0.353280555539186,1.0010837151512533,5.427836886597561
33,24,female,281,165,165,same,catch,anti,3,1,1,0.011086351475569245,0,j,change,0.2973725279653081,0,0.4996719027526524,0.03529787573870635,0.35335720778039104,1.0010888466822507,5.520951077910013
33,24,female,282,75,25,change,valid,anti,3,1,2,0.11503929790387701,1,f,same,1.581098070608732,0.18346733621079203,0.49970333337796546,0.035324816275078774,0.3533350780539877,1.0010513223633097,5.391598016406988
33,24,female,283,45,355,change,valid,anti,4,0,1,0.046812389311526204,0,j,change,0.3018353561187723,0.13594910126002244,0.4991638812080055,0.03530300726970381,0.3533552834560396,1.001142407034422,4.013194769173879
33,24,female,284,75,25,change,valid,anti,3,2,2,0.2803759359430842,1,f,same,1.0163699038284904,0.3865739715045073,0.49948941268985436,0.035284726191093796,0.3533507933666442,1.0010340034468754,4.990621806824947
33,24,female,285,45,95,change,catch,clock,4,2,1,0.08472734573479102,0,j,change,0.4003219394107873,0,0.4999813982012711,0.035305573034747795,0.3533382852606337,1.0010663962352737,5.650750903309927
33,24,female,286,75,25,change,valid,anti,2,1,2,0.8571157333376505,1,f,same,1.1816446427783376,0.18150722418018106,0.5000176396365532,0.035345342398613866,0.35325874653381106,1.0010853187545763,5.89789023527419
33,24,female,287,105,55,change,valid,anti,1,2,2,0.347718296921812,1,j,change,1.037589424941416,0.3847780703940209,0.4998030775072948,0.03533443789501689,0.35325329428223995,1.0011132214531244,5.13244256373855
33,24,female,288,135,135,same,valid,clock,5,2,3,0.43382762803321384,1,f,same,1.2854317766191343,0.38286779393630366,0.499219686604647,0.03531711897903733,0.3533267393163442,1.0010644719109223,5.308142648857938
33,24,female,289,135,135,same,valid,anti,1,1,3,0.33431377642818916,1,f,same,0.5704831785210445,0.1795390185452235,0.5003232864373786,0.0353228919511821,0.3532844041874341,1.00107986650346,4.543854703272245
33,24,female,290,135,135,same,valid,anti,5,1,3,0.18839485076523488,1,f,same,0.4596514151157862,0.1776510076989859,0.49990185947444843,0.03534951176698087,0.35328247986353745,1.0010445872289893,4.319571209290189
33,24,female,291,15,15,same,valid,clock,3,2,3,0.1844936045090435,1,f,same,0.8386893685587893,0.3809669887833881,0.5002431062694086,0.03536586852123946,0.3532815177018165,1.0010429836256662,4.6498163232708976
33,24,female,292,15,325,change,valid,anti,4,2,3,0.15289716604775094,1,j,change,0.9033979713772169,0.3790266662515314,0.4999111603738129,0.03533187212997291,0.3532975537350467,1.0010400971395939,4.696572586464299
33,24,female,293,135,135,same,valid,anti,3,1,3,0.25765864929098825,1,f,same,0.5100215588436185,0.17585573106219168,0.5001051963804457,0.03531391177239129,0.3533337951712383,1.0010628683075993,4.4258080076251645
33,24,female,294,75,125,change,valid,clock,5,2,3,0.1950966299314132,1,j,change,0.8766556402902097,0.3771169779515085,0.500246954917202,0.0353395694264691,0.35329466724942904,1.0010057800282084,4.684878148595089
33,24,female,295,15,65,change,valid,clock,3,2,2,0.3979008190563036,1,j,change,1.2592808544509353,0.37526888208807074,0.5004268792145012,0.03533219285054656,0.353294025807827,1.0010452286705913,5.332851931604637
33,24,female,296,135,135,same,valid,anti,4,0,3,0.3823641475341901,1,j,change,1.1599735469590087,0.13861623193711026,0.4996286054615666,0.03532128834785908,0.35328857355625587,1.0011106556876257,5.1671653873117975
33,24,female,297,75,75,same,valid,anti,4,0,3,0.3190926940474128,1,f,same,1.1440747817973715,0.1359134693339935,0.5000740864752515,0.03532802348217956,0.3533402095845304,1.0010795457824315,5.108586718700735
33,24,female,298,15,15,same,catch,clock,5,2,1,0.18206895622779484,0,f,same,0.9504794453328032,0,0.5005397728909884,0.035304931593600486,0.3533171176959513,1.0010676791175683,6.298861954766835
33,24,female,299,75,75,same,valid,anti,4,1,1,0.11010789684860356,0,f,same,0.5232955460237463,0.17411948218581463,0.5004143711084907,0.035327382040577504,0.35327702761196633,1.0010763385757855,4.308055412834619
33,24,female,300,105,105,same,catch,anti,4,2,1,0.3281662025838159,0,f,same,0.022861931674924563,0,0.500101668453226,0.03526997304015822,0.3533761302996936,1.0010686412792893,5.568485409454297
33,24,female,301,75,125,change,valid,clock,3,0,1,0.008233220375586825,0,j,change,1.0477148972831856,0.13332501637977043,0.5121899513078461,0.03530525231417414,0.35333251228848894,1.0010875637995014,4.685454483643298
33,24,female,302,165,115,change,valid,anti,5,2,2,0.12983959476287055,1,j,change,0.7616439243638524,0.37345837810395643,0.49934829559424543,0.03533347573329593,0.3532969122934446,1.0010817908273566,4.555170370028463
33,24,female,303,165,165,same,valid,anti,5,2,2,0.2501483333107899,1,f,same,0.9115147701490969,0.3715055204667455,0.4994037802703133,0.035303007269249065,0.3533360402161634,1.001067037676421,4.754564977687551
33,24,female,304,165,165,same,valid,anti,4,0,1,0.09551318194007763,0,j,change,0.231430112720318,0.13568716961750443,0.5004031458852296,0.03528055682227205,0.353337323098458,1.0010532466872064,3.9906551617750665
33,24,female,305,165,165,same,valid,clock,5,0,1,0.6471957146586647,0,j,change,0.7263755549265625,0.13820034520220845,0.4994727352150221,0.035341814470939426,0.35331391048976,1.0010699241624934,5.025438601554924
33,24,female,306,75,75,same,catch,anti,2,0,1,0.06918778772660517,0,j,change,0.31431812540085957,0,0.5005583746901721,0.03525906853701599,0.3533456618361015,1.0010689620003177,5.532759692338914
33,24,female,307,105,155,change,valid,clock,1,0,1,0.1203052106202449,0,j,change,1.1221750121394507,0.14073642491549834,0.5007039818756311,0.03534245591254148,0.3533010816627211,1.0010715277653617,4.9088024354246045
33,24,female,308,15,15,same,valid,anti,3,1,2,0.35606184520838724,1,f,same,0.7048420482760775,0.17705403230018285,0.5001423999783583,0.03533604149879466,0.35329915733882444,1.001028551195759,4.7672870045907985
33,24,female,309,165,165,same,valid,clock,1,1,2,0.09981629119920399,1,f,same,1.7672847595458734,0.17534865289735055,0.4996962775235261,0.03534053158773531,0.35329883661779604,1.0010721692069637,5.627257793351873
33,24,female,310,15,15,same,valid,clock,5,1,3,0.2554742207930758,1,f,same,0.558413818185727,0.17368997904492472,0.49968248653431147,0.03533828654371973,0.35330236454501573,1.0010603025421005,4.531846279864567
33,24,female,311,105,105,same,valid,clock,1,0,1,0.057310218352995435,0,j,change,0.4504887462321676,0.1431875931047019,0.4997443856245809,0.03530268654867541,0.35332160778580146,1.0010388142568445,4.177778034354105
33,24,female,312,15,15,same,catch,anti,1,0,1,0.0640540119270554,0,j,change,0.9806951813002343,0,0.5003688287729346,0.03532930636447418,0.3532776690535684,1.001099109743791,6.215697160146647
33,24,female,313,105,105,same,catch,anti,3,1,1,0.049197268229363544,0,j,change,0.415848668592389,0,0.5007950665467433,0.03530332798982272,0.3533418131878534,1.0010583782182039,5.662925780746264
33,24,female,314,45,45,same,valid,anti,3,2,3,0.7337694493035087,1,f,same,0.9779677727037779,0.3695173027119054,0.5004753080361297,0.03532930636447418,0.3532837627462868,1.0010859601957236,5.368891634258034
33,24,female,315,75,25,change,valid,anti,4,0,1,0.06736481142570483,0,j,change,0.36980889538017436,0.14553278955761995,0.4990782487884644,0.035337645102117676,0.3533068546348659,1.0010612647038215,4.083214506324566
33,24,female,316,75,25,change,valid,anti,5,2,2,0.28583652610768695,1,j,change,1.2854917513850523,0.36750476300896123,0.5002777441022772,0.03533347573329593,0.35329081860118094,1.0010400971400486,5.226847014315354
33,24,female,317,135,185,change,valid,clock,1,0,1,0.033584906628675526,0,j,change,0.2714983877372106,0.14802470903440673,0.49972738742872025,0.03532289195072735,0.35327285824359933,1.0010811493862093,3.966377889773412
33,24,female,318,105,55,change,catch,anti,1,0,1,0.044287996900493454,0,j,change,0.307292097635127,0,0.49966099824951016,0.03531936402396241,0.3533376438194864,1.001051001642736,5.520575193282639
33,24,female,319,15,325,change,valid,anti,4,0,2,0.034042575027797284,1,j,change,1.96633940329275,0.15053854346652557,0.500286082839466,0.03532096762728543,0.3533074960760132,1.0010465115533407,5.650811519516992
33,24,female,320,135,185,change,valid,clock,2,0,2,0.7215259376430367,1,j,change,0.7386626845986939,0.14793291394866714,0.5001423999783583,0.03531936402350766,0.35328696995293285,1.0010930160506177,5.155741637689516
33,24,female,321,75,75,same,valid,clock,4,2,2,0.6052367912798218,1,f,same,1.1371808909489118,0.3655540771408237,0.49983611173638565,0.035277028895052354,0.3533546420148923,1.001047152994488,5.3561776253714015
33,24,female,322,135,85,change,valid,anti,4,0,1,0.13385565901990049,0,j,change,1.0815371372086702,0.1454898336898412,0.4997389333730098,0.03534502167713072,0.35331391048976,1.0010538881288085,4.837569091250771
33,24,female,323,75,75,same,valid,clock,1,1,1,0.31205864826506513,0,f,same,1.0390894355255114,0.17196770640468464,0.5001071207043424,0.0353100631241432,0.35330428886936716,1.0010866016373257,5.038694307656897
33,24,female,324,15,15,same,valid,anti,2,0,2,0.19254593842561007,1,f,same,0.9363138546841583,0.14784611385738577,0.49964271717090014,0.03528632979487156,0.35331904202030273,1.001086280916752,4.766690143419964
33,24,female,325,75,125,change,valid,clock,2,1,1,0.20036190120617903,0,f,same,0.5337475120095405,0.17480349731068864,0.5002979495043292,0.03531294961067033,0.35328729067396125,1.001107769202008,4.390702564289768
33,24,female,326,135,135,same,valid,clock,4,2,3,0.38551619030022266,1,f,same,0.6215524933145389,0.36363838486943034,0.4999579855916636,0.03535720906302231,0.3532510492377696,1.0010875637995014,4.69661812880031
33,24,female,327,75,75,same,valid,clock,3,1,2,0.28797380866717504,1,f,same,0.6498702043440971,0.17753387106906524,0.5001760756490512,0.03533700366051562,0.3532811969807881,1.0010500394810151,4.555848694250017
33,24,female,328,45,45,same,valid,clock,5,0,2,0.22429985073677017,1,f,same,0.49459104586367175,0.1454701640806838,0.49977902345699476,0.035375490141632326,0.35330781679658685,1.0010503602015888,4.366829400335973
33,24,female,329,45,95,change,catch,clock,5,0,1,0.056153058168092684,0,j,change,0.6059516776576857,0,0.5000365621567653,0.03534085230921846,0.35329081860118094,1.0010442665084156,5.826890696470855
33,24,female,330,45,45,same,valid,clock,3,2,3,0.33156423810578417,1,f,same,0.8087533010175321,0.36156207128013435,0.5006016719808031,0.035312308169068274,0.35333315372963625,1.001059019659806,4.767862056755803
33,24,female,331,45,95,change,valid,clock,1,2,3,0.09874829136060725,1,j,change,1.3094040432615657,0.359427375811484,0.5001921116827361,0.035352718973626907,0.3532590672543847,1.0010558124527051,5.049856349211041
33,24,female,332,105,55,change,valid,anti,1,1,1,0.06415632182142872,0,j,change,0.3293541519537939,0.17592974038666048,0.49983226308813755,0.03529530997366237,0.35330525103154287,1.001107127760406,4.013180016023398
33,24,female,333,105,155,change,valid,clock,4,2,1,0.15272782553302022,0,j,change,1.0789389790434143,0.35723505109910925,0.5003749224661078,0.035349191045952466,0.353294025807827,1.0010724899279921,4.89687323002272
33,24,female,334,45,355,change,catch,anti,1,1,1,0.06392957230627871,0,j,change,0.3106737764023819,0,0.5004910233487863,0.03532353339278416,0.35329081860118094,1.001094298933367,5.509779094015357
33,24,female,335,75,75,same,valid,anti,3,0,1,0.8103517728477527,0,j,change,0.3807265477821602,0.14317569222871632,0.5002601044652693,0.03532962708550258,0.35336971588640154,1.001021495340865,4.896970408386551
33,24,female,336,15,15,same,valid,anti,4,0,2,0.12594315931664823,1,f,same,0.796036405644827,0.14527990405694133,0.5003075711242673,0.03531615681686162,0.35333860598120737,1.00106158542485,4.5908441303949985
33,24,female,337,135,85,change,catch,anti,1,1,1,0.08448552234813178,0,j,change,0.25299569143862755,0,0.49969371175802735,0.03533604149879466,0.3532924222040492,1.001084035871827,5.485260640068645
33,24,female,338,135,185,change,valid,clock,4,2,2,0.2931412601374177,1,j,change,1.0758347236574082,0.36504065362719296,0.5003450954432083,0.03527831177780172,0.35334149246727975,1.0010737728107415,5.085837039260696
33,24,female,339,135,135,same,valid,clock,4,0,1,0.07020896234689644,0,j,change,0.378665596742394,0.14304381579294545,0.4998364324569593,0.035358491945771675,0.3533074960760132,1.0010773007379612,4.036781529568543
33,24,female,340,165,115,change,catch,anti,2,0,1,0.07612561730729794,0,j,change,0.23925954576998265,0,0.4996600360877892,0.03532353339232941,0.35332064562362575,1.0010468322739143,5.462123850777971
33,24,female,341,75,125,change,valid,clock,2,2,2,0.5349915874967337,1,j,change,0.8588126664135416,0.36337035598793954,0.5000994234087557,0.03529947934202937,0.35334566183564675,1.0010689620003177,5.085071158295705
33,24,female,342,45,95,change,catch,clock,2,0,1,0.027399487745242368,0,j,change,0.3524354565684007,0,0.49998043603909537,0.03529530997320762,0.35334662399782246,1.0010458701117386,5.568373157218957
33,24,female,343,135,135,same,valid,clock,3,2,2,0.4785588609029219,1,f,same,0.7304339543129572,0.3615650703837594,0.49952757844994267,0.035322250509580044,0.3533568870598174,1.0010789043412842,4.8964979868364935
33,24,female,344,135,135,same,valid,anti,1,0,2,0.3333538594561105,1,f,same,0.5550112925748181,0.14509909974334298,0.5000487495422021,0.035360736990242,0.3533065339138375,1.0010500394810151,4.555805396958931
33,24,female,345,45,95,change,valid,clock,2,1,2,0.0830788414800736,1,j,change,0.7501031116962622,0.17881526949520302,0.4991026235593381,0.03536618924181312,0.3532933843666797,1.0010519638049118,4.495175719649069
33,24,female,346,45,95,change,catch,clock,4,1,1,0.11447354663823717,0,j,change,0.42124030381228295,0,0.5005837116232215,0.03531615681686162,0.3533379645396053,1.0010586989387775,5.721943515957719
33,24,female,347,75,125,change,valid,clock,2,0,1,0.030095144994447764,0,j,change,1.332984068521455,0.14291821964510568,0.5003579242702472,0.035323212671755755,0.3533001195005454,1.0010805079446072,5.027130723821756
33,24,female,348,135,85,change,valid,anti,4,1,1,0.05928425409047122,0,j,change,0.41858601952935715,0.17721310309179356,0.4990981334699427,0.03536105771081566,0.3532937050867986,1.001049398039413,4.118126234373904
33,24,female,349,45,45,same,valid,clock,2,1,2,0.1773992632406589,1,f,same,0.8228114502408062,0.18006222608864433,0.5006869836797705,0.035302365828101756,0.35333604021570864,1.001059981821527,4.649805098047182
33,24,female,350,135,135,same,valid,anti,4,1,2,0.07322950963725816,1,f,same,0.7908218082357052,0.17844714547004592,0.500535282801593,0.03534951176698087,0.3532465591483742,1.0011138628942717,4.520785265322502
33,24,female,351,165,165,same,valid,anti,5,1,1,0.05538621504047114,0,j,change,0.8545791535411809,0.1769170714637929,0.5050901577878903,0.03526195502354312,0.3533001195005454,1.0010827529890776,4.54897821601071
33,24,female,352,105,55,change,valid,anti,5,2,2,0.028419379482329532,1,j,change,1.0512242228778632,0.359731081803756,0.499198839760993,0.035354322576949926,0.35332224922694877,1.0010628683075993,4.672236622580385
33,24,female,353,165,215,change,valid,clock,5,0,1,0.06012678729621257,0,j,change,0.23688621279552535,0.1449270532550063,0.4996215496066725,0.03532641987885654,0.3532776690535684,1.0010586989387775,3.978164374476364
33,24,female,354,105,105,same,valid,anti,3,1,1,0.07275933313167116,0,j,change,0.2902987128195491,0.1796473135016222,0.49980917120046797,0.03533026852619514,0.35334662399782246,1.0009281656252824,4.024819931378715
33,24,female,355,105,55,change,valid,anti,2,1,1,0.10410913739633543,0,f,same,0.6106736481142434,0.1823416160104712,0.5004640828128686,0.03530364871085112,0.35332930508138816,1.0010413800223432,4.37878105618438
33,24,female,356,165,165,same,catch,clock,5,1,1,0.009122899520207284,0,j,change,0.8170779267848047,0,0.5004823638910239,0.03526933159901091,0.35334662399782246,1.001067037676421,6.003811123747255
33,24,female,357,15,15,same,valid,clock,1,0,1,0.07214451160371027,0,f,same,0.6136974026117059,0.1468928784415796,0.5009525403961561,0.03536234059401977,0.3532924222040492,1.0010323998440072,4.380076446979274
33,24,female,358,15,65,change,valid,clock,1,2,1,0.20141835510094097,0,j,change,0.8820299565932146,0.3578529077625845,0.4997180865284463,0.03532930636447418,0.3532366168074077,1.0010747349724625,4.802854285693684
33,24,female,359,105,105,same,valid,clock,5,1,2,0.1136964404495302,1,f,same,0.8727976913241946,0.18484992106660952,0.4991164145476432,0.0353097424031148,0.35332930508138816,1.0010651133525243,4.719301739781258
33,24,female,360,135,135,same,valid,clock,5,1,2,0.08917734506212582,1,f,same,0.6321827799938546,0.18336490366865557,0.5001529837600174,0.035335720777766255,0.35322795734919055,1.0010997511844835,4.378769189519517
33,24,female,361,165,215,change,catch,clock,4,2,1,0.05503278085961938,0,j,change,0.28153469973130996,0,0.500179282856152,0.03534149375082052,0.3532462384282553,1.0011087313632743,5.497858868792719
33,24,female,362,165,165,same,valid,anti,3,1,2,0.12948134977159498,1,f,same,1.0311022079058603,0.1818875357699261,0.5002796684257191,0.03532160906888748,0.3533443789528974,1.001066396234819,4.897167651599375
33,24,female,363,135,85,change,catch,anti,3,0,1,0.05207188761414727,0,j,change,0.2666311308166769,0,0.49956542348900257,0.03532545771668083,0.3532949879690932,1.0010275890335834,5.5322494257497965
33,24,female,364,15,65,change,valid,clock,1,1,2,0.4235629629201867,1,f,same,1.1953041362057775,0.18039622743505965,0.5005006449691791,0.035318722581905604,0.3533248149924475,1.0009955169662135,5.30906311718627
33,24,female,365,135,85,change,valid,anti,2,2,3,0.37517679727079667,1,j,change,1.1517983770254432,0.3644812464631581,0.5000686342245899,0.03533411717489798,0.35330653391338274,1.0010481151566637,5.1562701853572435
33,24,female,366,135,135,same,valid,clock,2,0,3,0.23529960763062263,1,f,same,0.45784094692135113,0.14902195450599637,0.49913341274350387,0.035346625280908484,0.35329562941115,1.0010567746148809,4.378019665308784
33,24,female,367,135,85,change,valid,anti,5,0,2,0.3744708910717236,1,j,change,0.7585470455533141,0.14684149964980714,0.49926330461585167,0.035338927984412294,0.353312306886437,1.001059981821527,4.825176123757046
33,24,female,368,165,115,change,valid,anti,2,2,2,0.2063641885861216,1,j,change,1.1239627091654256,0.3628574650092581,0.5004907026286673,0.035333796453414834,0.35330076094214746,1.0010667169563021,5.014902606753822
33,24,female,369,135,85,change,valid,anti,4,2,3,0.1701868967638802,1,j,change,0.9541609979287387,0.36123570590444876,0.5000224504474318,0.03531776042018464,0.353333153730091,1.0010426629050926,4.826493644278344
33,24,female,370,105,55,change,catch,anti,3,2,2,0.22903881938873383,1,f,same,0.9599987556039196,0,0.4993761982932483,0.03532032618568337,0.3533254564335948,1.0010394556984465,6.4033642957074335
33,24,female,371,165,215,change,valid,clock,3,2,2,0.031025555665110005,1,j,change,0.9909479797479435,0.3595824469481116,0.5007405440328512,0.035244315386080416,0.35338831768603995,1.001040417861077,4.721041328707543
33,24,female,372,165,165,same,valid,clock,1,2,2,0.2594331967711696,1,f,same,0.849977453336578,0.3579165860616721,0.4992860757838571,0.0353270613204586,0.3532943465279459,1.0010538881288085,4.802048635365281
33,24,female,373,45,355,change,valid,anti,3,2,2,0.16320737349724368,1,j,change,0.9633531731142284,0.3563072100015009,0.4999602306370434,0.035335079336618946,0.35330140238329477,1.0010596611009532,4.814818770370039
33,24,female,374,135,135,same,catch,clock,4,2,1,0.110342343659795,0,j,change,0.4817654261833013,0,0.4992312325493913,0.03530717663852556,0.35332449427187385,1.0010586989392323,5.861371375936869
33,24,female,375,15,15,same,valid,clock,4,1,2,0.2917801216044609,1,f,same,0.9163669531981213,0.1789095848030072,0.5007434305180141,0.03529883789997257,0.35328408346686047,1.0010670376768758,4.861933278554716
33,24,female,376,75,25,change,catch,anti,5,2,1,0.02622789512952295,0,j,change,0.29282984036399284,0,0.49980243606660224,0.03527253880565695,0.35336971588640154,1.0010878845196203,5.544217438352462
33,24,female,377,75,75,same,valid,clock,5,1,1,0.04320556463244429,0,j,change,0.28661748094418726,0.17750055011145932,0.4997729297638216,0.03534149375082052,0.35333892670223577,1.0010548502905294,3.9902420735488704
33,24,female,378,165,215,change,catch,clock,5,1,1,0.0734129618613224,0,j,change,0.33747095072521915,0,0.49953142709819076,0.03538062167172029,0.3533110240032329,1.0010689620003177,5.55571623661217
33,24,female,379,45,45,same,valid,clock,2,0,1,0.05220402453051065,0,f,same,0.9274966019647763,0.14476321903711564,0.500207506274819,0.035355284739125636,0.3533068546348659,1.0010580574971755,4.66162910706953
33,24,female,380,45,45,same,valid,clock,1,2,2,0.26047682183707366,1,f,same,0.6050847696815254,0.35473600868702926,0.4993088469518625,0.03532674059897545,0.3533353987741066,1.0010275890335834,4.555092755625992
33,24,female,381,165,215,change,valid,clock,2,2,2,0.15027078446291853,1,j,change,0.7453407304356006,0.35305277777856203,0.49973636760751106,0.035312628890096676,0.35333411589181196,1.0010683205591704,4.625872921489645
33,24,female,382,105,55,change,catch,anti,4,2,1,0.06024962331321149,0,j,change,0.2716109606935788,0,0.4997305946353663,0.035330268527104636,0.35332032490259735,1.0010275890335834,5.497589142706602
33,24,female,383,45,45,same,valid,anti,3,1,2,0.31429182630563446,1,f,same,0.8819754340802319,0.18000543916749007,0.4994971099858958,0.03536971716857806,0.3532985158972224,1.0010702448835218,4.931530947299507
33,24,female,384,75,125,change,valid,clock,4,1,1,0.009995259748393437,0,j,change,0.5420423107543684,0.17858022777892293,0.4996853730208386,0.03534534239770437,0.3532808762602144,1.0010753764136098,4.260168609272114
33,24,female,385,135,135,same,valid,anti,2,2,2,0.4840768600679439,1,f,same,0.48799414235782024,0.35136901716716706,0.5000137909892146,0.035295309972752875,0.3533055717516618,1.0010753764136098,4.685277125111497
33,24,female,386,15,15,same,valid,anti,4,1,2,0.22373217514723365,1,f,same,1.208383445938125,0.18105534970460363,0.499670619869903,0.035368755007766595,0.3533097411200288,1.0010561331737335,5.143817563818629
33,24,female,387,135,135,same,valid,clock,4,1,2,0.26719880640575866,1,f,same,0.6725371378497584,0.17963873095687122,0.5001193080906887,0.03539184689634567,0.35324174833840516,1.0010792250614031,4.590723860143044
33,24,female,388,135,185,change,catch,clock,4,1,1,0.13062888833701436,0,f,same,0.8095137297314068,0,0.4997867207530362,0.03532674059988494,0.35325233212006424,1.0010907710056927,6.121425808648382
33,24,female,389,135,135,same,valid,clock,3,1,2,0.1875170382854776,1,f,same,0.8148880460348664,0.17827359748794208,0.5005035314552515,0.03530108294580714,0.3533873555234095,1.0010022521009887,4.732132490992626
33,24,female,390,105,55,change,catch,anti,4,2,1,0.03310061841330025,0,j,change,0.29927311866867967,0,0.5005153981201147,0.03527831177780172,0.3533604149870371,1.0009624827371226,5.509860877787105
33,24,female,391,45,45,same,valid,anti,2,2,2,0.08118113726322918,1,f,same,0.6355128227332898,0.3496475652405568,0.4997742126461162,0.035326419878401794,0.3532921014839303,1.0010221367820122,4.4375059734220486
33,24,female,392,15,65,change,valid,clock,1,0,2,0.341483166334001,1,j,change,0.6638424004277113,0.1466380710185105,0.49926202173355705,0.035293064928737294,0.3533325122880342,1.0010660755142453,4.6961370477920354
33,24,female,393,45,45,same,valid,anti,2,1,2,0.13141497470405739,1,f,same,0.6760596129934129,0.17697476775330037,0.499733160400865,0.035314873934112256,0.3533735645341949,1.0010776214585348,4.496689841942498
33,24,female,394,135,185,change,valid,clock,2,1,2,0.09714244295446406,1,j,change,1.111800981277156,0.17572419238821255,0.4995644613272816,0.035325136996107176,0.3533052510319976,1.0010724899275374,4.919706938278978
33,24,female,395,105,55,change,valid,anti,4,2,2,0.10849403042630001,1,j,change,0.7902589434561378,0.3478844768444216,0.5001821693422244,0.03535464329797833,0.35330140238329477,1.0010702448826123,4.66162108905246
33,24,female,396,45,355,change,valid,anti,5,1,1,0.08234054249260225,0,j,change,0.3202549857624035,0.1745055711177311,0.4997042955401412,0.03532962708595733,0.3533379645405148,1.001026626870953,4.083454726107448
33,24,female,397,15,325,change,catch,anti,4,2,1,0.33591449330288015,0,j,change,0.09576398550598242,0,0.5005599782934951,0.03529723429801379,0.35332994652344496,1.0010619061449688,5.662774721309688
33,24,female,398,45,45,same,valid,clock,4,1,1,0.04987976182019338,0,j,change,0.9922831399062488,0.17657008599229726,0.5000410522461607,0.03534758744262945,0.3532962708522973,1.001041380022798,4.743596330698892
33,24,female,399,105,155,change,valid,clock,3,0,1,0.030948582702876593,0,j,change,1.478649624852551,0.14461054241562077,0.499645603657882,0.03533924870589544,0.3532831213051395,1.0010635097487466,5.226111601814409
33,24,female,400,135,185,change,valid,clock,1,1,1,0.012061021598128718,0,j,change,1.0453457336780048,0.178807548771696,0.5003935242648367,0.0353395694255596,0.35329595013172366,1.0010567746148809,4.790909044259024
33,24,female,401,105,55,change,catch,anti,4,2,1,1.1604783612965548,0,j,change,0.972086397017847,0,0.5039204894965224,0.035267086554085836,0.353358169942112,1.0010593403803796,7.3032029090645665
33,24,female,402,15,15,same,catch,anti,1,0,1,0.2550614532883628,0,f,same,0.7370379136737029,0,0.49997947387691966,0.03533604149833991,0.35328344202571316,1.0010378520955783,6.15654247720795
33,24,female,403,75,125,change,catch,clock,3,0,1,0.04955006096952275,0,j,change,0.7779993957619808,0,0.5002020540241574,0.03536009554954944,0.3533270600364631,1.0010458701117386,6.06253668242698
33,24,female,404,45,355,change,valid,anti,2,2,2,0.6106608192867498,1,j,change,0.7714704850386624,0.3461754075103656,0.5003425296772548,0.03531840186133195,0.3533004402215738,1.0010660755151548,5.121493159990678
33,24,female,405,45,45,same,valid,clock,4,2,2,0.21630909518898989,1,f,same,1.0695178092983042,0.34450007858492,0.49897112808321253,0.035279915381579485,0.3533421339079723,1.001061264704731,4.966163006923125
33,24,female,406,75,25,change,catch,anti,5,1,1,0.35234308901453915,0,j,change,0.3212238829137277,0,0.49990859460922366,0.035312628890096676,0.35334245462945546,1.0010647926319507,5.862321350567072
33,24,female,407,15,325,change,catch,anti,1,1,1,0.11393698095434956,0,f,same,0.903535239825942,0,0.5006930773724889,0.0353103838451716,0.35334245462854597,1.0010433043471494,6.216259704205186
33,24,female,408,165,115,change,valid,anti,1,2,2,0.7167391816101372,1,j,change,1.0088474004624004,0.342694396348065,0.5002059026719508,0.035288254119222984,0.3533103825620856,1.001051001642736,5.450514083165217
33,24,female,409,165,215,change,valid,clock,4,1,1,0.06240454550970753,0,j,change,0.8633774837408055,0.18109374988384996,0.4996250775338922,0.03533989014704275,0.35328696995293285,1.001084035871827,4.649238063899247
33,24,female,410,45,45,same,catch,clock,4,0,1,0.04207309993853414,0,j,change,1.279314350518689,0,0.5000955747600528,0.03532930636538367,0.3533026852655894,1.001076980016478,6.498886778546876
33,24,female,411,15,15,same,valid,anti,5,1,2,0.4953665484490557,1,f,same,0.6521158904897675,0.18323793580409753,0.5001606810565136,0.03534919104640721,0.3533177591370986,1.0010853187541215,4.897118902057628
33,24,female,412,165,165,same,catch,anti,2,1,1,0.2224579519161125,0,j,change,1.0182621557942184,0,0.5000917261122595,0.03531647753789002,0.3533325122880342,1.0010484358772374,6.462880110122569
33,24,female,413,105,155,change,catch,clock,4,0,1,0.035823857640934875,0,j,change,0.41074920990467945,0,0.5004817224498765,0.035312628890096676,0.3533068546348659,1.001061264704731,5.68671812309185
33,24,female,414,45,355,change,valid,anti,4,1,1,0.08732325885557657,0,j,change,0.6812963401280285,0.18199516422603013,0.49952533340547234,0.035302365828101756,0.35332513571302115,1.0010792250623126,4.460519605975605
33,24,female,415,165,115,change,valid,anti,3,2,2,0.1195794197392388,1,j,change,0.9741332363473703,0.34087667977241076,0.49953495502541045,0.03530845952082018,0.35331551409217354,1.001068641279744,4.849088094912986
33,24,female,416,105,105,same,valid,anti,2,0,1,0.09971173625945084,0,j,change,0.2799750351023249,0.14644399533063082,0.499609041500662,0.03530108294580714,0.3533248149924475,1.0010442665079609,4.048076349479743
33,24,female,417,165,165,same,valid,anti,2,1,1,0.09790030590374954,0,j,change,0.3077863281914688,0.18405206706297975,0.5006350269304676,0.03531647753698053,0.35330364742821985,1.0010753764136098,4.096847700657236
33,24,female,418,75,75,same,valid,anti,2,1,1,0.0293517144764337,0,j,change,0.2987513061352729,0.1860301161540697,0.4994403424270786,0.03533668293948722,0.3533129483275843,1.0010660755142453,4.036327389097096
33,24,female,419,165,215,change,valid,clock,3,0,1,0.5329408995185076,0,j,change,0.7859109333030574,0.14842278374834406,0.5000795387268226,0.03533989014704275,0.35330493031051446,1.0010442665088704,5.002519260880035
33,24,female,420,45,95,change,catch,clock,3,0,1,0.03261857524375955,0,j,change,0.9961106204082171,0,0.5006051999080228,0.035317439699610986,0.353316476254804,1.001067679118023,6.286911581800268
33,24,female,421,135,135,same,catch,anti,5,0,1,0.03708621420628333,0,j,change,1.0127213854621004,0,0.5006719098082613,0.035345663118278026,0.35330493031051446,1.0010295133579348,6.299153169136844
33,24,female,422,15,15,same,valid,clock,3,1,2,0.27062795183337585,1,f,same,0.7872358304002773,0.18815827325415316,0.5001786414140952,0.03537132077235583,0.3532831213051395,1.0010776214585348,4.838015213705148
33,24,female,423,135,135,same,valid,anti,3,0,2,0.22532840193252923,1,f,same,1.0216954705902026,0.15043849427407313,0.4996722234727713,0.0353145532135386,0.3533184005791554,1.0010378520955783,4.920152419292208
33,24,female,424,15,15,same,catch,anti,3,1,1,0.06491995774194947,0,j,change,0.3947715474587312,0,0.4998617693900087,0.0352937063698846,0.3532847249080078,1.0010635097487466,5.661651236794569
33,24,female,425,135,185,change,valid,clock,5,2,2,0.2590069589969062,1,j,change,0.9895890862608212,0.338969711825843,0.5009102052672461,0.03537035860972537,0.35331807985858177,1.0010619061458783,4.96804435438662
33,24,female,426,165,215,change,valid,clock,2,1,1,0.10745874409622047,0,j,change,0.31276936527410726,0.18697639702827193,0.5006212359421625,0.035308138800246525,0.35332930508138816,1.0010275890335834,4.096835513271799
33,24,female,427,15,65,change,valid,clock,2,1,2,0.3673855299812203,1,f,same,1.3366457364354574,0.18909188905650748,0.49950705232731707,0.035325136996107176,0.3532844041874341,1.0010885259607676,5.379418969601829
33,24,female,428,15,15,same,valid,anti,3,2,2,0.15777147882363352,1,f,same,1.0763555740286392,0.3370503776964836,0.4993778018961166,0.0353312306888256,0.3533158348127472,1.001061264704731,4.896242051740046
33,24,female,429,105,155,change,valid,clock,4,1,2,0.22640762699484185,1,j,change,1.3345302628813442,0.18789861558844811,0.5001289297097173,0.03532481627462403,0.35330011950100015,1.0010282304756402,5.238817592683517
33,24,female,430,135,135,same,valid,anti,2,0,2,0.15096225823253917,1,f,same,0.5519682948370246,0.14834034736198548,0.49986016578623094,0.03533796582269133,0.3533110240032329,1.0010564538943072,4.401861398637266
33,24,female,431,105,105,same,valid,anti,5,2,2,0.13457054539776436,1,f,same,1.444808462407309,0.3351727664994336,0.5004615170473699,0.03528216042650456,0.3533241735513002,1.0010785836202558,5.226894160253323
33,24,female,432,45,95,change,valid,clock,4,0,2,0.09862834182877123,1,j,change,0.6928037978459543,0.14637011278137046,0.500286724281068,0.03532738204103225,0.3532686888738681,1.0010859601961783,4.508771710384281
33,24,female,433,135,135,same,valid,anti,1,2,2,0.10550972457076568,1,f,same,0.7347553446497841,0.3333132594738634,0.499879088306443,0.035345983839761175,0.3533129483266748,1.0010439457882967,4.4968569374123035
33,24,female,434,165,215,change,catch,clock,3,0,1,0.07905764569204621,0,j,change,0.4083319381979891,0,0.49958145952314226,0.03531134600689256,0.35333411589181196,1.0010218160614386,5.696811523364886
33,24,female,435,105,55,change,valid,anti,3,1,2,0.06274835807016643,1,j,change,1.207497294721179,0.18675789127219336,0.5009089223849514,0.03528376402937283,0.3533437375126596,1.0010615854243952,4.957082442531828
33,24,female,436,15,325,change,catch,anti,4,2,1,0.08314394777698908,0,j,change,0.3543039752048571,0,0.49900993528535764,0.03534919104640721,0.353337323098458,1.0010410593022243,5.602227148491693
33,24,female,437,105,105,same,valid,clock,4,0,2,0.14962389086758776,1,f,same,1.4254491211931963,0.14447811422584492,0.5001026306154017,0.035226675749072456,0.3534017879537714,1.0010603025421005,5.344463302820259
33,24,female,438,75,75,same,valid,clock,3,0,2,0.14855781535334245,1,f,same,0.7125512110733325,0.14256208220852434,0.5001523423197796,0.03536490635906375,0.35324303122160927,1.001099751185393,4.543788955534183
33,24,female,439,15,325,change,catch,anti,2,2,1,0.05411936838481779,0,j,change,0.3720148121628881,0,0.4994804325106088,0.03533732438063453,0.3532641987858369,1.0010882052411034,5.650294838514128
33,24,female,440,165,215,change,valid,clock,4,0,1,0.02740686432025541,0,j,change,0.7130104830757773,0.14063526555757244,0.5000323927879435,0.03532032618568337,0.3533546420148923,1.0010314376813767,4.46092275186038
33,24,female,441,165,165,same,catch,clock,4,0,1,0.11029295267690031,0,j,change,0.28696899080114235,0,0.49987107028937316,0.035282481147078215,0.3533151933715999,1.001087243078473,5.579325768174385
33,24,female,442,135,185,change,valid,clock,5,1,2,0.31556444593297783,1,j,change,0.9701739396487028,0.18565577349617954,0.5002036576261162,0.03535239825305325,0.35329402580737224,1.0010474737155164,4.944411089494679
33,24,female,443,135,135,same,valid,anti,2,1,2,0.29803289182927983,1,f,same,1.152058481489803,0.18457955732680198,0.4994810739526656,0.03530300727015856,0.3533353987750161,1.0010628683075993,5.096405426849742
33,24,female,444,75,75,same,valid,clock,1,0,2,0.13564079028128617,1,f,same,0.915027623671449,0.1424096874748883,0.499741499137599,0.03536362347585964,0.353291460042783,1.0010346448880227,4.684297644178514
33,24,female,445,45,95,change,valid,clock,3,0,2,0.1962499414685226,1,j,change,0.9962228726435569,0.14051657359810563,0.500529509829903,0.03532225051003479,0.3533421339079723,1.0010420214639453,4.826897110883692
33,24,female,446,75,25,change,valid,anti,5,0,2,0.05782914440078457,1,j,change,1.6328341636790356,0.13863811466682308,0.49988421983744047,0.03535079465018498,0.3533097411200288,1.0010628683075993,5.391741378546612
33,24,female,447,105,105,same,catch,anti,2,2,1,0.12221221573690855,0,j,change,0.3670298507558982,0,0.49966965770727256,0.0354277676115089,0.35330845823773416,1.0010574160560282,5.708803269298187
33,24,female,448,45,45,same,valid,clock,3,0,2,0.0839210539652413,1,f,same,1.5535273180248623,0.1368727230752368,0.5003592071525418,0.035282801866742375,0.3533729230930476,1.001059981821527,5.415607486646877
33,24,female,449,75,125,change,catch,clock,1,0,1,0.06569000807576231,0,j,change,0.26481104100093944,0,0.4993261658673873,0.03536298203471233,0.3533228906680961,1.000997441290565,5.520253831168702
33,24,female,450,105,105,same,valid,anti,5,1,2,0.2221760384454683,1,f,same,0.8320995209069224,0.18346450425031977,0.5004262377733539,0.035338927984412294,0.3532754240086433,1.0010814701072377,4.790925080293164
33,24,female,451,165,115,change,valid,anti,1,1,1,0.03648486294605391,0,j,change,0.30741653725544893,0.18235096080841834,0.5109484415861516,0.03531968474362657,0.3533017231038684,1.001078904341739,4.071590306281905
33,24,female,452,45,45,same,valid,clock,1,0,2,0.18587142051637784,1,f,same,0.5507283887191079,0.1351828823938459,0.499584025288641,0.03531583609583322,0.3532645195064106,1.0010458701117386,4.378204079695024
33,24,female,453,165,165,same,valid,anti,2,2,2,0.10121559549133963,1,f,same,0.6497775160696619,0.33128071621994215,0.49959557123202103,0.03532770276069641,0.3532552186061366,1.001088525961677,4.41321811763919
33,24,female,454,45,95,change,valid,clock,4,1,2,0.10321015735189576,1,j,change,0.6069843982222665,0.18419088065292258,0.5004605548856489,0.03526740727465949,0.35336073570761073,1.0010558124531599,4.425728148177768
33,24,female,455,165,115,change,valid,anti,2,0,2,0.08323278740317619,1,j,change,0.802785010028856,0.13353277732076324,0.5006395170203177,0.03533219285054656,0.3532574636510617,1.0010763385753307,4.578835706986865
33,24,female,456,105,155,change,catch,clock,3,1,1,0.04760489009186131,0,j,change,0.24911497130506177,0,0.5007626737587998,0.035406279325798096,0.35329819517664873,1.001069603441465,5.5098932705750485
33,24,female,457,135,85,change,valid,anti,3,0,2,0.05522745830785425,1,j,change,0.8061336545670201,0.1318375005484722,0.5004833260527448,0.0353097424031148,0.3533087789592173,1.0010821115474755,4.567900094227298
33,24,female,458,135,185,change,valid,clock,3,0,2,0.1338152482148871,1,j,change,0.5137287690931771,0.1301133914778656,0.49931301631932,0.035346625280908484,0.35329049788015254,1.001051001642736,4.366327151763471
33,24,female,459,15,15,same,valid,anti,5,2,2,0.08128120211222267,1,f,same,0.4509412831002919,0.32914455738292614,0.5000481081006001,0.03535560545969929,0.3532949879700027,1.0010792250614031,4.237834904543888
33,24,female,460,45,45,same,valid,anti,4,0,2,0.0683600076717994,1,f,same,0.4915159760585084,0.12842566865272156,0.4991449586877934,0.03532032618568337,0.3533151933725094,1.0010699241629482,4.272263306540481
33,24,female,461,135,185,change,valid,clock,4,0,1,0.3154874729716539,0,j,change,0.96654658884745,0.1268355785948153,0.499467282963451,0.0353270613195491,0.3533116654443802,1.0010519638053665,4.990604167187485
33,24,female,462,45,45,same,valid,anti,5,2,2,0.20382087365578627,1,f,same,0.7749522286558204,0.3269339442606948,0.5001074414258255,0.03528825411831349,0.3532831213051395,1.001084998033548,4.661771186326405
33,24,female,463,75,125,change,valid,clock,1,1,2,0.10318385825667065,1,j,change,0.6697282662025827,0.18310440075866727,0.4998236036308299,0.035316156816406874,0.35330974112093827,1.0010619061458783,4.425898130134556
33,24,female,464,105,55,change,valid,anti,4,0,2,0.04717095502292068,1,j,change,0.9035070164063654,0.12836080317356607,0.4998450919147217,0.035359133386918984,0.35330653391338274,1.0010712070452428,4.649822737685099
33,24,female,465,75,75,same,valid,anti,5,0,1,0.04939996369466826,0,j,change,0.30187929485055065,0.1267999957647178,0.49970718202621356,0.03530878024139383,0.35332866364024085,1.0010769800173875,4.0488124034236534
33,24,female,466,45,45,same,catch,anti,3,2,1,0.03596529545757221,0,j,change,0.30403742425369273,0,0.49996696577090916,0.03534149375082052,0.3533142312107884,1.0010570953354545,5.5208946310713145
33,24,female,467,45,355,change,valid,anti,3,1,2,0.2256564991803316,1,j,change,0.7612722091043906,0.1820150381326182,0.5005782593725598,0.03534438023598341,0.35328889427728427,1.0010481151566637,4.732094325232538
33,24,female,468,75,75,same,valid,clock,2,2,2,0.08153296783984842,1,f,same,0.5054374982755689,0.3247622315097505,0.49995926847441297,0.035305573034747795,0.35333700237788435,1.0010458701126481,4.28416845789161
33,24,female,469,165,165,same,valid,clock,3,2,3,0.30030327346776176,1,f,same,0.7127901479743741,0.322404158553163,0.4997681189543073,0.0353103838451716,0.35332160778580146,1.001059981821527,4.696204719853995
33,24,female,470,15,15,same,valid,clock,2,0,2,0.2743428593785211,1,f,same,1.0516854192046594,0.12829817456472192,0.5003746017455342,0.03533989014704275,0.35327927265643666,1.0010779421791085,4.955837404882004
33,24,female,471,45,95,change,valid,clock,3,2,1,0.07512625169329112,0,j,change,0.2854147784237284,0.3200076774799824,0.49995092973767896,0.03532994780562149,0.35327863121619885,1.0010647926310412,4.001335160158305
33,24,female,472,75,75,same,valid,anti,1,1,2,0.15869932372879703,1,f,same,0.8944328664283603,0.18091100119688727,0.5005894845962757,0.035320005465109716,0.35324944563490135,1.0011077692015533,4.732845453047048
33,24,female,473,15,65,change,valid,clock,3,1,2,0.08234407041982195,1,j,change,0.8156462297038161,0.1797826022675022,0.49985792074221536,0.035328344202753215,0.35332994652344496,1.0010612647038215,4.601851584584438
33,24,female,474,45,95,change,valid,clock,5,1,2,0.07932737177725357,1,j,change,0.6724033973305268,0.17868681820975324,0.5005811458577227,0.035315194655595405,0.3532885735558011,1.0010827529895323,4.426766000273346
33,24,female,475,15,15,same,valid,anti,1,1,2,0.12218206799479958,1,f,same,0.925778822043867,0.17764448655709875,0.49976908111602825,0.03533796582269133,0.3533187212997291,1.001045549391165,4.743893318041046
33,24,female,476,15,15,same,valid,clock,2,2,2,0.11835394605077454,1,f,same,0.7803021701884063,0.3284926999092806,0.49933225956010574,0.0353562469008466,0.35329178076244716,1.0010609439841573,4.578381566515418
33,24,female,477,105,155,change,valid,clock,2,1,2,0.9604589897680853,1,j,change,1.0131213241402293,0.17664378608930392,0.4996375856399027,0.03533924870498595,0.3533116654452897,1.0010333620066376,5.732512224269158
33,24,female,478,15,65,change,valid,clock,3,0,2,0.022409074086681358,1,j,change,0.6470491453110299,0.12676562342987213,0.5003768467895497,0.035325778437254485,0.35331679697628715,1.0010417007433716,4.3668614724028885
33,24,female,479,15,65,change,catch,clock,3,0,1,0.042739878215797944,0,j,change,0.3148800280177966,0,0.5005955782880847,0.03532192978946114,0.3532997987804265,1.001013477323795,5.556880131931393
33,24,female,480,75,75,same,catch,anti,2,2,1,0.555641829416345,0,j,change,0.37399622447628644,0,0.500531754874828,0.03533989014704275,0.35328632851178554,1.0010776214585348,6.134158740054772
