subject,age,gender,ntrial,memory_ori,test_ori,type,trial_type,which_change,trial,quest,pas,pas_rt,vis,test_key,test,test_rt,contrast,fix_dur,target_dur,mask_dur,retention_dur,trial_dur
34,24,female,1,135,135,same,catch,clock,3,0,1,0.5999227704621717,0,j,change,2.034018200256696,0,0.5111960379449556,0.03529627213538333,0.3533382852606337,1.0010182881339915,7.816506402546793
34,24,female,2,15,15,same,valid,anti,5,0,2,0.9960368546537666,1,f,same,2.112717280237348,0.2,0.5003319458955957,0.0353414937501384,0.3533074960760132,1.0010365692126015,6.757587128581463
34,24,female,3,15,65,change,valid,clock,3,1,2,0.6685868213310187,1,j,change,2.701071656053955,0.2,0.5004672900195146,0.03531166672746622,0.353318079858127,1.0010580574976302,7.016750919987089
34,24,female,4,15,15,same,valid,clock,4,2,2,1.6061203767314964,1,f,same,1.6697760535835187,0.2,0.5003543963428001,0.03528857483911452,0.3533770924618693,1.0010679998383694,6.887687148530176
34,24,female,5,15,15,same,valid,anti,3,0,1,0.9351178872975652,0,j,change,1.7069424479582267,0.0723357464867447,0.5000314306257678,0.03533155140917188,0.35329915733859707,1.0010792250618579,6.262846947605112
34,24,female,6,75,125,change,valid,clock,1,0,2,0.6054263371968318,1,j,change,1.8928068126201651,0.15406686854268764,0.4999977549553023,0.03532096762728543,0.35335111408744524,1.0010240611063637,6.1095495221584315
34,24,female,7,105,55,change,valid,anti,2,2,1,0.4674830932099212,0,j,change,1.3239346140351245,0.11397766455402543,0.5005096251479699,0.035328344202753215,0.3532872906737339,1.0010468322739143,5.4508104290664505
34,24,female,8,15,325,change,valid,anti,3,0,2,0.811848896945321,1,f,same,2.8670798831806223,0.09412333650666384,0.5001141765594639,0.03533155140917188,0.3532811969807881,1.0010554917321315,7.263755869990064
34,24,female,9,45,95,change,valid,clock,4,0,1,0.7627632395096953,0,j,change,1.4448097452900583,0.05063924580022716,0.5003919206612863,0.03531519465514066,0.35329562941115,1.0010949403747418,5.886691952284309
34,24,female,10,15,15,same,catch,anti,2,1,2,0.5369774898988453,1,f,same,2.5070811917209994,0,0.4995372000698808,0.035332192850773936,0.3533068546346385,1.0010872430787003,8.123448593928515
34,24,female,11,105,105,same,valid,clock,5,2,2,0.5403299830852575,1,f,same,4.754787237113305,0.24043453680453014,0.5000865945814894,0.035321929789233764,0.3533107032828866,1.0010522845254854,8.925020959095946
34,24,female,12,15,15,same,valid,anti,5,2,2,0.758442169893442,1,f,same,3.2148276864043055,0.20821230939956695,0.4997633081438835,0.035326419878401794,0.3533126276065559,1.00107184848639,7.628779612941344
34,24,female,13,15,15,same,valid,anti,5,1,2,0.5624731797336153,1,f,same,1.441299136812404,0.09338226537841544,0.5003967314714828,0.035329627085275206,0.3533084582381889,1.00106671695562,5.6509366005791435
34,24,female,14,165,165,same,valid,anti,1,1,1,0.6373204044416525,0,j,change,1.4779055528933895,0.020575447070561637,0.49965137662934467,0.03532545771645346,0.35329979877997175,1.0010737728105141,5.721293415155742
34,24,female,15,15,65,change,catch,clock,4,0,1,0.5550905105810671,0,j,change,1.4047090774854496,0,0.4995121838576324,0.03537003789006121,0.35329659157309834,1.0010009692177846,7.098655603086399
34,24,female,16,135,185,change,catch,clock,4,1,1,0.5894185270069556,0,j,change,1.375982126878398,0,0.5003729981417564,0.03534566311873277,0.3533023645452431,1.0010760178549845,7.182055806679955
34,24,female,17,135,135,same,valid,anti,2,1,1,0.457301494750709,0,j,change,1.446903409837887,0.10418102663402222,0.5003566413874978,0.035327382040577504,0.3533074960760132,1.0010259854302603,5.557055566139297
34,24,female,18,15,15,same,valid,anti,2,1,2,0.7240586687912582,1,f,same,2.3552061624552607,0.1621238415653195,0.49878062000448153,0.035501533365504656,0.35331391048953265,1.001031758402405,6.63903690147913
34,24,female,19,105,105,same,valid,clock,1,1,2,0.49856509571282004,1,f,same,1.874257291103504,0.1316742256541137,0.49928062353251335,0.03536298203516708,0.3533103825620856,1.0010628683075993,5.9681877165267
34,24,female,20,75,25,change,valid,anti,1,1,1,0.7345407825198436,0,j,change,1.4040727676720053,0.10783650191392789,0.49945734062271185,0.035346625280908484,0.35328921499763055,1.0010837151512533,5.732490415262646
34,24,female,21,165,215,change,catch,clock,2,1,1,0.45427581592934985,0,j,change,1.373707255150748,0,0.5000481081008274,0.035342455912086734,0.3532000546508698,1.0011401619897242,6.9457661343344625
34,24,female,22,75,125,change,valid,clock,5,0,2,0.31203042484594334,1,j,change,2.100357026252368,0.08384725221099756,0.5004156539910127,0.035301082945579765,0.3533402095845304,1.0010561331735062,6.062759904014683
34,24,female,23,165,165,same,catch,clock,1,2,1,0.6314515368612774,0,j,change,1.7343759320942809,0,0.5000583711623676,0.035322571230608446,0.353294346528628,1.0010397764190202,7.487351418130402
34,24,female,24,15,65,change,valid,clock,1,0,1,0.515712747171392,0,j,change,1.0866054859911856,0.05366849446467606,0.5003585657113945,0.035337645102117676,0.3533129483275843,1.0010574160562555,5.203478664698878
34,24,female,25,75,75,same,valid,anti,2,0,1,0.23829225222243622,0,j,change,1.1777895802983949,0.07697055224402233,0.5000436180112047,0.03533347573329593,0.3532844041876615,1.0010853187545763,4.990811673462758
34,24,female,26,15,15,same,valid,anti,3,1,2,0.38382503019579417,1,f,same,1.3998293124582233,0.14145327985190026,0.499897048664252,0.03530204510730073,0.3533350780537603,1.0010484358772374,5.368269436153696
34,24,female,27,15,325,change,catch,anti,5,0,1,0.29645654972546254,0,j,change,1.2837046957995426,0,0.49954233160087824,0.035355926180272945,0.3533389267020084,1.0010744142516614,6.697764063761724
34,24,female,28,105,105,same,catch,clock,1,0,2,0.23590384537669706,1,j,change,1.1529391804560873,0,0.5006157836905913,0.03537196221418526,0.353295308690349,1.0010609439837026,6.5347558578025655
34,24,female,29,45,45,same,catch,anti,1,0,2,0.26185976937631494,1,j,change,3.6267869754053663,0,0.4994470775611717,0.03532898564390052,0.3533142312101063,1.001047473715289,9.077492208091144
34,24,female,30,15,325,change,valid,anti,4,2,2,1.1158500797630495,1,j,change,1.7653995634350395,0.18435721902886748,0.49965137662934467,0.03532032618568337,0.353316155534003,1.0010696034416924,6.604641533712083
34,24,female,31,105,55,change,valid,anti,2,0,2,0.4162165352033753,1,f,same,2.128665115661306,0.09978450644197583,0.49924470281712274,0.03530076222477874,0.3533046095899408,1.001082752989305,6.132396379961847
34,24,female,32,45,45,same,valid,anti,2,2,2,0.322450960205515,1,f,same,2.173838301617252,0.16411084760184697,0.5002793477053729,0.035301724386727074,0.3533036474279925,1.0010987890229899,6.074656716628397
34,24,female,33,105,105,same,valid,clock,5,0,2,0.2828772364653105,1,j,change,1.7496204270844373,0.07817760178246838,0.49985343065281995,0.03531102528631891,0.35329755373527405,1.0010872430787003,5.650393620481054
34,24,female,34,105,55,change,valid,anti,4,2,3,0.716803646465678,1,f,same,2.5016475420929964,0.14678544476673633,0.4998739567759003,0.035373565817280905,0.3532821591427364,1.001084356592628,6.839573274731265
34,24,female,35,75,125,change,catch,clock,3,2,1,0.3335658558207797,0,j,change,1.1926177798559365,0,0.49995253334054723,0.03532898564390052,0.35330493031074184,1.0010436250672683,6.651242888820889
34,24,female,36,75,75,same,valid,anti,2,2,1,0.269309789870249,0,j,change,0.9888883115916087,0.13222582751820972,0.5006068035118005,0.03528440547029277,0.3533196834616774,1.0010917331680957,4.885893357810573
34,24,female,37,45,95,change,valid,clock,1,0,1,0.2603972831111605,0,j,change,1.1909314305617045,0.060028253054821734,0.499364652348504,0.03529819645928001,0.35336779156250486,1.0010484358772374,5.061277533067823
34,24,female,38,165,165,same,valid,anti,1,2,2,0.5424637377172985,1,f,same,2.7488343407169396,0.1739348646084451,0.49924309921357235,0.03534213519151308,0.3532933843664523,1.0010529259666328,6.851180797298866
34,24,female,39,75,75,same,valid,clock,2,2,2,0.2518693204376632,1,j,change,1.8387519090897513,0.1632477726342436,0.49996311712266106,0.03533347573329593,0.3533158348134293,1.0010359277712269,5.7326918278447465
34,24,female,40,75,125,change,valid,clock,3,2,1,0.17602818236696294,0,j,change,1.3165490583962765,0.15363537137351718,0.5002665188785613,0.035302365828101756,0.3533501519254969,1.0010833944306796,5.097701779807267
34,24,female,41,165,215,change,valid,clock,1,1,2,0.36252853612177205,1,f,same,1.2579139429465158,0.12358140341857818,0.499467603684252,0.03534438023598341,0.35329595013172366,1.0010628683075993,5.202469036022649
34,24,female,42,135,185,change,valid,clock,4,1,2,0.26981492492882353,1,f,same,1.219199750607686,0.10816112473501227,0.49986401443516115,0.0354316162588475,0.3531503429467193,1.001087563799274,5.073432205102108
34,24,female,43,15,15,same,valid,clock,1,2,2,0.28635352783112467,1,f,same,1.0932758345311413,0.1817322535418278,0.4999291207313945,0.03529915862145572,0.35328632851155817,1.0011157872183958,4.955694684183072
34,24,female,44,15,15,same,valid,anti,2,2,3,0.2917348999897058,1,f,same,1.0330098544632165,0.17406857533655742,0.49985631713889234,0.035303969431424775,0.3533402095845304,1.001031437681604,4.896635255284082
34,24,female,45,165,115,change,catch,anti,4,0,2,0.7508138287055317,1,j,change,3.0433858096498625,0,0.5001096864698411,0.035336682939941966,0.35326323662320647,1.0010933367714188,8.947788278172538
34,24,female,46,135,185,change,valid,clock,2,0,2,0.28593338375048916,1,f,same,1.758405287016103,0.07538092338977315,0.5002867242808406,0.03530685591749716,0.35330044022134643,1.0010923746094704,5.662435078118051
34,24,female,47,135,85,change,valid,anti,1,0,2,0.39008774276157965,1,j,change,3.0715563098906387,0.06030630832535838,0.500324890040929,0.03529498925263397,0.35332128706500043,1.0010811493857545,7.12283248951735
34,24,female,48,15,15,same,catch,anti,2,2,2,0.5010195710169683,1,j,change,1.4479534493186748,0,0.49972578382516986,0.03529659285595699,0.35333187084711426,1.0010885259612223,7.111257039017119
34,24,female,49,45,355,change,catch,anti,5,0,2,0.2556467685149073,1,f,same,1.368414722618354,0,0.49977357120542365,0.035296913576758016,0.3532927429250776,1.0010917331680957,6.744992107064263
34,24,female,50,105,55,change,catch,anti,2,0,1,0.10498342194841825,0,j,change,1.173566330487347,0,0.5002549729342718,0.035356888342448656,0.3532783104947157,1.0010420214639453,6.439364228997192
34,24,female,51,75,125,change,valid,clock,4,1,1,0.1435786269178152,0,j,change,1.3124592283845686,0.0950123503348744,0.5070228205586318,0.03535496401832461,0.3532994780591707,1.0010676791175683,5.092597189589014
34,24,female,52,45,95,change,valid,clock,4,1,1,0.21816286067451074,0,j,change,0.9708420008096255,0.11598736612331915,0.4991696541796955,0.03532834420252584,0.3533030059863904,1.001069924162266,4.825112300343335
34,24,female,53,135,185,change,valid,clock,3,2,2,0.4218137523741916,1,j,change,1.4006028907194832,0.16687669451416476,0.4996985225682238,0.03531968474430869,0.35331326904815796,1.0010705656036407,5.4031429984434
34,24,female,54,75,25,change,valid,anti,3,2,2,0.17386331782972775,1,j,change,1.0872719435478757,0.16056406697710512,0.49997658739084727,0.035348870325606185,0.3532978744558477,1.001068962000545,4.825832318252424
34,24,female,55,45,95,change,catch,clock,5,2,1,0.24516305118231685,0,j,change,1.2893436066578943,0,0.5004551026338504,0.03530878024162121,0.3533206456233984,1.0010577367770566,6.6398063103715685
34,24,female,56,165,215,change,valid,clock,4,1,2,0.17537262931296027,1,f,same,1.9326977291052572,0.13563385348314633,0.5005352828018204,0.03531551537571431,0.3533283429196672,1.0010375313745499,5.721726708783763
34,24,female,57,105,105,same,catch,clock,3,1,2,0.19267903750437654,1,f,same,1.9524486702600825,0,0.4998091712000132,0.03529530997320762,0.35332064562362575,1.001063509748974,7.287503311441014
34,24,female,58,135,85,change,valid,anti,5,0,1,0.18277229666159656,0,j,change,1.050686053589743,0.04680265837519268,0.4995195604331002,0.03540371356052674,0.3533097411207109,1.0010272683130097,4.837629386737035
34,24,female,59,135,135,same,valid,clock,4,2,2,1.7400218988075267,1,j,change,1.535565356779216,0.15447746466040754,0.4994204577453729,0.035320005465109716,0.3533260978749695,1.0010465115533407,6.898949254933768
34,24,female,60,45,95,change,valid,clock,3,2,2,0.17417409616086843,1,j,change,1.418085374560178,0.14856093719964145,0.49893424520632834,0.0352892162804892,0.3533334744504373,1.001063830469775,5.178115753222073
34,24,female,61,15,65,change,valid,clock,2,2,2,0.1300974541834421,1,j,change,1.202267944161349,0.14323060890144865,0.5003261729236783,0.03529178204598793,0.3533559248974143,1.0010465115533407,4.932702539915226
34,24,female,62,45,355,change,valid,anti,5,0,2,0.21830173272564934,1,j,change,1.282171009545209,0.05874227539765994,0.49983033876446825,0.03531327033078924,0.35331775913755337,1.001065113352297,5.096702414192805
34,24,female,63,165,215,change,valid,clock,1,2,1,0.1480927703787529,0,j,change,0.9800777940063199,0.13793908744279273,0.5001763963696249,0.03533572077799363,0.35328985643900523,1.0010417007433716,4.732661680101728
34,24,female,64,165,165,same,catch,anti,4,2,1,0.09864790579013061,0,j,change,1.8434716345016113,0,0.49958113880211386,0.03532802348195219,0.3533074960760132,1.0010545295701831,7.098828150808004
34,24,female,65,105,155,change,valid,clock,4,2,2,0.3012336841375145,1,j,change,1.9405678936798267,0.15523021038958715,0.5002187314985349,0.03533155140939925,0.3533110240032329,1.0010490773188394,5.8509848369681094
34,24,female,66,105,155,change,valid,clock,4,0,1,0.23009976337220905,0,j,change,1.6203975781741065,0.04700823892511946,0.49958178024348854,0.035339569426241724,0.3532170528462757,1.0011321439728817,5.46220884175591
34,24,female,67,105,105,same,valid,clock,4,2,2,0.23772104870522526,1,f,same,1.1513349356539493,0.15093548751938551,0.4989919749273213,0.03534213519151308,0.35330557175188915,1.001039455698674,5.002151073548248
34,24,female,68,105,105,same,valid,clock,1,0,2,0.21681134376194677,1,f,same,1.0603265962747628,0.0575204943231539,0.4998912756923346,0.035321609068432736,0.3532860077909845,1.0011039205535326,4.872877871492392
34,24,female,69,165,165,same,valid,anti,5,0,2,0.9032020110469148,1,j,change,1.2768640445826804,0.0471442689488166,0.5003511891359267,0.035265803671563845,0.35337484741694425,1.001065113352297,5.79272336110148
34,24,female,70,165,215,change,valid,clock,1,0,1,0.10621563077097562,0,j,change,0.9771021476096848,0.037654674686719375,0.4989249443069639,0.03532385411313044,0.3532821591429638,1.00104779443609,4.672019815405974
34,24,female,71,15,15,same,valid,anti,1,2,2,0.26975238439786153,1,f,same,1.2158873475052587,0.14661761946241678,0.5001520215985238,0.03531968474430869,0.3533232113891245,1.0010166845306685,5.061858037484626
34,24,female,72,75,75,same,valid,clock,4,1,2,0.286351603507228,1,f,same,1.697233912490674,0.12522604197930293,0.49966099824951016,0.03531391177239129,0.3532882528356822,1.0011093728051037,5.544376836526681
34,24,female,73,45,45,same,catch,anti,5,0,2,0.19015849374159188,1,f,same,1.3132193363776423,0,0.4998640144349338,0.03532032618568337,0.35333700237788435,1.001031758402405,6.60470182919812
34,24,female,74,45,95,change,valid,clock,1,1,2,0.5838941134286415,1,j,change,1.4439938319001158,0.11585724310628612,0.5001010270118513,0.03535817122497065,0.35329017715980626,1.0010221367822396,5.651099205959781
34,24,female,75,165,115,change,catch,anti,1,1,2,0.1761651300939775,1,f,same,1.456928175888379,0,0.49970942707113863,0.03534630456033483,0.35329081860118094,1.001049077318612,6.733836159203065
34,24,female,76,105,55,change,valid,anti,4,0,1,0.04085243706026631,0,j,change,0.9722672834766399,0.04628087948195447,0.49972065229439977,0.03533636221936831,0.35328151770136174,1.001050680921935,4.649394254866593
34,24,female,77,165,165,same,valid,anti,3,2,1,0.08469976375727128,0,j,change,1.1247747739078022,0.14265486427020357,0.49933867397385256,0.0353459838395338,0.3532613122990824,1.001100392626313,4.814128900203968
34,24,female,78,75,75,same,valid,clock,5,1,2,0.10548246331427436,1,f,same,1.1835667217665105,0.10727956997883514,0.4996738270763217,0.03532834420252584,0.3533017231038684,1.0010554917321315,4.884712464295944
34,24,female,79,45,45,same,valid,clock,4,1,2,0.14155712452111402,1,f,same,0.9540808177607687,0.09932721406027209,0.5000785765646469,0.03526516223018916,0.3533283429196672,1.0010801872238062,4.720736002627518
34,24,female,80,75,125,change,valid,clock,4,0,2,0.1696285220741629,1,j,change,1.6255573323480803,0.05484655910919625,0.4993935172090005,0.03529723429733167,0.353338926701781,1.0010622268662246,5.414554239959216
34,24,female,81,135,135,same,catch,clock,1,2,1,0.09890416160737914,0,j,change,1.1679049691820182,0,0.4998313009264166,0.03535752978382334,0.353234692483511,1.0011497836096623,6.380694475714563
34,24,female,82,135,135,same,valid,clock,2,2,2,0.15922722995492222,1,f,same,1.0952659063020747,0.15621637647348274,0.5002264287945763,0.03525265412395129,0.3533158348134293,1.0010064214693557,4.8618797182018625
34,24,female,83,45,95,change,catch,clock,5,1,2,0.12320484621773176,1,f,same,1.378579002161132,0,0.4993203928956973,0.035336682939941966,0.3533055717521165,1.0010753764138371,6.604229728368864
34,24,female,84,15,15,same,valid,clock,3,0,2,0.2533972337200794,1,f,same,1.6424849694255954,0.04617778367466069,0.4999345729829656,0.035416221666764613,0.3532962708525247,1.0010570953354545,5.486083930034283
34,24,female,85,45,355,change,catch,anti,4,2,2,0.15498377474114022,1,f,same,2.0140203041844416,0,0.4992180830010966,0.03536843428651082,0.3533052510313155,1.001063509748974,7.286374053954205
34,24,female,86,75,75,same,valid,anti,5,2,1,0.856928753185457,0,j,change,1.0279376570329077,0.15267111982035575,0.5008678701387907,0.0353206469064844,0.35331230688598225,1.0010365692123742,5.534001843502438
34,24,female,87,135,85,change,valid,anti,3,1,1,0.13948783474415904,0,j,change,1.1329185132158273,0.09189526622347871,0.49926683254329873,0.03535175681167857,0.3533074960760132,1.0010663962350463,4.896288876958124
34,24,female,88,105,155,change,catch,clock,3,2,1,0.19835803844671318,0,j,change,1.1061069064630829,0,0.4997969838145764,0.03531423249296495,0.35332738075771886,1.001028230474958,6.4036773190830445
34,24,female,89,135,135,same,valid,clock,2,1,2,0.1632651032175545,1,j,change,2.869121911700404,0.10375665842636986,0.5004121260635657,0.03536426491768907,0.35328793211510856,1.0010833944306796,6.6167288544049825
34,24,female,90,75,75,same,valid,anti,3,1,2,0.23154749648642792,1,f,same,0.9827878836861146,0.0968780217613512,0.5000744071958252,0.035351756811451196,0.35326259518205916,1.0010952610955428,4.802682700134483
34,24,female,91,105,55,change,valid,anti,4,1,2,0.05560334293568303,1,j,change,2.2124864254974455,0.09065536272004303,0.5000455423353287,0.03536266131436605,0.35323789969015706,1.0010811493857545,5.815698186452892
34,24,female,92,45,45,same,valid,anti,2,0,1,0.037281533096120256,0,j,change,0.9289866702074505,0.038337431441883674,0.49941757125930053,0.0353309099677972,0.3533248149924475,1.0010349656090511,4.554307952140789
34,24,female,93,105,105,same,catch,anti,3,2,1,0.06425157586113528,0,j,change,1.3371313075331273,0,0.5003425296779369,0.03528825411854086,0.3533344366123856,1.0010833944304522,6.486610553377886
34,24,female,94,135,135,same,valid,clock,5,2,2,0.19453825524101376,1,f,same,2.576954359524052,0.16494540687092493,0.5008774917589562,0.035326419878401794,0.3533299465232176,1.0010667169558474,6.358116381834861
34,24,female,95,165,165,same,valid,clock,1,1,2,0.20216980363557013,1,f,same,1.0921148256979905,0.08467428132563151,0.4999419495584334,0.035337003660742994,0.35326900959512386,1.0010567746148809,4.873616811921011
34,24,female,96,135,185,change,catch,clock,5,1,2,0.16090973060113356,1,j,change,1.2692369862777468,0,0.4989502812400133,0.03535400185637627,0.3532837627462868,1.0011164286597705,6.509112957179468
34,24,female,97,75,125,change,valid,clock,5,2,2,0.1292395263853905,1,j,change,1.1799162790757691,0.16147250756637782,0.500122194576079,0.0353331550124949,0.3532702924781006,1.001051001642736,4.908547783210906
34,24,female,98,105,155,change,catch,clock,4,1,1,0.08165259665088342,0,j,change,0.8620157037669287,0,0.4995012793549449,0.03529402709068563,0.3533620185903601,1.0010567746146535,6.051037884167272
34,24,female,99,45,355,change,valid,anti,5,2,2,0.2779487218961094,1,f,same,2.4309087491958508,0.15817357971158919,0.4999015387536474,0.035328664923099495,0.3533100618415119,1.0010885259614497,6.2861133080477885
34,24,female,100,45,95,change,valid,clock,2,2,3,0.5852735330397536,1,j,change,1.1752016851946792,0.1551167558860892,0.49990859460831416,0.035288895559915545,0.353316476254804,1.0010763385757855,5.344218913667646
34,24,female,101,165,165,same,valid,clock,2,2,2,0.04256027463952705,1,f,same,1.4555965436575207,0.15223570572097112,0.5063159521971556,0.035311987448267246,0.3532366168076351,1.0011007133468866,5.162371896145487
34,24,female,102,45,45,same,valid,clock,2,0,3,1.6318780953554324,1,j,change,1.4515625190429091,0.045519232143547445,0.49977645769149603,0.03532930636470155,0.3533097411207109,1.0010740935310878,6.674645555549205
34,24,female,103,165,115,change,valid,anti,5,2,3,0.3217460161681629,1,j,change,1.1976223052247406,0.1492361170705407,0.49987139101040157,0.035265803671563845,0.35335335913214294,1.0010612647042763,5.097180608715007
34,24,female,104,165,215,change,valid,clock,4,0,2,0.25680040077259036,1,j,change,1.8025524875417887,0.03830695509823073,0.4994041009911143,0.035271255922907585,0.35327574472944434,1.001084677313429,5.638296357446961
34,24,female,105,165,165,same,valid,anti,1,0,1,0.15686319788028413,0,j,change,0.9941599972803488,0.031522979784968264,0.49999967927919897,0.03531134600689256,0.35331840057892805,1.0010849980340026,4.767825815320066
34,24,female,106,15,15,same,catch,anti,2,1,1,0.15207163103764287,0,j,change,0.8245212121446457,0,0.4995410487179015,0.035320005465109716,0.3532975537350467,1.0010773007379612,6.109772423025561
34,24,female,107,15,15,same,catch,clock,5,0,1,0.10106934686518798,0,j,change,0.9224045198523072,0,0.49982969732309357,0.035380300951601384,0.3532975537350467,1.0010471529947154,6.203914203371369
34,24,female,108,135,185,change,catch,clock,5,2,1,0.150148269166948,0,j,change,0.8940002142414869,0,0.49966677122142755,0.03532866492332687,0.353335719495135,1.0010612647042763,6.20332183228993
34,24,female,109,105,55,change,catch,anti,3,2,2,0.13545284796737178,1,j,change,1.0435233988180244,0,0.5002485585209797,0.03534309735346142,0.35325650148911336,1.001060302542328,6.333464508088355
34,24,female,110,45,45,same,valid,clock,1,2,3,0.268735058425591,1,f,same,0.9502263967226554,0.14642090229528942,0.5001244396207767,0.03530653519669613,0.35330044022111906,1.0010853187545763,4.850338264093125
34,24,female,111,135,85,change,valid,anti,2,0,3,0.15781156890784587,1,j,change,1.1773020848768283,0.03758677021379808,0.49908145599488307,0.03532706132000385,0.35331070328265923,1.001051001642736,4.943210632018463
34,24,female,112,15,325,change,catch,anti,3,1,2,0.1619520727856525,1,j,change,1.7087987792087915,0,0.4991876145372771,0.035332192850773936,0.3532754240088707,1.0010413800225706,7.027111159860624
34,24,female,113,105,105,same,catch,anti,2,0,1,0.09040923316342742,0,j,change,0.9077539995471398,0,0.5009342593180008,0.035308138800246525,0.3533232113888971,1.001068962000545,6.158031262568102
34,24,female,114,105,105,same,valid,clock,3,2,1,0.11832636407302743,0,j,change,0.8775453194346028,0.14377335258314883,0.5001186666486319,0.03526355862686614,0.35336843300387955,1.0010708863242144,4.637876213366553
34,24,female,115,15,15,same,valid,clock,5,1,2,0.3174878078036727,1,f,same,1.517945925211734,0.07887818299120736,0.49933193883975946,0.03532609915782814,0.35330493031074184,1.0010567746148809,5.414060650844704
34,24,female,116,75,25,change,catch,anti,3,1,1,0.11060854181778268,0,j,change,0.9364488780870488,0,0.49969884328879743,0.03530749735887184,0.3533857519200865,1.0010327205643534,6.192120983534778
34,24,female,117,45,45,same,valid,clock,1,0,1,0.07166792068437644,0,j,change,0.9971805445709379,0.03128233212879511,0.4999939063072816,0.03533155140939925,0.3533418131878534,1.0010404178606223,4.69670857202982
34,24,female,118,45,45,same,valid,clock,4,2,3,0.23815979458481706,1,f,same,1.1995033319669801,0.15307939886905175,0.49953046493601505,0.03534053158819006,0.3533501519254969,1.0010189295755936,5.085273853760327
34,24,female,119,75,75,same,valid,anti,3,2,2,0.3054793843959942,1,f,same,1.6936925148286264,0.15045140496580364,0.49917510643103924,0.035312308169068274,0.353314872651481,1.0010452286705913,5.567296497922598
34,24,female,120,135,135,same,valid,clock,1,2,3,0.5233173550293486,1,f,same,1.4740822417604704,0.14792597376319483,0.5000083387374161,0.03533989014681538,0.3532520113994906,1.0010917331680957,5.55664664728215
34,24,female,121,15,15,same,valid,clock,2,0,1,0.0955378774322071,0,j,change,1.2207174008283346,0.03695843307951513,0.4998104540825352,0.03533604149879466,0.35328696995293285,1.0011039205535326,4.978774385194356
34,24,female,122,45,355,change,catch,anti,1,0,1,0.14914569634538566,0,j,change,0.748903295661421,0,0.500201091861527,0.03533155140939925,0.35330332670719145,1.0010477944358627,6.015569064310284
34,24,female,123,15,15,same,catch,clock,2,0,1,0.12229143374315754,0,j,change,1.034779911853093,0,0.5003213621134819,0.035298517180081035,0.3533469447186235,1.0010234196647616,6.286733581827775
34,24,female,124,165,215,change,valid,clock,2,2,2,0.08838612716317584,1,j,change,1.2439510477624935,0.1455580840943058,0.5002261080737753,0.03533443789547164,0.3532997987797444,1.0010519638046844,4.9557501688593675
34,24,female,125,105,155,change,valid,clock,3,0,2,0.3496086245636434,1,j,change,1.604912221959239,0.04281100238766769,0.4996760721210194,0.035335079336618946,0.35331968346145004,1.001049077318612,5.544185366285319
34,24,female,126,75,25,change,valid,anti,2,2,3,0.054457728694842444,1,f,same,1.1242689974080804,0.14330292771591607,0.4996889009478309,0.03531872258236035,0.35331551409285566,1.0010320791229788,4.779212040623861
34,24,female,127,45,45,same,catch,clock,1,1,3,0.42855177297587943,1,f,same,1.1432665657039252,0,0.4995538775449404,0.03534021086738903,0.3532709339194753,1.0010994304643646,6.733774260113478
34,24,female,128,75,25,change,catch,anti,3,1,2,0.36083673457619625,1,f,same,2.5575481930918613,0,0.49979987030064876,0.03534758744285682,0.3533090996793362,1.001070244883067,8.040690473120776
34,24,female,129,135,185,change,valid,clock,1,1,2,0.2696564889167803,1,f,same,1.67592811751706,0.07355849333936604,0.5008069332111518,0.03531327033101661,0.3533434167911764,1.0010641511903486,5.557026380558
34,24,female,130,45,355,change,valid,anti,1,1,3,0.11806497672523619,1,j,change,1.1313405675089143,0.06831687025146116,0.49958787393620696,0.03528825411854086,0.3533158348134293,1.0010917331680957,4.861049051660984
34,24,female,131,135,185,change,valid,clock,4,2,2,0.4978733012228531,1,j,change,1.1653305443462614,0.1409375034336539,0.49958338384681156,0.035334437895244264,0.3532625951818318,1.0010885259614497,5.261237571271977
34,24,female,132,105,55,change,valid,anti,3,1,2,0.2857710990904252,1,f,same,1.0679334491776444,0.06347663626830347,0.500286082839466,0.035303969431424775,0.353377413182443,1.0009586340893293,4.944656440808785
34,24,female,133,45,95,change,valid,clock,5,2,3,0.18653274654275265,1,j,change,1.2004853786652347,0.13863062972177137,0.49966773338360326,0.03530332799005009,0.3533344366123856,1.0010641511903486,4.990760358155285
34,24,female,134,135,135,same,valid,anti,3,1,1,0.10126819368178985,0,j,change,0.8425935013012804,0.05865950369761899,0.499427192879466,0.035327061319776476,0.35328344202571316,1.0009842917429523,4.555058438513697
34,24,female,135,75,25,change,valid,anti,3,1,1,0.06534715767725174,0,j,change,0.8978312226706748,0.0665541580457617,0.4997261045459709,0.03537805590690368,0.35322346725979514,1.0010452286705913,4.590779344818884
34,24,female,136,105,105,same,valid,anti,1,0,1,0.15170665091272895,0,j,change,0.8402083016621873,0.036832058008376356,0.49965330095324134,0.035319364023735034,0.3533193627408764,1.001062226866452,4.5906860151033015
34,24,female,137,165,165,same,valid,anti,3,0,1,0.18789869588545116,0,j,change,0.8276078278936438,0.042330808689610366,0.4994839604385106,0.0353206469064844,0.3533113447242613,1.0010593403801522,4.637541380984658
34,24,female,138,135,185,change,valid,clock,3,0,2,0.15188946169610062,1,j,change,1.681943875165416,0.047499020447639095,0.49963020906488964,0.035341814470939426,0.353314872651481,1.0010481151566637,5.438661850725111
34,24,female,139,15,15,same,valid,clock,5,0,1,0.18505294136139128,0,j,change,0.8053931105350784,0.042068579333987444,0.49963341627176305,0.035329627085275206,0.3533132690479306,1.0010554917321315,4.625714485477374
34,24,female,140,135,135,same,valid,clock,5,0,2,0.137167420680953,1,j,change,1.2178892859410553,0.04695122302227683,0.49968729734473527,0.03534694600148214,0.35330717535521217,1.0010259854304877,4.967479565282474
34,24,female,141,15,65,change,valid,clock,5,2,2,0.5933415822689767,1,f,same,1.3954761707748276,0.13645458734308608,0.49982809371977055,0.035317439699610986,0.3533626600315074,1.0010696034416924,5.567846533875581
34,24,female,142,105,55,change,catch,anti,1,0,3,0.2501762360095654,1,f,same,0.9719577880280212,0,0.5002995531076522,0.03527414240897997,0.35335496273546596,1.0010721692069637,6.3218492882244846
34,24,female,143,135,135,same,valid,anti,4,2,2,0.162824112293265,1,j,change,1.3073867102334589,0.13438409799101708,0.5006988503446337,0.03531006312437057,0.3533283429196672,1.0010590196593512,5.086010228423675
34,24,female,144,105,155,change,valid,clock,2,2,3,0.14766204251600357,1,j,change,1.1467191237397856,0.13221945208632846,0.4996350198750861,0.03531872258236035,0.35326323662320647,1.0010673583969947,4.896339230103649
34,24,female,145,105,55,change,catch,anti,5,0,1,0.1452803708045849,0,j,change,0.8506795108880851,0,0.4995695928580517,0.03534694600148214,0.3533007609419201,1.0010481151566637,6.13314462128983
34,24,female,146,75,125,change,catch,clock,2,1,1,0.1287507480808472,0,j,change,0.8344597043339945,0,0.5001209116933296,0.03533411717467061,0.35329562941092263,1.0010756971346382,6.109912577959221
34,24,female,147,45,95,change,valid,clock,5,0,2,0.1292113029662687,1,j,change,0.9548835816033261,0.04183372700019192,0.5004188611976588,0.035366509962614145,0.35324687986894787,1.001112259291176,4.697007162975524
34,24,female,148,165,215,change,catch,clock,2,0,1,0.1341295544739296,0,j,change,0.9234285809586709,0,0.49947305593559577,0.03533411717467061,0.35330140238329477,1.0010869223578993,6.18012795471941
34,24,female,149,165,215,change,valid,clock,5,0,2,0.3424584778981625,1,f,same,1.2226070870287913,0.03682783345371182,0.5002963459010061,0.03533475861604529,0.35332417355084544,1.0010208538997176,5.156035417825478
34,24,female,150,135,135,same,valid,anti,5,1,3,0.19535160286568498,1,j,change,0.9940281810838769,0.07434278303480338,0.4997575351719661,0.03532353339232941,0.35328312130491213,1.0010808286651809,4.767202013612632
34,24,female,151,45,355,change,valid,anti,4,0,1,0.08941179187286252,0,j,change,0.9249029338886885,0.03217545824961926,0.5081463050735238,0.03532353339255678,0.35329659157309834,1.00107184848639,4.6345285309903375
34,24,female,152,75,75,same,valid,anti,1,0,1,0.09276941658981741,0,j,change,1.5214058598230622,0.03638895933812142,0.49900897312295456,0.035325778437254485,0.3532417483381778,1.0011016755090623,5.202060758606876
34,24,female,153,135,85,change,valid,anti,4,0,1,0.12458073790116941,0,j,change,1.3530031321581646,0.04081137482192723,0.49960358924931825,0.03529402709068563,0.35330204382466945,1.0010413800223432,5.049279372721685
34,24,female,154,165,165,same,valid,clock,3,0,2,0.15529070442448756,1,j,change,0.980966190268191,0.0450416805048032,0.4998976901056267,0.035324816275078774,0.35331391048930527,1.0010359277712269,4.720305595485115
34,24,female,155,105,155,change,valid,clock,5,2,3,0.07273271331609976,1,j,change,1.3146664280504865,0.13009507460986858,0.49982809371977055,0.035367151403761454,0.3532789519360904,1.001088205240876,4.978732691507275
34,24,female,156,105,55,change,catch,anti,5,0,1,0.09045573766070447,0,j,change,1.088145265938465,0,0.5004650449745895,0.03534919104617984,0.3532872906737339,1.0010259854302603,6.263786979895258
34,24,female,157,75,75,same,valid,anti,1,2,2,0.1631839608876362,1,f,same,1.2137333874709384,0.12803138093007976,0.5000144324301345,0.035338286543264985,0.35331679697560503,1.0010676791175683,4.979008511285201
34,24,female,158,135,135,same,catch,clock,4,1,1,0.09600965754088975,0,j,change,1.05832946864939,0,0.49979281444575463,0.0352811982638741,0.3533203249028247,1.0010920538888968,6.2271908268758125
34,24,female,159,165,165,same,valid,clock,4,2,1,0.15500269726089755,0,f,same,1.2352944760996252,0.12607924208490154,0.5004198233596071,0.03534887032583356,0.3532844041874341,1.0010471529949427,4.967789381451439
34,24,female,160,15,15,same,valid,clock,2,1,1,0.09720113483808746,0,j,change,0.9425663041879488,0.06997046545316399,0.5000064144137468,0.035251050520400895,0.353459838395338,1.0009907061562444,4.625604157566158
34,24,female,161,75,125,change,catch,clock,5,2,1,0.09572197109810077,0,j,change,0.907091711359044,0,0.5003335494989187,0.03530749735864447,0.35328440418788887,1.0010849980340026,6.098582158052523
34,24,female,162,135,185,change,valid,clock,5,2,3,0.0641508695698576,1,j,change,1.3010123868734809,0.13335207081343692,0.500062540530962,0.03532641987885654,0.35331968346145004,1.0010346448880227,4.955883588659162
34,24,female,163,135,185,change,valid,clock,1,2,2,0.4264718994172654,1,j,change,1.0134333853543467,0.13143494409846324,0.49950127935471755,0.03534919104640721,0.35329819517664873,1.0010737728107415,5.002251459118725
34,24,female,164,135,185,change,valid,clock,3,1,2,0.08920236127369208,1,j,change,1.3395261287923859,0.07705808962845337,0.4995259748461649,0.03532866492332687,0.3532799140980387,1.001102316950437,5.014126462726836
34,24,female,165,15,15,same,valid,anti,1,0,3,0.230420484044771,1,f,same,1.1552416341619391,0.040664433922678156,0.49989512434012795,0.03536875500731185,0.35325361500326835,1.0010875637995014,4.967563914819493
34,24,female,166,75,75,same,valid,clock,4,0,1,0.07756629456662267,0,j,change,0.9369395807152614,0.03637863665157104,0.49965747032229046,0.035342455912086734,0.3532821591429638,1.0010981475816152,4.602468330437205
34,24,female,167,165,165,same,catch,anti,2,2,1,0.04490474275326051,0,j,change,0.8929261207103991,0,0.49954008655595317,0.03535945410749264,0.35326451950595583,1.0010561331737335,6.038631767125935
34,24,female,168,15,15,same,catch,clock,3,2,3,0.2361100687689941,1,j,change,1.4980602813743644,0,0.4997504793168446,0.03536201987299137,0.3533046095899408,1.0010679998385967,6.851389265735634
34,24,female,169,165,215,change,catch,clock,4,1,1,0.0660165017197869,0,j,change,0.8987398243348252,0,0.5005461873047352,0.03525842709632343,0.35337196093087186,1.0010657547936717,6.098935592233374
34,24,female,170,75,125,change,catch,clock,4,1,1,0.10015016141869637,0,j,change,0.9333888821533947,0,0.4992912073143998,0.035359133386918984,0.3533289843608145,1.0010426629050926,6.109336242911013
34,24,female,171,135,135,same,valid,clock,3,0,2,0.06281763373590366,1,j,change,1.0657252873497782,0.04039851788907636,0.4996702991488746,0.0352975550181327,0.353354000573745,1.0010859601957236,4.719461779397079
34,24,female,172,165,215,change,valid,clock,3,2,1,0.05604625818386921,0,j,change,0.842104081555135,0.12953759045505275,0.4998030775072948,0.035282160425595066,0.35333315372963625,1.001043945787842,4.460980481581373
34,24,female,173,105,105,same,valid,clock,3,0,1,0.06317331296122575,0,j,change,0.8612443705501391,0.036310916154911776,0.49944611539922334,0.035308138800246525,0.3532856870701835,1.0011026376705559,4.484211883470834
34,24,female,174,15,15,same,valid,clock,3,1,2,0.19587020819244572,1,f,same,0.9830495917544795,0.07313377288933404,0.4999903783800619,0.03531102528631891,0.3532754240086433,1.001134389017352,4.766811055113521
34,24,female,175,165,115,change,catch,anti,2,2,1,0.07513298682670211,0,j,change,0.786687398050617,0,0.500469535063985,0.035303969431424775,0.353335719495135,1.0010548502909842,5.96868804077485
34,24,female,176,15,65,change,valid,clock,5,1,1,0.040026902049703494,0,j,change,0.9085182769090352,0.06917610145064734,0.5006446485508604,0.035340852308763715,0.35331455193090733,1.001063830469775,4.531949551921116
34,24,female,177,15,15,same,valid,anti,2,0,1,0.040204260581958806,0,j,change,1.5209552472788346,0.040153860311897216,0.5003056468008253,0.03532802348172481,0.3532965915733257,1.001051963804457,5.144520583532085
34,24,female,178,105,105,same,valid,clock,4,1,2,0.1981874150492331,1,f,same,1.2718053174203305,0.07567840158138966,0.49944162530982794,0.035319043302934006,0.35332064562362575,1.0010384935367256,5.0851202285584804
34,24,female,179,105,55,change,valid,anti,3,0,2,0.1316648161082412,1,f,same,1.3251318643042396,0.04388485456833599,0.4996096829418093,0.03534534239815912,0.3532847249084625,1.0010612647042763,5.037744974467387
34,24,female,180,75,25,change,valid,anti,2,1,2,0.11773142722631746,1,f,same,0.8935120773780909,0.07212344279592278,0.4996096829418093,0.03531359105181764,0.3532888942768295,1.0010731313691394,4.614192595329314
34,24,female,181,135,135,same,valid,anti,1,2,3,0.17660323453173987,1,j,change,1.206803575907088,0.13607213326471532,0.4997604216578111,0.035303969431424775,0.3533267393163442,1.0010712070452428,4.9548466987262145
34,24,female,182,75,125,change,valid,clock,2,1,3,0.12134723208464493,1,j,change,0.9906032050257636,0.06851353555085149,0.5006494593612842,0.03536811356616454,0.3532975537350467,1.001010270117149,4.673669923264242
34,24,female,183,165,165,same,catch,clock,5,1,1,0.04207053417303541,0,j,change,1.7145380756373925,0,0.49986080722828774,0.0353395694264691,0.3532911393217546,1.0010962232572638,6.839538636898396
34,24,female,184,135,135,same,valid,anti,1,1,3,0.061845850099416566,1,j,change,1.0747757039976022,0.06514226162909811,0.5003614521979216,0.03531102528631891,0.3533030059866178,1.001069282721346,4.7325503900283366
34,24,female,185,45,45,same,valid,clock,2,1,1,0.05406356298863102,0,j,change,0.9072594482704517,0.061929238392607944,0.49987267389315093,0.035341814470939426,0.35329562941115,1.0010410593017696,4.543783182562493
34,24,female,186,75,125,change,catch,clock,1,2,1,0.052391004683158826,0,j,change,0.8245975436648223,0,0.4992424577726524,0.03532866492287212,0.3532811969807881,1.0011016755092896,5.967357049985367
34,24,female,187,75,75,same,catch,clock,3,0,2,0.01663930919357881,1,j,change,1.244159836920062,0,0.5006093692772993,0.03534566311873277,0.35333315372963625,1.0010699241624934,6.333898763878096
34,24,female,188,165,165,same,valid,clock,5,2,2,0.02007422759243127,1,j,change,1.0684716184655372,0.13440764755411244,0.5000788972856753,0.03535400185637627,0.35328504562858143,1.0010724899279921,4.696325631547097
34,24,female,189,15,325,change,valid,anti,2,2,3,0.04343423847149097,1,j,change,0.9656264412387827,0.1326558205734551,0.49985760002118695,0.03530108294535239,0.3533466239982772,1.0010259854302603,4.57911056460307
34,24,female,190,105,155,change,catch,clock,5,2,1,0.043502231253569335,0,j,change,0.841134542963573,0,0.49904104519009707,0.0353309099677972,0.3533081375171605,1.001048435877692,5.97914225180557
34,24,female,191,75,75,same,valid,clock,3,0,1,0.03062561698607169,0,j,change,0.8669599336494684,0.039928847509469956,0.5005006449691791,0.035304610872572084,0.35332256994797717,1.0010667169553926,4.484879944630848
34,24,female,192,75,125,change,catch,clock,4,2,1,0.04314943851431963,0,j,change,0.875573208021251,0,0.5001821693417696,0.035329947806076234,0.35322154293589847,1.0010753764136098,6.003626067919413
34,24,female,193,45,355,change,valid,anti,3,0,2,0.07649284247690957,1,j,change,1.0525664388910627,0.04352268686726471,0.5000949333189055,0.035317439699610986,0.3533046095899408,1.001060623263129,4.720314575663906
34,24,female,194,135,135,same,valid,anti,4,1,2,0.14103050117728344,1,f,same,1.5936177227677035,0.06736548654861857,0.4999464396478288,0.035368434286283446,0.3532895357184316,1.0010298340785084,5.308686911838322
34,24,female,195,75,125,change,valid,clock,2,0,2,0.12041008628011696,1,f,same,0.8878176818438988,0.03972301511268725,0.499915009022061,0.03528761267716618,0.3533155140926283,1.00107986650346,4.5902129521118695
34,24,female,196,45,355,change,valid,anti,2,1,2,0.04630629209032122,1,j,change,1.2309095830696606,0.06428207422829973,0.5004631206506929,0.03526195502354312,0.3533687537242258,1.0010744142518888,4.849762249765718
34,24,female,197,105,155,change,valid,clock,1,1,3,0.0533156423807668,1,j,change,1.194933383109401,0.06116104918472551,0.5004900611870653,0.03533764510166293,0.35328247986353745,1.00108563947515,4.8027452406658995
34,24,female,198,45,95,change,catch,clock,4,2,3,0.021625874204346474,1,j,change,0.9987244938865842,0,0.5002504828448764,0.03531679825846368,0.35331968346145004,1.001042342184519,6.109598271700634
34,24,female,199,135,85,change,valid,anti,4,2,3,0.021800346250074654,1,j,change,1.1022114331790362,0.13093067505719552,0.5006763998976567,0.0353520775324796,0.35332770147806514,1.0010676791175683,4.73279574134267
34,24,female,200,165,165,same,catch,clock,4,0,1,0.015949439027281187,0,j,change,0.8442323839358323,0,0.49934925775642114,0.03529947934202937,0.35330621319326383,1.0010971854194395,5.956180896722344
34,24,female,201,15,325,change,valid,anti,5,2,1,0.017369269442951918,0,j,change,0.9791130662242722,0.1292189470717836,0.5063919629965312,0.035332513571120217,0.35336073570761073,1.001067037676421,4.644205635831895
34,24,female,202,105,55,change,valid,anti,2,1,2,0.1877251860018987,1,f,same,1.4184946141376713,0.058120574358382554,0.4996116072661607,0.03531134600689256,0.3532921014839303,1.001015080927118,5.167299769273541
34,24,female,203,135,135,same,valid,anti,1,0,1,0.1370028909764187,0,j,change,1.9615744562661348,0.03613758185240573,0.4994679244045983,0.035341814470939426,0.3532648402265295,1.0010721692069637,5.69714378998151
34,24,female,204,105,55,change,valid,anti,5,2,3,0.1577163148681393,1,f,same,1.0812398291454883,0.13516094090316888,0.49973283968029136,0.03531776042018464,0.35328985643900523,1.0010744142518888,4.814357894763816
34,24,female,205,75,75,same,valid,anti,5,0,3,0.7469440130753355,1,j,change,2.097859895098736,0.03953276486417248,0.4997158414844307,0.0353145532135386,0.35334053030510404,1.001067679118023,6.474674292121108
34,24,female,206,75,125,change,valid,clock,4,2,3,0.02083048693748424,1,j,change,1.153511346135474,0.13366744538596798,0.5001404756544616,0.03529851717985366,0.35331326904815796,1.0010740935313152,4.778738336191054
34,24,female,207,165,165,same,valid,anti,5,2,2,0.1889881840088492,1,j,change,1.1628433555338233,0.13208214591610012,0.5004111639018447,0.03530910096196749,0.35334245462945546,1.0010433043466946,4.956612907467388
34,24,female,208,105,55,change,catch,anti,3,1,3,0.10914862131812697,1,f,same,0.8823760141990533,0,0.49950929737133265,0.035297234297559044,0.3533337951712383,1.001031116960803,6.14467292585141
34,24,female,209,45,45,same,valid,anti,4,2,3,0.0616681708465876,1,f,same,1.0969609150542965,0.13051047939147364,0.500165812587511,0.03531102528631891,0.3532548978860177,1.0011375962239981,4.755727590124025
34,24,female,210,165,215,change,valid,clock,3,1,3,0.11572018789092908,1,f,same,0.8346614376368962,0.05526992441374651,0.49985727930106805,0.03534790816365785,0.3533020438244421,1.0010532466876612,4.531632038455882
34,24,female,211,15,325,change,valid,anti,1,0,3,0.0947399244000735,1,j,change,1.1097650464498656,0.03608803259637644,0.499431362247833,0.03531519465514066,0.35332224922694877,1.0010619061454236,4.76612888224372
34,24,female,212,75,25,change,valid,anti,4,0,1,0.030921321445930516,0,j,change,0.9814681181201195,0.032818633912229694,0.5007007746689851,0.03533219285054656,0.3533344366123856,1.0010452286705913,4.614727557410788
34,24,female,213,135,85,change,valid,anti,5,1,2,0.01732821719679123,1,j,change,1.1721448964681258,0.05253658389431276,0.5002254666324006,0.035322571230608446,0.35331679697537766,1.0010567746148809,4.755733363096169
34,24,female,214,15,65,change,valid,clock,2,1,1,0.051746035411269986,0,j,change,0.7801671467855158,0.04970983445038435,0.4996680541044043,0.03534438023598341,0.3532606708581625,1.0010449079500177,4.4023023895611
34,24,female,215,15,15,same,catch,anti,4,2,2,0.10790871519930079,1,f,same,1.3475239401946055,0,0.4993357874877802,0.035315836096742714,0.35332866364024085,1.0010567746148809,6.55646062929236
34,24,female,216,105,55,change,valid,anti,1,0,2,0.014866686038203625,1,j,change,1.1298982866460392,0.03579975116410805,0.5002155242914341,0.035270293760731874,0.3533629807525358,1.0010445872289893,4.743588312682277
34,24,female,217,165,165,same,valid,anti,2,1,1,0.02305725056430674,0,j,change,0.9442436733038448,0.05439790210695111,0.49995381622284185,0.03530076222477874,0.35332706003691783,1.001048756597811,4.543253031291442
34,24,female,218,75,25,change,valid,anti,1,2,3,0.1247706045396626,1,f,same,1.143561628722182,0.1289536780936866,0.5001456071854591,0.03533283429169387,0.35330140238329477,1.0010471529949427,4.873523161484627
34,24,female,219,15,15,same,valid,clock,1,1,2,0.04788135131138915,1,j,change,2.1987983879294006,0.0587897402338389,0.4998181513792588,0.03532866492332687,0.35328183842239014,1.0010907710061474,5.8156481540281675
34,24,female,220,45,45,same,valid,clock,5,1,2,0.23808699099254227,1,f,same,1.6054199227833124,0.05620938179100199,0.49955227394184476,0.03535303969420056,0.3533193627408764,1.0010679998385967,5.426633221914926
34,24,female,221,135,85,change,valid,anti,2,1,2,0.0814389966831186,1,j,change,1.5364915980803744,0.05374817315643343,0.49983931894348643,0.035357529783595965,0.3533090996793362,1.0010766592963591,5.167769625058554
34,24,female,222,45,45,same,valid,anti,1,2,3,0.1231230624462114,1,f,same,0.9297916790947056,0.12747029622784084,0.49982713155759484,0.03532770276115116,0.3532414276178315,1.0011315025312797,4.660655078387663
34,24,female,223,75,25,change,valid,anti,2,0,2,0.13463372737078316,1,f,same,1.2319006099464787,0.03264694838653093,0.5006090485562709,0.03530781807967287,0.35332064562362575,1.0010696034419198,4.920835233603157
34,24,female,224,105,55,change,catch,anti,1,1,2,0.11494564746772085,1,f,same,1.179955727718152,0,0.5000782558436185,0.03533219285100131,0.35327317896371824,1.0010763385757855,6.404605484708554
34,24,female,225,165,165,same,valid,clock,4,0,3,0.08315132435200212,1,j,change,1.0733411204314507,0.029439153225181813,0.5000570882798456,0.035322250509580044,0.3532625951816044,1.0010904502855738,4.755935417119872
34,24,female,226,165,165,same,catch,clock,3,0,2,0.10261618266713413,1,j,change,1.5690668760330482,0,0.49908626680462476,0.0352642000684682,0.35335945282486136,1.0010949403749692,6.757173078193318
34,24,female,227,165,215,change,catch,clock,2,1,3,0.06023487016273066,1,j,change,1.0053967667508914,0,0.4992860757838571,0.035311666727920965,0.35331583481320195,1.001051001642736,6.179412747620518
34,24,female,228,105,105,same,valid,clock,2,2,2,0.033260337308547605,1,j,change,1.1517663049580733,0.12605020963001934,0.5000715207102076,0.03529242348713524,0.35332609787519687,1.001073452089713,4.81426424432766
34,24,female,229,75,125,change,valid,clock,2,2,2,0.32744522251277886,1,f,same,1.4822747306106976,0.12467759481822044,0.49968184509316416,0.03535817122519802,0.3532831213051395,1.001031758402405,5.356189171315691
34,24,female,230,105,155,change,valid,clock,1,0,3,0.02846043172849022,1,j,change,1.137132462127738,0.02640714812769812,0.499237967683257,0.03530878024139383,0.3533395681433831,1.0010625475865709,4.743254763182904
34,24,female,231,15,325,change,valid,anti,3,1,1,0.02174710661847712,0,j,change,1.6350025561437178,0.05122270127633882,0.4999118018149602,0.03531294961067033,0.35333155012631323,1.001059981821527,5.2498632126335
34,24,female,232,165,215,change,catch,clock,4,1,3,0.12227796347497133,1,j,change,0.9884851657070612,0,0.49992206487650037,0.03529178204598793,0.35334983120492325,1.0010593403803796,6.192396803312931
34,24,female,233,75,125,change,valid,clock,3,0,1,0.02284749924456264,0,j,change,0.8603187706903554,0.02352632732131224,0.4998050018316462,0.03531711897903733,0.3533289843608145,1.0009964791283892,4.4726114167579
34,24,female,234,45,45,same,valid,clock,3,0,3,0.5541905683749064,1,f,same,0.9714815178299432,0.026143150641480734,0.5000987819671536,0.03533668294039671,0.35331679697537766,1.0009567097649779,5.085727032069826
34,24,female,235,105,105,same,valid,anti,3,2,3,0.07572920655593407,1,j,change,1.1271853104799447,0.12322700407359466,0.49922096948739636,0.03532192978900639,0.35335335913214294,1.0010737728107415,4.778247312841813
34,24,female,236,45,45,same,valid,clock,4,0,3,0.04686081813269993,1,j,change,0.9677730246971805,0.023354629404417293,0.4995997406012975,0.03534951176652612,0.35327349968474664,1.001089488123398,4.60219122777653
34,24,female,237,75,25,change,catch,anti,3,2,2,0.17150217224116204,1,f,same,0.9170856882251428,0,0.4997023712162445,0.035351756811451196,0.35330076094214746,1.001002252100534,6.203580012431303
34,24,female,238,135,135,same,valid,clock,3,2,2,0.18924636415022178,1,f,same,1.7655698661119459,0.12179593960598278,0.5004698557845586,0.03533347573329593,0.3532917807629019,1.001022457502586,5.556905468864443
34,24,female,239,105,155,change,valid,clock,2,0,1,0.019605975411195686,0,j,change,1.068277903179478,0.020518339970847232,0.49980981264116053,0.03533347573329593,0.3533142312103337,1.0010532466872064,4.6615431539285055
34,24,female,240,165,115,change,valid,anti,4,1,1,0.058110416430281475,0,j,change,0.8678326145982282,0.05536503672617335,0.49885695152443077,0.035332513571574964,0.35331198616495385,1.001052605246059,4.4949444800445235
34,24,female,241,165,165,same,catch,clock,1,0,1,0.041907287351023115,0,j,change,0.8711453384212291,0,0.5003098161691923,0.03529530997320762,0.353354000573745,1.0010458701117386,5.99265613804846
34,24,female,242,135,135,same,valid,clock,4,0,1,0.02824137950938166,0,j,change,0.8004963473122189,0.02310986953524513,0.5001318161962445,0.035355926180272945,0.35330685463441114,1.001026947592436,4.426022249034304
34,24,female,243,135,85,change,valid,anti,2,2,1,0.05931825048173778,0,j,change,0.8389276640177741,0.12036944841956478,0.49922994966618717,0.03532770276115116,0.3533209663441994,1.0010779421791085,4.48402618620139
34,24,female,244,45,95,change,valid,clock,2,1,1,0.1041527554075401,0,j,change,0.9188137312062281,0.05965407899087574,0.499959909916015,0.035332513571120217,0.35332160778580146,1.0010516430843381,4.602757941204345
34,24,female,245,165,115,change,valid,anti,1,0,2,0.2609611100529037,1,j,change,0.9392029064993039,0.025581147342930266,0.49970269193681816,0.03534887032583356,0.3532953086901216,1.0010683205591704,4.802729846073362
34,24,female,246,105,155,change,valid,clock,5,1,2,0.43046551322686355,1,j,change,0.9251527752921902,0.06379528482481941,0.49959781627740085,0.03531776042018464,0.35330717535543954,1.0010340034473302,4.943660603121771
34,24,female,247,165,165,same,valid,clock,4,1,3,0.07297710246803035,1,j,change,1.070794277573441,0.061424802801753914,0.49984573335632376,0.03533379645432433,0.3533110240032329,1.0010898088439717,4.743673624381245
34,24,female,248,135,135,same,valid,anti,4,0,1,0.02370510632181322,0,j,change,0.9502170958230636,0.022959405688364243,0.4999092360499162,0.03531615681686162,0.35323340960076166,1.0010753764140645,4.555580892488706
34,24,female,249,105,105,same,valid,clock,2,1,1,0.06475703164051083,0,j,change,0.8037792441127749,0.05907293307809017,0.4995278991705163,0.03533475861604529,0.35330845823773416,1.0010740935313152,4.425616858105059
34,24,female,250,165,115,change,valid,anti,5,1,1,0.059510041443445516,0,j,change,1.1886353912695995,0.06302800287464905,0.4992206487668227,0.035322250509580044,0.3533238528302718,1.001073452089713,4.8021990533607095
34,24,female,251,75,75,same,valid,clock,1,0,2,1.3959684770065905,1,j,change,1.6794294250953499,0.025363427312100006,0.5028435094795896,0.035337645102117676,0.3532856870701835,1.0010651133520696,6.713301056004639
34,24,female,252,135,85,change,catch,anti,2,0,2,0.171536489353457,1,j,change,1.1255634260405714,0,0.49951763610897615,0.03533155140939925,0.35328696995293285,1.0010821115479303,6.4041686631530865
34,24,female,253,165,165,same,catch,clock,5,0,2,0.17054802824122817,1,j,change,0.9932687145324053,0,0.49995413694387025,0.035368434286283446,0.3533084582381889,1.001064792631496,6.262986140376597
34,24,female,254,75,75,same,valid,clock,1,1,2,0.11866344149939323,1,f,same,1.1152528978714145,0.06671386439534183,0.49978094778089144,0.035317439700065734,0.3533132690477032,1.0010394556984465,4.826474080317439
34,24,female,255,75,125,change,valid,clock,3,1,2,0.029311303671875066,1,j,change,1.0930882129382553,0.06459765354101313,0.4989756181730627,0.0353434180738077,0.35328857355625587,1.0010801872240336,4.719142341607039
34,24,female,256,165,165,same,valid,clock,1,0,2,0.028367102012907708,1,j,change,1.0510568066865744,0.022817133795311556,0.4994182127006752,0.03534213519151308,0.353255539327165,1.00108563947515,4.661022944998422
34,24,female,257,15,15,same,valid,anti,4,2,3,0.12360831282330764,1,f,same,1.5893005017996984,0.1252939058629483,0.4998008324628245,0.03535303969420056,0.3533017231038684,1.0010558124527051,5.285811509895211
34,24,female,258,75,75,same,valid,anti,5,1,2,0.13505868226138773,1,f,same,1.460730640177644,0.06243674528407672,0.49924598569941736,0.035325778437254485,0.3533863933612338,1.001042342184519,5.155500135023431
34,24,female,259,165,115,change,valid,anti,3,1,2,0.12181676714817513,1,f,same,2.0479753224685737,0.06028776252934623,0.499612248707308,0.035345983839761175,0.3533238528302718,1.0010583782182039,5.732554880117732
34,24,female,260,105,155,change,valid,clock,3,1,3,0.11677792466798564,1,j,change,1.2451239232605076,0.0581899084087783,0.5000186017991837,0.03531262888918718,0.35330781679658685,1.0010715277658164,4.991613795863486
34,24,female,261,15,15,same,catch,clock,4,2,1,0.02679589144008787,0,j,change,0.9420993348894626,0,0.4996093622216904,0.03535560545969929,0.3532680474336303,1.0010522845254854,6.085845057277766
34,24,female,262,45,45,same,catch,clock,1,1,1,0.023787531535162998,0,j,change,0.8816691458373498,0,0.5003406053538129,0.03531615681731637,0.3532985158972224,1.0010843565928553,6.01592795074248
34,24,female,263,165,115,change,valid,anti,1,2,2,0.01427752216341105,1,j,change,1.3092154595060492,0.12404090718918946,0.4998659387592852,0.035308138800246525,0.35330044022111906,1.001088846681796,4.908423022869556
34,24,female,264,15,15,same,valid,clock,5,2,2,0.13848782768809542,1,f,same,1.042574065628287,0.12270771019023338,0.49947594242166815,0.035294027090913005,0.35332128706477306,1.0010728106485658,4.779099146947374
34,24,female,265,135,135,same,valid,clock,1,1,1,0.03335462918585108,0,j,change,1.2523160843343248,0.056211244298238844,0.4995025622374669,0.03528761267716618,0.3533402095845304,1.0010657547936717,4.83767236330732
34,24,female,266,105,105,same,valid,anti,4,2,2,0.046008021865418414,1,j,change,1.1436584863654389,0.12138522007964685,0.49964047212688456,0.03532353339232941,0.3533065339138375,1.0010420214639453,4.743550467642763
34,24,female,267,45,45,same,catch,clock,3,1,2,0.13858179884482524,1,f,same,1.5243856755882916,0,0.4998992937089497,0.035322250509580044,0.35330525103154287,1.0010433043466946,6.78080858812973
34,24,female,268,135,135,same,catch,clock,5,2,1,0.005912806312608154,0,j,change,0.9016202166917537,0,0.5006703062049382,0.0352638793474398,0.35336843300365217,1.0010522845254854,6.016043730905039
34,24,female,269,105,105,same,catch,anti,5,0,1,0.030803296238900657,0,j,change,0.8041474314441075,0,0.49994002523453673,0.0353100631241432,0.35330140238329477,1.0010824322689587,5.9333333974777815
34,24,female,270,135,85,change,valid,anti,4,1,2,0.03696722683753251,1,j,change,1.1744826294479935,0.05974166924517199,0.4994906955726037,0.03533026852664989,0.3533129483275843,1.0010760178552118,4.790284280389187
34,24,female,271,15,65,change,valid,clock,1,1,2,0.12610319893246924,1,f,same,1.015908707502149,0.05776471330971664,0.49952950277383934,0.0353354000571926,0.3532603501371341,1.001065434073098,4.7081589414679
34,24,female,272,15,15,same,valid,clock,3,2,2,0.11913169368108356,1,f,same,1.1469154047913435,0.12006090792308541,0.49976234598170777,0.035320646906257025,0.3533228906685508,1.0010420214639453,4.825643413776561
34,24,female,273,135,185,change,valid,clock,5,1,1,0.07719746579323328,0,j,change,0.8685458973732239,0.05589094451860199,0.5004788359638042,0.03530332798982272,0.35332962580241656,1.0010548502909842,4.496816205887171
34,24,female,274,165,115,change,valid,anti,3,2,1,0.03492936768634536,0,j,change,0.8325738667813312,0.11875290858469599,0.5002055819509224,0.035337645102117676,0.3532513699583433,1.0010837151512533,4.46078644557474
34,24,female,275,15,65,change,valid,clock,3,0,1,0.03457080197495088,0,j,change,0.7255910721628425,0.02020402005514818,0.5003813368789451,0.035280556822726794,0.35337388525476854,1.001062226866452,4.331545315585572
34,24,female,276,105,55,change,valid,anti,3,2,3,0.1278562581260303,1,f,same,0.838527083898498,0.12339910905875195,0.5000952540394792,0.03533604149879466,0.3533264185957705,1.0010660755142453,4.555402251074156
34,24,female,277,45,95,change,valid,clock,3,1,2,0.07853711604093405,1,j,change,1.0030032283743822,0.05924819200205314,0.5002046197887466,0.03534470095655706,0.3532510492377696,1.001068641279744,4.625839887260554
34,24,female,278,135,185,change,valid,clock,4,0,1,0.08637873647603556,0,j,change,0.7758989960802865,0.022605625961632125,0.5004217476839585,0.035334117174443236,0.35332032490259735,1.0010728106485658,4.449738580580288
34,24,female,279,105,155,change,valid,clock,3,2,2,0.05770759126608027,1,j,change,1.241032168924903,0.12216316020704786,0.4998258486753002,0.03530942168299589,0.3532497663545655,1.0011157872186232,4.873502314640973
34,24,female,280,105,105,same,catch,anti,4,0,1,0.02325224873266052,0,j,change,0.7507724557390247,0,0.49975112075844663,0.03535047392915658,0.3533010816627211,1.0010606232626742,5.861844759648648
34,24,female,281,45,45,same,valid,anti,3,0,3,0.11455725473388156,1,f,same,0.9750363857601769,0.024888944862692303,0.5005439422598101,0.03535720906302231,0.3532962708522973,1.0010417007433716,4.6977040889960335
34,24,female,282,105,55,change,catch,anti,3,0,1,0.05688045265196706,0,j,change,0.8364023094454751,0,0.49907472086078997,0.03530461087302683,0.3533344366123856,1.0010606232626742,5.99133348599662
34,24,female,283,15,325,change,valid,anti,4,0,1,0.02711115986085133,0,j,change,0.7789003001303172,0.022404708574830207,0.5002206558224316,0.03534598383930643,0.3532866492323592,1.0010660755142453,4.401985196816895
34,24,female,284,165,165,same,valid,clock,1,2,2,0.11161368040484376,1,f,same,1.0870028589042704,0.1209305095630115,0.5000814630507193,0.035305573034747795,0.3533129483275843,1.0010644719109223,4.779257903679991
34,24,female,285,45,355,change,valid,anti,3,1,2,0.1341180085300948,1,f,same,0.9534146809246522,0.057379099387583565,0.49930435686201236,0.035274783850582025,0.3533633014726547,1.0010785836207106,4.637097503574751
34,24,female,286,105,105,same,valid,clock,1,2,1,0.01892540614471727,0,j,change,0.7954674471725411,0.11969072226183596,0.4998932000162313,0.03532353339232941,0.353314872651481,1.0010272683130097,4.401611236512963
34,24,female,287,165,215,change,valid,clock,3,0,1,0.03299125266448755,0,j,change,0.7958802146777089,0.024634065267614635,0.5004063530918756,0.03532609915782814,0.35330332670719145,1.001066396234819,4.379555596608043
34,24,female,288,135,85,change,valid,anti,1,2,1,0.07025867405127428,0,j,change,0.7838442092920559,0.12400344217652766,0.4995830631264653,0.03533379645386958,0.3533100618415119,1.0010516430838834,4.401727337396096
34,24,female,289,105,105,same,catch,clock,3,2,1,0.06280159770176397,0,j,change,0.8907416922120319,0,0.500084990977939,0.035346625280908484,0.3532638780643538,1.0010875637995014,6.038759093233239
34,24,female,290,15,325,change,valid,anti,4,1,1,0.05573259336642877,0,j,change,0.8185038508931939,0.05559939756330484,0.5007257908810061,0.03531679825846368,0.35331326904815796,1.001066396234819,4.449750126524123
34,24,female,291,165,165,same,catch,clock,3,1,2,0.06720509253091222,1,j,change,0.9529137152344447,0,0.5003434918398852,0.035350153208582924,0.3533321915679153,1.001051001642736,6.109860300489345
34,24,female,292,75,75,same,valid,clock,2,0,1,1.1991470113002833,0,j,change,0.7581743681321313,0.02680220911334452,0.5002097513192894,0.03529338564931095,0.3532176942876504,1.0011523493753884,5.533454694035754
34,24,female,293,45,45,same,valid,anti,3,2,3,0.15152127436431329,1,f,same,0.9213605740642379,0.12798761093083816,0.4997212937360018,0.03532609915782814,0.3533135897687316,1.0010522845254854,4.637829388148475
34,24,female,294,75,25,change,valid,anti,5,0,3,0.10813803047994952,1,f,same,1.064628743371486,0.029140936905946407,0.4990958884250176,0.03538767752706917,0.3532892149974032,1.0010619061454236,4.719149718182962
34,24,female,295,135,135,same,valid,anti,3,2,2,0.43371120642905225,1,f,same,1.7701792636125901,0.12688818947021857,0.5003078918452957,0.035361057711270405,0.3532805555396408,1.001040738581196,5.851846934134755
34,24,female,296,15,325,change,valid,anti,3,2,2,0.11036383194505106,1,j,change,1.109545994230757,0.12582551513270235,0.4991504109393645,0.035321609068432736,0.35329947805894335,1.0010410593022243,4.81350958858593
34,24,female,297,105,105,same,valid,anti,2,2,2,1.7396787276879877,1,j,change,1.4006599789991014,0.12479090370736019,0.500183452224519,0.035268690157408855,0.35336618795918184,1.0010378520951235,6.757916508711787
34,24,female,298,135,135,same,valid,anti,5,0,1,0.13310004111644957,0,j,change,1.0284783920860718,0.026750030525754948,0.5000898017879081,0.03533956942601435,0.35331262760701065,1.001066396234819,4.7678078549620295
34,24,female,299,105,155,change,valid,clock,4,1,1,0.11326410898345785,0,j,change,0.8389308712248749,0.05880031771875782,0.4990824181568314,0.035346625280908484,0.3533517555288199,1.001059019659806,4.495202018744294
34,24,female,300,15,65,change,valid,clock,4,1,2,0.09675405022107952,1,f,same,0.854750418380263,0.061998505681294974,0.5003559999463505,0.035292102766561584,0.3533847897583655,1.0010500394805604,4.543689211405763
34,24,female,301,45,355,change,valid,anti,2,0,2,0.017685500025891088,1,j,change,0.9745556254724761,0.029027124424821638,0.5010407385811959,0.03534694600148214,0.35331391048976,1.0010086665142808,4.567983802322942
34,24,female,302,45,45,same,catch,anti,3,2,2,0.14369665212552718,1,f,same,0.8097000684415434,0,0.5002649152752383,0.03534566311873277,0.35327734833299473,1.0010731313691394,6.0868643075737054
34,24,female,303,15,15,same,valid,clock,1,0,2,0.2202930873791047,1,f,same,1.3839715995427468,0.026700462543488068,0.49956766853392764,0.03535143609087754,0.3533055717516618,1.0010760178552118,5.179505435894953
34,24,female,304,15,15,same,valid,anti,4,0,2,0.15536190441389408,1,f,same,1.0212297841744657,0.024481204777722004,0.4995500288969197,0.035325778437254485,0.35330621319326383,1.0010676791175683,4.719586860459003
34,24,female,305,15,65,change,catch,clock,4,0,2,0.03699673313940366,1,j,change,1.1271147519323677,0,0.4996779964453708,0.03536234059356502,0.3533039681487935,1.0010080250726787,6.274301807132815
34,24,female,306,75,75,same,valid,clock,1,2,2,0.06839015541481785,1,j,change,1.3960412805990927,0.12369215634580165,0.5002652359962667,0.035330909968251945,0.3532619537404571,1.0010859601961783,5.050729992321976
34,24,female,307,135,185,change,valid,clock,2,2,2,0.11792129386412853,1,f,same,1.1370567720491636,0.12260574743736942,0.4995949297908737,0.03531198744803987,0.35332256994797717,1.001049398039413,4.837769541670696
34,24,female,308,105,105,same,valid,anti,3,1,1,0.029010788402047183,0,j,change,0.9993505406387158,0.060175644296381475,0.49926619110192405,0.03528344330834443,0.353356566338789,1.0010195710169683,4.5901504115809075
34,24,female,309,105,155,change,catch,clock,5,2,2,0.14654593457680676,1,f,same,1.2512419908030097,0,0.49924823074434244,0.03531679825846368,0.35337580957911996,1.0010619061458783,6.497298890498769
34,24,female,310,165,165,same,valid,anti,5,1,2,0.10578875155624701,1,f,same,0.8391909756901441,0.06321937323805543,0.5008556827533539,0.03532866492332687,0.3533645843554041,1.0010625475865709,4.532992535547237
34,24,female,311,45,45,same,valid,anti,3,1,3,0.11478624929395664,1,f,same,0.8261039686617551,0.06147166554434802,0.49913629922957625,0.0353312306888256,0.3533318708468869,1.0010904502855738,4.507172276392339
34,24,female,312,105,155,change,catch,clock,4,1,2,0.012561345846734184,1,j,change,1.3774042023387665,0,0.4996741477971227,0.03534117302933737,0.3533103825620856,1.001023098944188,6.451211009185954
34,24,female,313,105,105,same,valid,clock,2,0,1,0.02320029198381235,0,j,change,0.8469633204595084,0.022240456506161577,0.5003303422922727,0.03532898564390052,0.3533248149924475,1.0010519638049118,4.461047512202185
34,24,female,314,105,105,same,valid,anti,1,1,1,0.0261903708110367,0,j,change,0.9825954512825774,0.059711550648937406,0.5001645297047617,0.035325778437254485,0.3533257771546232,1.0010449079500177,4.579460791576821
34,24,female,315,105,55,change,valid,anti,1,2,2,0.2615018451060678,1,j,change,0.9612591878453713,0.12152295352003113,0.4990359136590996,0.035348549605259905,0.35329498796954795,1.0010814701063282,4.790161765092307
34,24,female,316,45,45,same,valid,clock,2,2,3,0.21418592433929007,1,f,same,0.9938229198537556,0.12043542727908285,0.4999140468598853,0.035342455912086734,0.35333026724356387,1.0010699241624934,4.802855568576888
34,24,female,317,135,185,change,valid,clock,2,1,3,0.07319070243602255,1,j,change,1.0924903896052456,0.06266772920972585,0.49981141624448355,0.03531423249296495,0.35333187084734163,1.0010837151512533,4.743768236979122
34,24,female,318,75,75,same,catch,clock,5,2,1,0.3847884750953199,0,j,change,0.861253992170532,0,0.49992719640749783,0.03529563069378128,0.353355604177068,1.0010529259666328,6.368861486514561
34,24,female,319,45,95,change,valid,clock,4,2,3,0.08448359802423511,1,j,change,1.032780218461994,0.11934322549899638,0.5002232215879303,0.035354322576949926,0.35328280058456585,1.0010622268659972,4.708794289119396
34,24,female,320,165,165,same,valid,clock,3,2,2,0.1542024991836115,1,f,same,1.4977151859311562,0.11829288420584017,0.4994554162985878,0.03534983248755452,0.3533254564335948,1.001032720564126,5.20232791892704
34,24,female,321,15,15,same,catch,anti,4,0,3,0.14077937689125974,1,f,same,0.9105291955233952,0,0.4997004468923478,0.03534790816365785,0.35326965103649854,1.0011112971292278,6.133226405061123
34,24,female,322,15,65,change,valid,clock,3,2,3,0.040955388396014314,1,j,change,1.2198453613204947,0.11728453047059718,0.5003431711193116,0.0353309099677972,0.3533257771546232,1.0010198917370872,4.862011213677761
34,24,female,323,75,75,same,valid,clock,5,0,1,0.035541302728688606,0,j,change,1.389276319460805,0.02426041973038806,0.499238929844978,0.035324174833931465,0.35331583481320195,1.0010150809275729,4.978100551062198
34,24,female,324,15,325,change,valid,anti,5,0,2,0.09433004338052342,1,j,change,0.9448735687037697,0.026221749010184092,0.5005615818968181,0.035325778437254485,0.3532526528406379,1.0010808286656356,4.649784251203528
34,24,female,325,75,125,change,valid,clock,1,1,3,0.0962912502909603,1,j,change,0.9442597093375298,0.06098086057379118,0.5003348323816681,0.03529242348713524,0.35330974112093827,1.001103279112158,4.602673912388127
34,24,female,326,105,55,change,catch,anti,2,2,1,0.12156724646547445,0,j,change,1.064652797421786,0,0.5001943567272065,0.03530525231417414,0.3533030059866178,1.0010853187545763,6.251850397918133
34,24,female,327,45,45,same,valid,clock,3,2,4,0.2692639268138919,1,f,same,0.9226630207140261,0.11631012496707156,0.5000099423405118,0.03532032618613812,0.35327959337746506,1.0010891674028244,4.826098837130758
34,24,female,328,165,215,change,valid,clock,4,2,3,0.17277094322025732,1,f,same,0.9270427822134479,0.11536234535016285,0.4994493226058694,0.03532064690671177,0.3533020438244421,1.0010468322739143,4.661016209864101
34,24,female,329,165,215,change,valid,clock,2,1,3,0.15774582117001046,1,f,same,0.933430255120129,0.059286649188756896,0.4998858234407635,0.03531102528631891,0.35333700237788435,1.0009887818323477,4.672801090963276
34,24,female,330,75,25,change,valid,anti,5,2,3,0.48749862891918383,1,f,same,1.5244376323375946,0.11443445469637432,0.5000490702627758,0.035360095549094694,0.35330332670719145,1.0010224575030406,5.556609764405039
34,24,female,331,15,15,same,catch,clock,1,0,1,0.2557564549847484,0,j,change,1.0110844271512178,0,0.49992206487650037,0.03534919104640721,0.35330268526604414,1.0010789043408295,6.356833178425404
34,24,female,332,105,105,same,valid,clock,4,0,2,0.07621606053680807,1,j,change,0.9315691130595951,0.024113857634238345,0.5007732575409136,0.03528344330834443,0.353338926701781,1.001062226866452,4.615080991591185
34,24,female,333,135,85,change,catch,anti,5,2,1,0.34802939597420846,0,j,change,0.8916134109990708,0,0.49942238206949696,0.035327382040577504,0.3533100618410572,1.001089488123398,6.333320183785872
34,24,female,334,105,105,same,valid,anti,3,0,1,0.09757958523141497,0,j,change,0.88758836656325,0.02197365428769643,0.50001828107861,0.03534181447048468,0.35331583481320195,1.0010144394859708,4.566843640333445
34,24,female,335,15,15,same,valid,clock,4,0,1,0.15033300427376162,0,j,change,0.7939574942479339,0.023911104585047943,0.499777419853217,0.03530845952082018,0.35332994652344496,1.0010542088493821,4.53120997005135
34,24,female,336,45,355,change,valid,anti,1,0,1,0.21583378715286017,0,j,change,0.8364555490770726,0.025787137190908332,0.4997844757085659,0.03531423249296495,0.3533081375171605,1.0010442665084156,4.6370984657364716
34,24,female,337,105,105,same,valid,anti,4,0,1,0.1391154780440047,0,j,change,0.9187880735530598,0.027795014611402158,0.5005946161263637,0.035269652319584566,0.3533427753500291,1.001087243078473,4.649820492639719
34,24,female,338,165,215,change,valid,clock,2,0,2,0.12725811407290166,1,j,change,0.9147110723683909,0.02982440596187394,0.49965073518797,0.035277991057228064,0.3533187212997291,1.0011225223529436,4.62599190885885
34,24,female,339,45,45,same,valid,clock,5,2,3,0.141763989354331,1,f,same,0.8728265561844637,0.11344376353431923,0.49959300546697705,0.03532866492287212,0.353335719495135,1.001028551195759,4.6016536999300115
34,24,female,340,45,45,same,valid,anti,5,1,3,0.12343833086697487,1,f,same,0.9158772127320844,0.0576749837224074,0.5001350234028905,0.03532225051003479,0.353293063646106,1.001095261095088,4.590447719644089
34,24,female,341,45,95,change,catch,clock,3,0,2,0.09529861981036447,1,j,change,1.1871417950992509,0,0.5004634413712665,0.035271255922907585,0.353377413182443,1.0010397764190202,6.416846751324101
34,24,female,342,45,95,change,valid,clock,3,0,2,0.032877717546398344,1,j,change,0.9588576314517923,0.02772696296286295,0.4994971099858958,0.03529434781103191,0.35332000418247844,1.0010853187545763,4.602421505218899
34,24,female,343,75,75,same,valid,clock,3,2,3,0.0890201919323772,1,f,same,0.9276207208645246,0.1124600415938155,0.49945862350523385,0.03529787573870635,0.35333155012631323,1.0010522845254854,4.590627964661962
34,24,female,344,135,135,same,catch,clock,3,2,2,0.04571905253988007,1,j,change,0.9722579825770481,0,0.49894033889904676,0.03528023610169839,0.35335945282486136,1.0010721692069637,6.144184788988241
34,24,female,345,45,45,same,valid,anti,4,1,3,0.07341616906842319,1,f,same,0.9436442463675121,0.0561394608167792,0.5002232215874756,0.035315836096742714,0.35327702761196633,1.001073452089713,4.6148875970256995
34,24,female,346,105,105,same,valid,anti,4,1,2,0.076213815491883,1,j,change,1.0686412797012963,0.05465514368424307,0.49900512447493384,0.03533187212997291,0.3533097411204835,1.0010596611009532,4.70713295603764
34,24,female,347,75,75,same,valid,clock,5,2,1,0.17591496796967476,0,j,change,0.9146915084070315,0.11147622083774326,0.49983065948481453,0.03533058924722354,0.35329146004232825,1.0010686412792893,4.673191087300893
34,24,female,348,15,15,same,valid,anti,1,1,1,0.08838131635320678,0,j,change,0.8643136673831577,0.053127023770802306,0.49974791355134585,0.035339248705440696,0.3532860077912119,1.001088525961677,4.531722802405966
34,24,female,349,75,75,same,catch,clock,2,2,1,0.023689070288128278,0,j,change,1.0618493780266363,0,0.4998335459708869,0.0353354000571926,0.3533251357125664,1.001065434073098,6.2037718033930105
34,24,female,350,15,15,same,valid,clock,2,2,4,0.16480841109205357,1,f,same,0.8792833047573367,0.11487362423689479,0.5003912792199117,0.05881343614373691,0.35336073570761073,1.001089488123398,4.6848813558017355
34,24,female,351,45,95,change,valid,clock,5,1,2,0.02596137625096162,1,j,change,0.917922127737711,0.05561837352880944,0.5131790538612222,0.03532545771622608,0.35331968346145004,1.0010545295699558,4.5563127770624305
34,24,female,352,45,355,change,valid,anti,5,1,2,0.09089320065777429,1,j,change,0.9226492297248114,0.05419398209278842,0.4997665153505295,0.03532994780562149,0.35336426363528517,1.0010474737150616,4.590070552133511
34,24,female,353,105,105,same,valid,anti,2,1,2,0.09205453021149879,1,j,change,0.9675449922997359,0.052719553948263415,0.4999464396478288,0.03529915862145572,0.35335047264607056,1.001045549391165,4.649196049490911
34,24,female,354,135,135,same,valid,anti,2,0,2,0.09135696274961447,1,j,change,0.8856480064964671,0.025743805764563088,0.5004320107454987,0.03533443789547164,0.35327349968474664,1.0010907710061474,4.531800416808437
34,24,female,355,135,85,change,valid,anti,3,2,3,0.08857342803594292,1,j,change,0.9826592746962888,0.1139296751337074,0.5004756287567034,0.035309100962422235,0.3533142312098789,1.0010833944306796,4.637766847617058
34,24,female,356,75,25,change,valid,anti,1,0,3,0.12123048975990969,1,f,same,0.7827325914422545,0.02382512211488469,0.5002264287941216,0.035289857722091256,0.3533187212997291,1.001069282721346,4.473418991410654
34,24,female,357,15,65,change,valid,clock,4,2,3,0.1169036471715117,1,f,same,0.8675106110435991,0.11299497553335976,0.4995532361035657,0.03536715140398883,0.35327798977414204,1.0010773007379612,4.566600213343463
34,24,female,358,45,45,same,valid,anti,5,0,3,0.11861533339833841,1,f,same,0.9195869887471417,0.02186621803295688,0.5002488792420081,0.03530749735864447,0.35331711769640606,1.0010651133520696,4.637827463824124
34,24,female,359,135,135,same,valid,anti,3,0,3,0.07140781621956194,1,j,change,0.9983431570076391,0.019881455570033957,0.5002915350910371,0.03532802348172481,0.3532911393217546,1.0010586989387775,4.673768705231396
34,24,female,360,105,105,same,valid,anti,5,1,2,0.13878353214795425,1,j,change,0.9579487090672956,0.05124354095114525,0.49972642526654454,0.03533058924722354,0.3533446996739258,1.0010705656040955,4.637830350310196
34,24,female,361,75,75,same,valid,anti,3,0,1,0.4170074323806148,0,j,change,0.7479841102153841,0.01796517981944859,0.4997658739093822,0.03535624690130135,0.3533350780535329,1.0010593403803796,4.766813300157992
34,24,female,362,165,165,same,catch,anti,1,0,1,0.11155146059400067,0,j,change,0.8595410230605012,0,0.5002209765430052,0.035305893755776196,0.353298195176194,1.0010859601961783,6.0746256067232025
34,24,female,363,75,25,change,catch,anti,5,1,1,0.050442626599306095,0,j,change,0.774555817905366,0,0.5004316900244703,0.03530493159314574,0.35332513571302115,1.0010404178606223,5.921960642441718
34,24,female,364,135,85,change,valid,anti,5,2,2,0.03063395572371519,1,j,change,0.9332051092087568,0.11206303356223882,0.5002585008614915,0.03533058924722354,0.35331551409308304,1.0010513223633097,4.566972249323044
34,24,female,365,105,105,same,valid,anti,1,2,2,0.05426048548133622,1,j,change,0.9078191058438279,0.11112759566081809,0.4998313009264166,0.03528344330834443,0.35336779156250486,1.00105356740778,4.5431231394190945
34,24,female,366,45,95,change,valid,clock,1,2,3,0.07390719241766419,1,j,change,0.9252281446497364,0.11018255696091939,0.5003511891359267,0.03533315501272227,0.35337196093087186,1.0010359277712269,4.590822962830316
34,24,female,367,105,105,same,catch,clock,5,1,1,0.11390458816595128,0,j,change,0.8795559173286165,0,0.5002556143758738,0.03529883790088206,0.3538366851853425,1.0005689584722859,6.133752066242778
34,24,female,368,15,15,same,catch,anti,1,1,3,0.11173042272912426,1,j,change,1.0211293986035344,0,0.5003553585047484,0.035365227080092154,0.35330781679658685,1.0010500394805604,6.251116589020057
34,24,female,369,165,165,same,valid,anti,4,1,1,0.010994946083428658,0,j,change,1.112631968538608,0.04974738040333135,0.5004079566951987,0.0353479081632031,0.35329562941115,1.0010452286705913,4.732611006235402
34,24,female,370,75,75,same,valid,anti,4,1,2,0.026071704162404785,1,j,change,1.635274847994424,0.05226885004382867,0.499303073979263,0.03529627213538333,0.35333251228848894,1.0010705656036407,5.214181434249895
34,24,female,371,105,155,change,valid,clock,5,0,3,0.074226309486221,1,j,change,0.9489701338493433,0.019775647328119483,0.4995150703434774,0.035340210867616406,0.3532863285113308,1.0010795457824315,4.602222337681269
34,24,female,372,15,325,change,catch,anti,2,0,1,0.013821136647038657,0,j,change,0.8915505497470804,0,0.49981526489273165,0.035336682939941966,0.35332802219909354,1.0010766592963591,6.015873748948707
34,24,female,373,105,55,change,valid,anti,5,1,1,0.09487462708193561,0,j,change,0.7977907477215922,0.05083298940528272,0.4999759459492452,0.03535400185637627,0.35330525103154287,1.0010676791175683,4.484975198670327
34,24,female,374,15,65,change,valid,clock,5,0,2,0.13203332416105695,1,f,same,0.9650032809727236,0.017901177681188152,0.49919242534724617,0.035364264917916444,0.35332032490259735,1.001062226866452,4.660235255027146
34,24,female,375,165,215,change,valid,clock,5,1,2,0.1590075362942116,1,f,same,0.9359309142014354,0.05322919849136881,0.5004823638910239,0.035290499163238565,0.35330621319326383,1.0010959025371449,4.67383541513118
34,24,female,376,165,165,same,valid,clock,2,0,1,0.0432062060735916,0,j,change,0.8690603333311628,0.016127731387866967,0.4998431675912798,0.03531327033078924,0.3533238528302718,1.0010625475870256,4.47276824916662
34,24,female,377,165,115,change,valid,anti,2,1,1,0.044160670793644385,0,j,change,0.8112703168526423,0.05184402924746445,0.5001366270066683,0.035314232493419695,0.3533171176959513,1.001083073710106,4.413856031056184
34,24,female,378,105,105,same,valid,anti,5,0,1,0.04835986655461966,0,j,change,0.8219718035215919,0.01783967001130593,0.5002815927505253,0.03532866492287212,0.3532988366182508,1.0010692827208914,4.414663605708483
34,24,female,379,45,45,same,valid,anti,1,0,2,0.14878488558952085,1,f,same,0.9751098307938264,0.019576467685079563,0.49976074237838475,0.035299800063057774,0.3533469447183961,1.0010388142572992,4.6848370963493835
34,24,female,380,165,165,same,valid,clock,3,1,3,0.03858430046648209,1,j,change,1.01312004125748,0.0541351146835114,0.4999509297372242,0.035308138800246525,0.35333475733295927,1.0010667169558474,4.613846858444958
34,24,female,381,45,45,same,valid,clock,3,1,3,0.07974495009239035,1,f,same,0.9630282830730721,0.052790042381814006,0.5004015422814518,0.03528665051544522,0.35333828526017896,1.0010683205591704,4.614716332187072
34,24,female,382,45,355,change,catch,anti,2,1,3,0.09043040072765507,1,j,change,1.1492069539935983,0,0.5000163567542586,0.035314873934567004,0.35332353210969814,1.0010330412851545,6.333902291805771
34,24,female,383,45,355,change,valid,anti,4,1,2,0.008103007782665372,1,j,change,1.0478730125742004,0.051442159018614236,0.5002135999679922,0.03532032618568337,0.3533559248971869,1.001059019659806,4.661085485529384
34,24,female,384,45,45,same,valid,clock,1,1,2,0.11768428128743835,1,f,same,0.9216607686134921,0.05007371126365445,0.49995638198879533,0.03530589375532145,0.35329595013172366,1.0010773007379612,4.614139034977143
34,24,female,385,135,135,same,valid,clock,5,1,2,0.12622282774282212,1,f,same,1.279703063973102,0.04872695713575262,0.4995936469085791,0.035322571230608446,0.35334566183564675,1.001018288134219,4.943318394164635
34,24,female,386,105,155,change,valid,clock,1,2,2,0.1314120882188945,1,f,same,0.7569562710191349,0.10923409265383982,0.5002610666269902,0.03531423249296495,0.3533353987745613,1.0010673583969947,4.425679719356594
34,24,female,387,45,45,same,valid,anti,1,1,2,0.15186540764534584,1,f,same,0.8948183726761272,0.04745032408234112,0.5005622233384202,0.035291461325414275,0.3533440582327785,1.0010500394805604,4.614848789824464
34,24,female,388,105,105,same,valid,clock,3,1,3,0.13575111819272934,1,f,same,1.236394548005137,0.04622619748095405,0.5000545225143469,0.035325778437254485,0.3533110240032329,1.0010452286705913,4.93184749860302
34,24,female,389,45,45,same,valid,anti,2,1,2,0.12756408159430066,1,f,same,2.5201781410901276,0.04503874828239532,0.5005317548743733,0.03529242348713524,0.3532568222099144,1.0011324646934554,6.239855444778641
34,24,female,390,15,65,change,catch,clock,1,2,2,0.10993406624447744,1,f,same,0.8968068408435101,0,0.4996533009534687,0.035332513571120217,0.35329242220450396,1.001044587229444,6.109210520407942
34,24,female,391,105,105,same,valid,clock,5,1,2,0.006272654906297248,1,j,change,1.1650265011489864,0.043873492812844306,0.5000375243184862,0.035279594660551084,0.3533482276011455,1.0010609439837026,4.767338319898499
34,24,female,392,75,75,same,valid,anti,4,2,3,0.06365535613167594,1,j,change,1.127273829386013,0.10832323336192638,0.49998203964196364,0.03531551537571431,0.3533055717521165,1.0010016106593866,4.7906508641176515
34,24,female,393,15,65,change,catch,clock,2,1,1,0.015838790395719116,0,j,change,0.8979354568891722,0,0.49968858022748464,0.035335720777766255,0.35325746365151645,1.0011071277599513,6.015223006704673
34,24,female,394,75,75,same,valid,anti,4,0,2,0.03526003069964645,1,j,change,0.9011189302809726,0.017780514937085157,0.5003980143542321,0.03534117302979212,0.35328151770136174,1.0010635097492013,4.543927506864748
34,24,female,395,165,165,same,valid,anti,4,2,2,0.034283436252735555,1,j,change,1.1294672380622615,0.107446496280961,0.49940730819798773,0.035354322576949926,0.3532648402265295,1.001062226866452,4.74306329294177
34,24,female,396,45,45,same,catch,anti,4,0,3,0.03113299708957129,1,j,change,0.9988588758483274,0,0.4998803711891924,0.035363623476769135,0.35329210148347556,1.0010564538943072,6.156499500637892
34,24,female,397,75,75,same,valid,anti,1,1,2,0.09780825907046165,1,j,change,1.2468041788620212,0.04265860972503613,0.5008037260045057,0.03531808114121304,0.3533408510256777,1.0010583782182039,4.933114665979247
34,24,female,398,165,115,change,valid,anti,2,0,1,0.027306478749778762,0,j,change,0.9471914170012496,0.016077874217868826,0.4998258486748455,0.03534598383930643,0.35329627085275206,1.0010898088439717,4.555600777170184
34,24,female,399,75,75,same,catch,anti,4,2,2,0.1357142353153904,1,f,same,1.7368012218175863,0,0.49909556770444397,0.03532898564390052,0.3533103825620856,1.001067999838142,6.99229308224767
34,24,female,400,105,105,same,catch,clock,4,0,1,0.002054857346593053,0,j,change,0.7884635491336667,0,0.5003656215662886,0.03531583609628797,0.3533097411204835,1.0010763385757855,5.898090364973996
34,24,female,401,135,185,change,valid,clock,5,0,1,0.0273308535211072,0,j,change,1.0605943980363008,0.01772358110829178,0.5023848789182921,0.03534470095701181,0.3533142312098789,1.0010218160614386,4.687342886960778
34,24,female,402,165,215,change,catch,clock,4,1,2,0.12072631686305613,1,f,same,0.7651324031148761,0,0.49946600008070163,0.035325136996107176,0.35326612310927885,1.0010400971395939,5.99123149682282
34,24,female,403,165,115,change,valid,anti,2,2,2,0.10122938648055424,1,f,same,1.1610992765185983,0.10659784248595598,0.5001100071904148,0.03530525231417414,0.35328953571797683,1.0010859601961783,4.861394788545567
34,24,female,404,135,135,same,valid,anti,5,2,3,0.031174370056305634,1,j,change,0.9835332385282527,0.10577172515980987,0.5003932035442631,0.03528600907384316,0.3532718960814236,1.001088846681796,4.590852148411614
34,24,female,405,105,155,change,valid,clock,2,1,3,0.0435577159296372,1,j,change,0.9116485106696928,0.041436989595991625,0.49982424507152245,0.03532962708550258,0.3533119861654086,1.0010449079500177,4.496265207772467
34,24,female,406,135,135,same,valid,clock,1,0,2,0.12610448181476386,1,f,same,1.5880981199998132,0.019392315759654694,0.5001760756490512,0.03529627213538333,0.3532799140980387,1.0010946196539408,5.297887926085423
34,24,female,407,15,15,same,catch,anti,3,0,2,0.038308801409129956,1,j,change,0.9746672362666686,0,0.4994182127006752,0.03533026852664989,0.3533158348136567,1.0010522845254854,6.144600763700055
34,24,female,408,45,95,change,valid,clock,2,0,1,1.0547399628862877,0,j,change,1.0365169350134238,0.017668746741289376,0.500059333324316,0.03533989014704275,0.35326451950595583,1.0010942989338218,5.685679629555125
34,24,female,409,15,15,same,valid,anti,4,1,1,0.03007814679904186,0,j,change,0.7969238397449772,0.040194054977438776,0.49968376941706083,0.03529819645928001,0.353380620389089,1.0010368899334026,4.41405968868321
34,24,female,410,15,325,change,valid,anti,5,1,3,0.07301077813872325,1,j,change,0.8823654304169395,0.04228661295414474,0.49971231355675627,0.035347587443084194,0.3532808762602144,1.001086280916752,4.5437424510369055
34,24,female,411,135,135,same,valid,anti,2,2,3,0.08694224269720507,1,j,change,0.8611247417393315,0.10496300533141213,0.4996193045617474,0.03533187212997291,0.3533203249030521,1.0010657547936717,4.507785173596403
34,24,female,412,165,165,same,catch,anti,5,0,2,0.15313834799326287,1,j,change,0.8878391701287001,0,0.4999701729775552,0.035359454107947386,0.3532619537404571,1.0010978268610415,6.144696659181136
34,24,female,413,135,185,change,catch,clock,2,1,1,0.2484494759100926,0,j,change,0.8814577909142827,0,0.5005801836960018,0.035320005465109716,0.3532953086901216,1.0010673583969947,6.251775990722308
34,24,female,414,75,75,same,valid,clock,4,2,2,0.028639393863613805,1,j,change,1.9576154802884957,0.104100717660919,0.5002617080685923,0.03543546490709559,0.3531663789799495,1.0010766592963591,5.603847750048317
34,24,female,415,135,85,change,valid,anti,1,1,1,0.045380050789390225,0,j,change,0.8377490155476153,0.041091044909164764,0.4994765838632702,0.03535207753202485,0.35328600779075714,1.0010817908273566,4.43725933922542
34,24,female,416,15,65,change,valid,clock,4,0,2,0.3114428645744738,1,f,same,0.7730984631702995,0.01930535638881184,0.4991670884146515,0.03530749735864447,0.353339888863502,1.0010628683075993,4.660092855048788
34,24,female,417,45,355,change,catch,anti,1,1,1,0.12410061905529801,0,j,change,0.9317240211448734,0,0.5005747314448854,0.03529659285595699,0.35333251228848894,1.0010384935362708,6.157885334662751
34,24,female,418,45,355,change,valid,anti,1,2,3,0.030385717923763877,1,j,change,0.926476389506206,0.10324626914012462,0.5000525981904502,0.03529530997320762,0.35337645102026727,1.0010542088493821,4.567023885351318
34,24,female,419,45,45,same,valid,anti,4,0,3,0.12639120609583188,1,f,same,0.7813320042669147,0.01761589876535405,0.49964400005410425,0.03535047392870183,0.3532767068913927,1.0010522845254854,4.496185669045644
34,24,female,420,75,25,change,valid,anti,3,0,1,0.03143255019767821,0,j,change,0.7779519291025281,0.01600973182212659,0.4997293117526169,0.035273821688406315,0.3533719609313266,1.0010368899334026,4.3904886436021116
34,24,female,421,105,105,same,valid,anti,5,2,3,0.07612208938007825,1,j,change,0.8546551643403291,0.10239421209113739,0.499770684719806,0.03536522707963741,0.353294025807827,1.001089488123398,4.50779736098184
34,24,female,422,15,15,same,valid,clock,4,1,2,0.6840022604392288,1,f,same,0.8590044573757041,0.043088641464452654,0.5002825549122463,0.03533540005764735,0.35326580238825045,1.0010978268610415,5.1087525312877915
34,24,female,423,45,45,same,catch,clock,2,1,1,0.03646177105792958,0,j,change,0.7902127596794344,0,0.500530151271505,0.03529306492828255,0.3533411717467061,1.0010532466872064,5.933836928933033
34,24,female,424,45,355,change,valid,anti,3,2,3,0.05540738260515354,1,j,change,0.8660753860353907,0.10153927771518599,0.5000538810727448,0.03531904330338875,0.35332770147806514,1.0010394556984465,4.5078207735914475
34,24,female,425,15,325,change,valid,anti,2,1,2,0.12917634441282644,1,f,same,1.4855929066852696,0.041932021948946296,0.5000631819721093,0.0353228919511821,0.35328729067396125,1.0010853187545763,5.1913063530273575
34,24,female,426,165,115,change,valid,anti,3,0,2,0.12270548413107463,1,f,same,0.9588146548821896,0.017564932058678345,0.49974470634515455,0.03533347573329593,0.3532475213100952,1.0010955818161165,4.661309348558461
34,24,female,427,75,75,same,valid,clock,3,1,1,0.1630075645175566,0,j,change,1.4445987110875649,0.04075977616503107,0.49957600727157114,0.035360095549094694,0.3532799140980387,1.001107127760406,5.190620010789189
34,24,female,428,135,135,same,valid,clock,3,1,2,0.1473586407601033,1,f,same,1.5596720053827084,0.04272503980487022,0.5002164864536098,0.03532096762683068,0.35328985643900523,1.0010756971346382,5.2736238036318355
34,24,female,429,15,15,same,catch,anti,1,1,2,0.09943976512977315,1,j,change,0.9435704806123795,0,0.5005073801034996,0.035282160425595066,0.3533193627408764,1.00110392055376,6.1578834103384
34,24,female,430,75,125,change,valid,clock,1,2,3,0.0426776584054096,1,j,change,0.87345260293705,0.10067630768283789,0.49996055135716233,0.03533123068837085,0.3532994780593981,1.0010833944306796,4.532019789748574
34,24,female,431,15,325,change,catch,anti,5,2,2,0.05792888852965916,1,j,change,0.8480316410186788,0,0.4996744685181511,0.03532834420229847,0.3533113447242613,1.0010564538938524,6.003653329176814
34,24,female,432,15,325,change,catch,anti,3,2,1,0.10419605269817112,0,j,change,0.9536132070206804,0,0.4997402162553044,0.03532898564390052,0.3532837627462868,1.0010965439782922,6.180524365469864
34,24,female,433,105,105,same,valid,anti,2,0,2,0.03087545838980077,1,j,change,0.8274522783672182,0.015988607216352674,0.49951635322668153,0.03531936402350766,0.3533001195005454,1.0010811493862093,4.4603948456338
34,24,female,434,165,115,change,valid,anti,4,2,1,0.03903908237998621,0,j,change,0.9276184758200543,0.09979876657683473,0.49963373699210933,0.03531647753789002,0.3533171176959513,1.0010513223633097,4.567053712374218
34,24,female,435,15,65,change,catch,clock,3,2,2,0.13262826100753955,1,f,same,0.8765818745350771,0,0.4997703639987776,0.035406920766945404,0.3533184005791554,1.0010567746148809,6.097932057249636
34,24,female,436,135,85,change,catch,anti,1,1,2,0.12148097260478607,1,f,same,1.4256989625969254,0,0.4999887747762841,0.03529819645928001,0.35330942039990987,1.0010737728102868,6.639682832912513
34,24,female,437,165,165,same,valid,clock,5,1,2,0.12374109118172782,1,f,same,1.4230376224591055,0.04159310274283659,0.499939063072361,0.035339890146588004,0.3533155140926283,1.001045549391165,5.144423725888828
34,24,female,438,165,165,same,valid,clock,5,0,2,0.13270202676221743,1,f,same,1.1056771407620545,0.014460985948602761,0.49897625961421,0.03534117302933737,0.3532908186007262,1.0010580574976302,4.824936545414857
34,24,female,439,75,25,change,valid,anti,4,2,3,0.09708214746888189,1,f,same,0.8147398730843634,0.10286713318557285,0.5003569621080715,0.035299800062603026,0.35331807985858177,1.0010622268659972,4.484771541043301
34,24,female,440,165,165,same,catch,anti,5,1,2,0.04546856969500368,1,j,change,1.3380649254099808,0,0.5003511891359267,0.035320005465109716,0.35328183842239014,1.0010869223578993,6.463862798262198
34,24,female,441,105,55,change,valid,anti,5,0,4,0.1735480494089643,1,f,same,0.8935194539535587,0.012906267135900457,0.4998511856078949,0.035350153208582924,0.35322442942197085,1.0011177115425198,4.696799335979904
34,24,female,442,15,325,change,valid,anti,1,2,3,0.0875734209798793,1,j,change,1.0887565595394335,0.10205322171832455,0.49921263074975286,0.035338286543264985,0.3532895357184316,1.0010994304643646,4.743209541568376
34,24,female,443,15,65,change,valid,clock,1,2,2,0.0518185182831985,1,j,change,2.1045106796777873,0.1012341035186217,0.49921840372189763,0.035324174833931465,0.3532991573383697,1.00108563947515,5.779173874863773
34,24,female,444,15,65,change,valid,clock,2,0,2,0.1262414295420058,1,f,same,0.9218054136367755,0.011341676944781331,0.500080821609572,0.03529787573870635,0.3533097411204835,1.001084035871827,4.602520287186508
34,24,female,445,45,45,same,valid,clock,5,0,1,0.030537098080912983,0,j,change,1.1098917311155674,0.00974227327034885,0.5001507387160018,0.035324816275078774,0.3533020438248968,1.0010497187604415,4.696851613449326
34,24,female,446,135,135,same,valid,clock,4,1,3,0.14838334330806902,1,j,change,0.9872356379682969,0.04044173958213915,0.49999230270395856,0.035354964018097235,0.35329178076335666,1.0011420863133935,4.708736880118977
34,24,female,447,165,165,same,catch,clock,3,2,2,0.020970321150798554,1,j,change,1.3032616009477351,0,0.49963918924368045,0.03533796582269133,0.35333283300951734,1.0010590196593512,6.439694571289692
34,24,female,448,75,75,same,catch,clock,3,0,1,0.03486426138988463,0,j,change,0.8698586070845522,0,0.4999727387425992,0.035344380236438155,0.3533065339138375,1.0010981475816152,6.004076039022493
34,24,female,449,45,355,change,valid,anti,4,2,3,0.48490880949157145,1,j,change,0.9463434315443919,0.10040509038098468,0.5001144972798102,0.035389601850965846,0.3533030059866178,1.0010384935362708,5.050024727563596
34,24,female,450,165,165,same,valid,anti,3,1,2,0.13800899172520076,1,f,same,1.6016376638963266,0.039279403542491154,0.4995711964616021,0.03531070456529051,0.3533228906685508,1.0010439457882967,5.285117791081575
34,24,female,451,105,55,change,valid,anti,1,1,3,0.10513704715049244,1,j,change,1.10484102197006,0.038172286216762774,0.5101633173803748,0.03534983248755452,0.35327125463982156,1.0010939782127934,4.824444880624469
34,24,female,452,45,355,change,valid,anti,2,2,4,0.39390271515685527,1,j,change,0.8939341457830778,0.09956267955736738,0.5002498414037291,0.03533796582269133,0.3533030059866178,1.0010484358772374,4.873770437122857
34,24,female,453,165,165,same,valid,anti,2,2,3,0.12366443894097756,1,f,same,1.194115545395107,0.09874412887713649,0.49932135505741826,0.0353690757278855,0.35330717535543954,1.0010535674082348,4.884203159868321
34,24,female,454,15,325,change,catch,anti,5,1,2,0.13361960860538602,1,f,same,1.155055936892495,0,0.49975112075844663,0.035321609068432736,0.35331679697537766,1.0010853187545763,6.357315542316428
34,24,female,455,75,25,change,valid,anti,4,1,1,0.06041287013567853,0,j,change,0.7544896083295498,0.037114725900353834,0.49978640003246255,0.03532994780562149,0.3533277014785199,1.00106158542485,4.390740730049856
34,24,female,456,75,75,same,valid,clock,2,1,1,0.04700065234601425,0,j,change,0.7564456837089892,0.0390091517807315,0.4990272542013372,0.03532545771668083,0.3533023645454705,1.0010689620003177,4.3421884310923815
34,24,female,457,135,185,change,valid,clock,1,0,1,0.07694345502159194,0,j,change,0.7827383644143993,0.011235711492451811,0.5000298270224448,0.03532962708504783,0.35328440418788887,1.0010808286651809,4.413536593266599
34,24,female,458,45,45,same,catch,anti,2,2,1,0.07959260777306554,0,j,change,0.6964160747766073,0,0.500662608908442,0.035309742403569544,0.3533110240032329,1.0010699241624934,5.86291596669389
34,24,female,459,75,25,change,valid,anti,5,1,3,0.13101118737858997,1,f,same,0.8171109610138956,0.040956335695806895,0.5006882665625199,0.03529883790088206,0.35333315372963625,1.001046832274369,4.543973049200758
34,24,female,460,165,165,same,valid,anti,2,0,1,0.06096707545748359,0,j,change,0.75667564043124,0.012653583083864939,0.4997155207634023,0.03530108294535239,0.3533049303109692,1.001019891737542,4.402133369766943
34,24,female,461,135,135,same,valid,clock,2,0,2,0.10943310055426991,1,f,same,1.0291644136036666,0.014015849152026888,0.49990250091559574,0.03531359105136289,0.35330974112093827,1.0010760178552118,4.719797894661042
34,24,female,462,165,165,same,valid,clock,2,1,1,0.04227579540338411,0,j,change,0.788916086001791,0.039841407256620026,0.5003620936390689,0.03532802348172481,0.3533238528302718,1.0010359277712269,4.402718684993943
34,24,female,463,15,325,change,valid,anti,1,1,2,0.12472794868972414,1,f,same,0.8731812732480648,0.041728054168885226,0.49995766487108995,0.035328344202753215,0.35331936274042164,1.001025343989113,4.543757845629443
34,24,female,464,105,105,same,catch,clock,2,1,1,0.029374806365012773,0,j,change,0.7994549672898756,0,0.4991109622969816,0.035338286543264985,0.3533277014785199,1.0010417007429169,5.921132220945765
34,24,female,465,15,15,same,catch,clock,3,0,2,0.0989577219597777,1,f,same,0.9096042371047588,0,0.49990410451891876,0.035302365828101756,0.3532882528356822,1.0011212394701943,6.098134752714486
34,24,female,466,75,75,same,catch,anti,1,0,2,0.03540146851582904,1,j,change,1.4677656481221675,0,0.4997001261713194,0.03534887032583356,0.3533216077853467,1.0010173259720432,6.604546921113524
34,24,female,467,45,45,same,valid,anti,5,2,4,0.17337325664266245,1,f,same,0.943453738288099,0.09795653236159797,0.499612248707308,0.03530429015245318,0.3533546420148923,1.001069603441465,4.684573143235866
34,24,female,468,135,85,change,valid,anti,3,0,2,0.28364311743052895,1,j,change,2.150365717782279,0.012532895615782996,0.49932392082337174,0.035388639688790136,0.3533046095899408,1.0010827529890776,6.0151479580677005
34,24,female,469,75,25,change,catch,anti,2,2,3,0.16067464234856743,1,j,change,1.1266317466001965,0,0.4995352757459841,0.03531711897903733,0.3532850456290362,1.0010805079441525,6.392369349623095
34,24,female,470,165,215,change,valid,clock,5,2,3,0.09095862767435392,1,f,same,1.2129248506562362,0.09719500558585414,0.5000051315309975,0.035377735186102655,0.3533132690477032,1.0010593403803796,4.89697297415205
34,24,female,471,165,115,change,valid,anti,5,0,2,0.1656660181697589,1,f,same,1.0840477386304883,0.011032641091200862,0.4995516325002427,0.03533026852664989,0.35330236454501573,1.0010721692069637,4.778276177702082
34,24,female,472,165,115,change,valid,anti,1,1,1,0.026933159887903457,0,j,change,0.8068876688676028,0.040655928943534814,0.49994130811683135,0.0352892162804892,0.35337516813797265,1.0010323998435524,4.402277373349079
34,24,female,473,75,75,same,valid,anti,2,1,1,0.0479355531051624,0,j,change,0.8587719348884093,0.04245746621262028,0.4999576648715447,0.0353270613195491,0.3533440582327785,1.0010756971341834,4.472763759077225
34,24,female,474,165,115,change,valid,anti,4,0,1,0.046655556902351236,0,j,change,0.9078466878213476,0.009501086992623087,0.5000205261230803,0.03533379645432433,0.3533026852655894,1.0010288719163327,4.519607899735092
34,24,female,475,45,45,same,catch,clock,3,0,3,0.11319162611152933,1,f,same,0.9487914924352481,0,0.5005211710922595,0.03529851717985366,0.3533610564281844,1.0010404178606223,6.13385341397543
34,24,female,476,165,165,same,catch,clock,2,2,2,0.14453116731419868,1,f,same,1.309687560335533,0,0.5001828107829169,0.03536330275574073,0.35332000418247844,1.0010660755142453,6.533830578663583
34,24,female,477,15,15,same,valid,anti,3,2,3,0.10050295415794608,1,f,same,0.8359930698679818,0.09645504778569262,0.5005888431542189,0.03528985772163651,0.35335881138371406,1.0009987241728595,4.520934079714607
34,24,female,478,75,125,change,valid,clock,5,1,3,0.09405069567537794,1,f,same,0.9123537754276185,0.04415144579790656,0.4991109622969816,0.03537132077235583,0.35330525103154287,1.0010914124472947,4.578184002581111
34,24,female,479,15,325,change,valid,anti,2,0,3,0.07332187719111971,1,f,same,0.9299847529396175,0.01093524896397463,0.49937267036557387,0.03530589375532145,0.353334757333414,1.0010548502905294,4.602189303452633
34,24,female,480,165,165,same,valid,anti,4,0,1,0.052880745149650465,0,j,change,1.351967525107284,0.00942571618283325,0.49967478923827,0.035312308168613527,0.3533100618415119,1.0010612647042763,4.9557328499431605
