subject,age,gender,ntrial,memory_ori,test_ori,type,trial_type,which_change,trial,quest,pas,pas_rt,vis,test_key,test,test_rt,contrast,fix_dur,target_dur,mask_dur,retention_dur,trial_dur
35,24,male,1,165,165,same,valid,clock,4,1,1,0.740496244681708,0,f,same,0.3843324102991801,0.2,0.511120347866381,0.035340852308763715,0.3532770276121937,1.0010776214585348,4.872268822935894
35,24,male,2,15,15,same,valid,clock,2,2,1,0.5248029331830821,0,j,change,2.3967295471616126,0.2,0.49984124326715573,0.0352914613251869,0.3533078167968142,1.0010853187548037,6.59220655181025
35,24,male,3,105,55,change,valid,anti,5,1,1,0.6935376067438028,0,f,same,1.5982110842348902,0.33948538693435915,0.5006048791876765,0.03529338564931095,0.3533273807574915,1.0010500394807877,5.980904611899177
35,24,male,4,45,45,same,valid,anti,2,0,1,0.4780489150341509,0,j,change,1.5676945122768302,0.2,0.5000760107991482,0.035367151403761454,0.35327285824337196,1.0010920538886694,5.68580727638232
35,24,male,5,45,95,change,catch,clock,5,2,1,0.6096351545777452,0,f,same,1.4879428270501194,0,0.4999185369492807,0.03533860726406601,0.3533046095899408,1.0010452286705913,7.346373515143341
35,24,male,6,15,325,change,catch,anti,1,2,1,1.0228163893395958,0,j,change,2.729244401339656,0,0.5004797981257525,0.035342455912086734,0.3532635573440075,1.0010978268608142,8.984265123102205
35,24,male,7,165,215,change,valid,clock,3,0,2,0.9607655987310864,1,j,change,3.0361952521795956,0.3150270229513009,0.5000744071960526,0.035354643297750954,0.35331679697560503,1.0010558124527051,7.735080555411287
35,24,male,8,165,165,same,catch,clock,4,1,1,0.4488594852175538,0,f,same,2.5020320861790424,0,0.4999275171280715,0.03531872258236035,0.35334534111530047,1.0010330412851545,8.170527181397574
35,24,male,9,105,55,change,valid,anti,3,0,2,0.6829445236623997,1,j,change,2.2604854812957456,0.23704404819608071,0.500288327884391,0.03527831177780172,0.35336298075230843,1.0010410593017696,6.581668311963767
35,24,male,10,135,135,same,catch,anti,3,0,1,0.39109801287895607,0,f,same,2.9600545610007885,0,0.4993681802759511,0.03532930636447418,0.3533203249028247,1.001044266508643,8.558565519063905
35,24,male,11,45,45,same,catch,anti,2,1,2,0.43301395968796896,1,f,same,2.1128266459866154,0,0.5008643422115711,0.03528632979464419,0.35333411589181196,1.0010596611009532,7.747199627450755
35,24,male,12,75,25,change,catch,anti,4,2,1,0.5595033063093524,0,f,same,2.042214537754944,0,0.5004124467843667,0.03529530997320762,0.3533299465232176,1.0010654340728706,7.829605276239818
35,24,male,13,165,115,change,valid,anti,5,0,1,0.9771258809394112,0,j,change,2.258936400449329,0.18463693706663242,0.5004397080415401,0.0353309099677972,0.35329979877997175,1.0010413800225706,6.957977253207218
35,24,male,14,135,185,change,catch,clock,3,2,1,0.4235510962553235,0,f,same,1.8117905257829534,0,0.500246313476282,0.0353437387948361,0.35331551409285566,1.0010413800225706,7.452685682836773
35,24,male,15,15,15,same,valid,anti,3,1,2,0.5538987125630683,1,f,same,2.2628129512138457,0.43994886294822894,0.5004794774047241,0.03533604149879466,0.3532664438300799,1.00106671695562,6.487124347894678
35,24,male,16,105,105,same,valid,clock,1,0,2,0.4117970043407695,1,f,same,1.7549206569131002,0.22294691975574593,0.5003001945490269,0.035308138800246525,0.35328472490823515,1.0010500394807877,5.839836586402953
35,24,male,17,45,355,change,valid,anti,2,2,2,0.44260511138941183,1,j,change,3.0480673693016342,0.3670372117912738,0.4996738270763217,0.03528761267716618,0.3533341158915846,1.0010484358772374,7.110927979607368
35,24,male,18,165,215,change,valid,clock,1,0,2,0.366604254423919,1,j,change,1.5102117462022306,0.18802152362285962,0.49987940902724404,0.0353482288842315,0.35331775913755337,1.0010545295701831,5.485870650787319
35,24,male,19,15,325,change,valid,anti,4,2,2,0.5211569805815088,1,j,change,2.443115057258183,0.3227502669243441,0.49961385231063105,0.03530268654867541,0.35329883661779604,1.0010792250618579,6.568618187812717
35,24,male,20,15,65,change,valid,clock,1,0,2,0.2675573721176079,1,f,same,1.8907734435586008,0.16078685254064115,0.500371394538206,0.03532289195095473,0.3532904978803799,1.00107184848639,5.780850281817266
35,24,male,21,75,125,change,valid,clock,1,1,2,2.5099218147145166,1,j,change,1.6771298578760252,0.39088304290965636,0.49976042165803847,0.03535015320812818,0.35331070328265923,1.0010696034416924,7.840899775431353
35,24,male,22,135,135,same,valid,anti,4,0,2,0.3619935740407527,1,f,same,1.4927818605517587,0.13787753912511894,0.500205902671496,0.035337645102117676,0.3532754240086433,1.0010782628999095,5.497863038161313
35,24,male,23,45,95,change,catch,clock,2,1,2,1.061143471826881,1,f,same,1.8472205384387053,0,0.4997039748195675,0.035337645102117676,0.35329466724920167,1.001068962000545,8.111629716438074
35,24,male,24,75,75,same,valid,anti,1,0,2,0.3426371193124851,1,f,same,2.0563025140011177,0.11824182232439581,0.5005144359581664,0.0353376451018903,0.3533196834616774,1.0010535674080074,6.134145590507842
35,24,male,25,165,115,change,valid,anti,3,1,1,0.33864286406128485,0,j,change,2.7636753691012927,0.3563582236847771,0.49967061986967565,0.03536298203516708,0.35331166544460757,1.0010596611009532,6.780547200781939
35,24,male,26,135,135,same,valid,anti,1,2,2,0.786805423258329,1,f,same,1.4853151625829923,0.29077319917223154,0.4999515711783715,0.0352937063698846,0.35332224922694877,1.0010763385757855,5.992314249811898
35,24,male,27,75,75,same,catch,anti,2,1,1,0.269964701482877,0,j,change,2.045846699367303,0,0.49942302351087164,0.035337003660742994,0.3533238528302718,1.0010574160562555,7.510400009236719
35,24,male,28,45,355,change,catch,anti,5,1,1,0.2997176375201889,0,j,change,1.5564792310915436,0,0.500797953032361,0.0353206469064844,0.35332706003691783,1.001040738581196,7.112124588435108
35,24,male,29,75,25,change,valid,anti,4,0,1,0.34821862117064484,0,j,change,2.5468653082223227,0.10073730177005134,0.49941019468383274,0.03535368113557524,0.35329242220450396,1.0011000719055119,6.592554533739531
35,24,male,30,135,85,change,valid,anti,4,1,2,0.4467116188759519,1,j,change,1.7613228829709442,0.4020107899329153,0.499179275799861,0.03535368113580262,0.3533078167968142,1.0010574160562555,5.791186467640273
35,24,male,31,15,15,same,valid,anti,2,1,2,0.48128530733697517,1,f,same,1.6523676562183027,0.3783560800080926,0.4994486811647221,0.0353251369958798,0.3533030059866178,1.0010968646988658,5.709239770133081
35,24,male,32,15,325,change,valid,anti,3,1,2,0.27788457776159703,1,j,change,1.1752552455468503,0.3593953075575592,0.499754007244519,0.035398261309183,0.35331230688598225,1.0010785836204832,5.037779933020602
35,24,male,33,15,65,change,valid,clock,4,0,2,0.4523813189189241,1,j,change,1.8718451509278111,0.11606692156002561,0.4997190486913041,0.035354643297750954,0.3532895357184316,1.0010866016373257,5.933251292985233
35,24,male,34,75,25,change,valid,anti,4,1,2,1.299226934891749,1,f,same,2.7912544604225786,0.3432305765880791,0.49961994600334947,0.03529498925263397,0.3533427753500291,1.0010705656036407,7.675644921163666
35,24,male,35,105,55,change,valid,anti,1,1,2,0.2938632023704031,1,j,change,1.1569712807468022,0.3288160784419034,0.5000577297209929,0.03533796582269133,0.3532962708522973,1.001068320558943,5.038457615801008
35,24,male,36,135,135,same,valid,anti,5,0,2,0.5592027910395245,1,f,same,1.7659961038850724,0.10154821289963728,0.49990250091559574,0.0353562469008466,0.3533001195005454,1.001007704352105,5.932882784933099
35,24,male,37,105,105,same,valid,anti,1,2,2,0.2066409705262231,1,f,same,1.988355273834486,0.2661670952893518,0.5005647891039189,0.035302365828101756,0.3533267393163442,1.0010654340728706,5.792956845750496
35,24,male,38,15,65,change,valid,clock,5,1,2,0.647357678598155,1,f,same,2.65651200874413,0.3162184362544031,0.49972450094264786,0.035293064928737294,0.3533251357127938,1.0010359277712269,6.910908608078671
35,24,male,39,135,135,same,valid,anti,2,0,2,0.3983450171874665,1,f,same,1.723210041892571,0.0880685003422357,0.49970044689212045,0.03527638745367767,0.35328985643900523,1.001049077318612,5.720816182795261
35,24,male,40,135,85,change,catch,anti,3,1,1,0.36206894339852624,0,j,change,1.0529153829822917,0,0.4998069261553155,0.03535239825305325,0.3532799140980387,1.0010484358772374,6.580423274314398
35,24,male,41,105,105,same,valid,anti,1,0,1,0.2158953655221012,0,j,change,1.7749640953206836,0.07575151131433858,0.5007142449369439,0.035343418074262445,0.35329883661779604,1.0010381728159246,5.64004236078631
35,24,male,42,105,105,same,valid,clock,1,2,2,0.31043034941239966,1,f,same,1.6087506069638948,0.24632647888779896,0.4990057659163085,0.03534309735346142,0.35326708527145456,1.001092695330044,5.531215743023267
35,24,male,43,135,185,change,valid,clock,2,0,2,0.18070910057736,1,j,change,1.8689371765931355,0.08717183375210419,0.5007184143057657,0.03534566311873277,0.3533033267074188,1.0010580574974028,5.650800294293276
35,24,male,44,135,135,same,valid,anti,2,1,2,0.2517391078449691,1,f,same,1.480189084079484,0.30491129656288296,0.5006834557525508,0.03537452797922924,0.3532568222099144,1.0010942989335945,5.344886974828114
35,24,male,45,105,105,same,valid,anti,1,1,2,0.1245002370126258,1,f,same,1.3164454656191538,0.2940324524920084,0.5000577297209929,0.03531647753766265,0.35330268526604414,1.0010606232629016,5.073504687974037
35,24,male,46,75,75,same,valid,clock,2,1,1,0.40979795239104533,0,j,change,1.6991787626468522,0.2838993922690183,0.4998232829098015,0.03532930636470155,0.3532949879697753,1.001066396234819,5.709460105234939
35,24,male,47,15,325,change,valid,anti,5,2,2,0.1541547118035851,1,j,change,1.7373268829990138,0.22906238682407648,0.5000195639609046,0.03532192978900639,0.35331391048930527,1.0010798665032326,5.579897933853317
35,24,male,48,15,65,change,valid,clock,5,0,2,0.04383096994274638,1,j,change,2.576733062260246,0.0763897346023514,0.500143362140534,0.03533090996802457,0.35329370508702596,1.001063509748974,6.239757945694237
35,24,male,49,75,125,change,valid,clock,1,2,2,0.20941584578213224,1,j,change,1.2881829185450897,0.21322977958164996,0.4998685045243292,0.03744991144913001,0.3511791936953159,1.0010340034473302,5.108707309673036
35,24,male,50,15,65,change,valid,clock,4,2,1,0.027487365209253767,0,j,change,3.8384946911105544,0.19815253029942717,0.49992142343535306,0.03534854960503253,0.3532994780591707,1.0010307962404568,7.511722982009587
35,24,male,51,135,135,same,valid,clock,1,1,2,1.2488936740412555,1,f,same,1.5619119185575983,0.29938575287260627,0.5100122579440267,0.035292744207936266,0.3533334744504373,1.0010724899277648,6.638393535810792
35,24,male,52,75,125,change,valid,clock,4,1,2,0.20710569478046637,1,j,change,3.1685807276383002,0.29092884889343423,0.49911833887199464,0.0353309099677972,0.3532398240142811,1.0011363133414761,7.016189338090271
35,24,male,53,15,15,same,valid,clock,5,1,2,0.15490391529374392,1,j,change,2.6450686951607167,0.28291217254079193,0.4998277729989695,0.0353588126665727,0.3532888942768295,1.0010882052406487,6.498894796563718
35,24,male,54,75,75,same,catch,clock,2,1,1,0.411397707103788,0,j,change,0.7355491283133233,0,0.4997283495906686,0.035324174833931465,0.35327510328806966,1.001091091726721,6.356898926163012
35,24,male,55,135,85,change,valid,anti,5,0,2,0.28608316030431524,1,j,change,2.4596023448530104,0.06631643244930238,0.5004820431702228,0.035315194654913284,0.35329595013195103,1.0011116178498014,6.464193781995846
35,24,male,56,165,165,same,valid,clock,2,1,2,0.9836964853504924,1,f,same,1.4083691417963564,0.27523381722122436,0.4991651640903001,0.03530300726947644,0.35332449427164647,1.001061906145651,6.109319244715834
35,24,male,57,75,75,same,valid,clock,1,2,1,0.3373449075008921,0,j,change,1.0343921605606283,0.24076542793520825,0.4992235352526677,0.035296913576758016,0.353335719495135,1.0010420214639453,5.073158309648079
35,24,male,58,15,15,same,valid,anti,5,2,2,0.951949628893999,1,f,same,1.2174094878155302,0.27276634841452096,0.49964913158464697,0.035296913576758016,0.35330108166249374,1.0010872430787003,5.932790417379465
35,24,male,59,45,355,change,valid,anti,4,0,1,0.43958616770214576,0,j,change,0.8327432072965166,0.056795010713123206,0.5003390017504898,0.03533732438131665,0.3532699717572996,1.001081149385982,4.991891219245417
35,24,male,60,135,185,change,catch,clock,5,1,1,0.3820527277614474,0,j,change,0.6299399803335746,0,0.4997068613056399,0.03533347573329593,0.3532828005841111,1.0010817908273566,6.215925513265347
35,24,male,61,75,125,change,catch,clock,1,2,1,0.31424371820457964,0,j,change,0.5773360171240256,0,0.5001363062856399,0.03533636221936831,0.3533007609419201,1.0010574160560282,6.145163628479622
35,24,male,62,45,45,same,valid,anti,3,1,2,0.7328470566501437,1,f,same,2.403915935263285,0.26818529301657723,0.5001311747548698,0.03532770276115116,0.35331519337205464,1.0010484358774647,6.840657310603092
35,24,male,63,165,165,same,valid,clock,1,2,2,1.2544087867199778,1,f,same,1.1696660463928765,0.2641497586749748,0.4991654848111011,0.03533507933684632,0.353297233014473,1.0010586989387775,6.132299843039391
35,24,male,64,75,25,change,valid,anti,3,1,2,0.5324107482476848,1,f,same,1.685711380901239,0.26135608959856654,0.4999150090218336,0.03527799105700069,0.3533540005735176,1.0010696034416924,5.921266282186707
35,24,male,65,45,355,change,valid,anti,5,0,1,0.3751909089801302,0,j,change,0.7095880727831627,0.06573455375042911,0.5000756900785746,0.0353206469064844,0.3532895357184316,1.0010849980340026,4.731645637012207
35,24,male,66,45,355,change,valid,anti,3,1,2,0.30861410824559243,1,j,change,1.310972046627512,0.2546288014063752,0.5000240540503,0.03529530997320762,0.353316476254804,1.0010570953354545,5.2033003440049015
35,24,male,67,45,45,same,valid,clock,3,0,1,0.23210298469075497,0,j,change,0.6518660490869479,0.07428555472120327,0.49985663785969336,0.03532802348195219,0.35332192850614774,1.001058698939005,4.578721209707055
35,24,male,68,165,215,change,valid,clock,5,0,1,0.37153244827277376,0,j,change,0.49068498879728395,0.08198964048502065,0.5001760756488238,0.03535175681167857,0.3533090996793362,1.0010189295753662,4.531917479853746
35,24,male,69,105,155,change,valid,clock,3,1,2,1.9265427786854161,1,j,change,4.457941011771027,0.24798650267607425,0.5002469549174293,0.03533411717467061,0.3532917807629019,1.0010801872238062,10.056025732061016
35,24,male,70,105,105,same,valid,clock,4,2,2,0.6720182118026514,1,f,same,2.830286166227097,0.2561934687127507,0.49899229564789493,0.03535400185637627,0.35329819517642136,1.0010346448884775,7.227236689931942
35,24,male,71,105,105,same,valid,anti,3,2,2,0.49514300614055173,1,f,same,1.1789570035450652,0.24928024364275778,0.50063727197562,0.03532898564390052,0.3533312294057396,1.00106158542485,5.380827254072983
35,24,male,72,75,75,same,valid,anti,2,2,1,0.5150244806088722,0,j,change,0.6537130794379209,0.2427089265454036,0.49965586671874007,0.03533379645386958,0.35331551409285566,1.0010606232629016,4.86079119224064
35,24,male,73,45,45,same,valid,anti,2,2,2,0.7647847419063964,1,f,same,1.1068814468865185,0.26363297921943846,0.5004958341592101,0.03533668294016934,0.3532911393215272,1.001051001642736,5.615800047338325
35,24,male,74,45,45,same,catch,clock,2,2,1,0.2999283510018813,0,j,change,0.5475542162259899,0,0.5001202702521823,0.035316798258236304,0.35331968346145004,1.0010628683075993,6.050906709412402
35,24,male,75,165,165,same,catch,clock,2,1,1,0.21836587685993436,0,j,change,0.7215435772798173,0,0.5005878809922706,0.03532449555450512,0.3533039681487935,1.0010263061510614,6.180998711344273
35,24,male,76,135,135,same,valid,anti,4,1,2,0.7258713820301637,1,f,same,1.2682478837248254,0.24173179608613554,0.5005923710814386,0.035348870325606185,0.3533216077855741,1.0010186088547925,5.757170833148848
35,24,male,77,45,45,same,valid,clock,1,2,1,0.2309618605390824,0,j,change,2.067363528543183,0.25781070452944155,0.49961096582478604,0.035341814470939426,0.35324816275169724,1.001092695330044,5.968258275074277
35,24,male,78,135,135,same,catch,anti,2,1,1,0.5685145950358219,0,j,change,0.7070133272268322,0,0.499465679360128,0.035325778437254485,0.3532872906735065,1.0010923746094704,6.450311066979793
35,24,male,79,45,355,change,valid,anti,1,0,2,1.1440093547805645,1,j,change,1.4259956292187326,0.08957699862915354,0.5010304755196557,0.035323212671755755,0.35332000418225107,1.0010404178606223,6.288139621254459
35,24,male,80,45,95,change,catch,clock,1,2,1,0.2673524316080602,0,j,change,0.6095482392756821,0,0.49916837129694613,0.035365547800438435,0.3532545771649893,1.0010381728156972,6.050413761739264
35,24,male,81,45,45,same,valid,anti,2,1,2,0.4483937988015896,1,f,same,0.9321011886549968,0.23540663059647393,0.4995141081815291,0.03534053158796269,0.3533046095899408,1.0010712070452428,5.096402219643778
35,24,male,82,75,25,change,valid,anti,2,0,1,0.24858193354793912,0,j,change,0.4140468598559437,0.08171982541758364,0.5003255314823036,0.03532770276115116,0.353297233014473,1.0010814701065556,4.34381544706207
35,24,male,83,105,105,same,valid,clock,2,0,1,0.45078380925087913,0,j,change,0.38472016159198574,0.08869637330099112,0.4993348253260592,0.03534053158796269,0.3533158348134293,1.00104266290532,4.507143090810587
35,24,male,84,105,55,change,catch,anti,3,2,1,0.2509690575109289,0,j,change,0.4363132132427836,0,0.500427841376677,0.035308138800246525,0.353294025807827,1.0010846773132016,5.862749833385806
35,24,male,85,45,45,same,valid,anti,3,0,2,0.39509355101290566,1,f,same,1.0572265102575784,0.09572100007948432,0.5005965404502604,0.035352718973626907,0.3532856870701835,1.001047473715289,5.157033821277764
35,24,male,86,75,25,change,valid,anti,3,0,1,0.21523275661343177,0,j,change,0.43465604952962167,0.08866836530508222,0.4990256505980142,0.03531166672769359,0.3533200041820237,1.0010570953354545,4.330118108594661
35,24,male,87,75,25,change,valid,anti,1,2,1,0.6251593179938482,0,j,change,0.4360162259004028,0.2765627116769209,0.5004749873155561,0.03534630456033483,0.35329210148370294,1.0010561331735062,4.720737606230841
35,24,male,88,75,125,change,valid,clock,4,2,1,0.420238051711749,0,j,change,1.8431752886003778,0.2943793196442567,0.5000772936818976,0.035325778437254485,0.35329915733859707,1.0010660755142453,5.885834986648433
35,24,male,89,15,325,change,valid,anti,3,0,2,0.8728275183468668,1,f,same,1.296717295631879,0.09517835590325803,0.5005022485725021,0.03532289195095473,0.3533267393163442,1.0010247025477383,5.839892712520623
35,24,male,90,75,75,same,catch,anti,5,2,1,0.23346444394405808,0,j,change,0.6356212263203815,0,0.4998572793008407,0.035329627085275206,0.35329146004232825,1.0011010340676876,6.085876808624107
35,24,male,91,135,135,same,valid,anti,5,1,1,0.4111084170574486,0,j,change,0.3725263616356642,0.2293643399530959,0.5007873692502471,0.03531070456551788,0.35331070328265923,1.00104779443609,4.450100994939703
35,24,male,92,45,45,same,valid,anti,5,2,2,0.698613011380985,1,f,same,1.5125757782766414,0.310500378156144,0.49959011898113204,0.03533892798486704,0.3532674059920282,1.001042983626121,5.94430140302461
35,24,male,93,135,185,change,valid,clock,1,1,2,0.8051727754332205,1,j,change,1.3327573190060775,0.2398481356865113,0.4998091712000132,0.03528632979464419,0.3533693951656005,1.0010343241679038,5.874208541561302
35,24,male,94,45,355,change,catch,anti,1,0,1,0.25131415295436454,0,j,change,0.4172191080244829,0,0.5001347026823169,0.03534951176698087,0.3533879969645568,1.0009486917481354,5.897878368609327
35,24,male,95,165,165,same,valid,clock,1,0,1,0.4521860000295419,0,j,change,0.3850360714538965,0.08863602743153136,0.5004557440752251,0.035324174833931465,0.35331391048953265,1.0010516430841108,4.496920119385095
35,24,male,96,45,45,same,valid,clock,5,2,2,0.3550195030240957,1,f,same,1.115196771753972,0.30593150868592073,0.49995253334054723,0.035287291956592526,0.3533225699475224,1.001215210626924,5.226688899023657
35,24,male,97,75,125,change,valid,clock,5,2,2,0.3013491435795004,1,j,change,0.9315075346908088,0.3017836122628007,0.49948043251106355,0.03533026852664989,0.3532860077909845,1.0010686412795167,4.896267067952294
35,24,male,98,165,215,change,valid,clock,1,2,2,0.25581354326436667,1,j,change,1.1481059199263655,0.297634291145111,0.49972065229462714,0.035317439699610986,0.3533142312101063,1.0010773007377338,5.0733337438557555
35,24,male,99,45,95,change,valid,clock,5,2,2,0.2445825467659688,1,j,change,0.9872699550796824,0.2938585450426292,0.4994583027846602,0.03535239825305325,0.35326676455065353,1.0010930160506177,4.861258161539354
35,24,male,100,165,115,change,catch,anti,3,1,2,0.2967278794142203,1,f,same,1.2740994323885388,0,0.4998880684852338,0.035319364023735034,0.35330845823796153,1.001084356592628,6.792868647565683
35,24,male,101,45,45,same,valid,clock,5,0,2,0.3303804581046279,1,f,same,1.2945328671337393,0.09470353795859972,0.5083012131581199,0.035302365828101756,0.3533074960760132,1.0010773007379612,5.399467539539955
35,24,male,102,105,155,change,catch,clock,1,0,1,0.5942043208772247,0,j,change,1.2957589822635782,0,0.4997479135515732,0.03529402709045826,0.3533254564335948,1.001051001642736,7.0871314678936415
35,24,male,103,105,105,same,valid,anti,5,0,2,0.32816491970106654,1,f,same,1.1752080996079712,0.08841323229477877,0.4998701081276522,0.03537067933120852,0.35324142761737676,1.001089167402597,5.250577136849643
35,24,male,104,45,45,same,valid,clock,2,1,2,0.3485682067032485,1,f,same,0.8607812498996736,0.23444382421678533,0.4992488721857171,0.03532898564390052,0.3533119861654086,1.001052605246059,4.955428165304738
35,24,male,105,165,165,same,valid,anti,1,1,2,0.2762723149426165,1,f,same,1.1324300556323124,0.2290034862525736,0.4990676650061232,0.03528408474971911,0.3534537447023922,1.0010519638046844,5.1312703296816835
35,24,male,106,15,325,change,catch,anti,3,1,1,0.9765197188689854,0,j,change,1.8459668413311192,0,0.5003749224658804,0.03531968474430869,0.3533241735510728,1.0010439457880693,8.017891402697614
35,24,male,107,135,185,change,valid,clock,5,2,2,0.2691831052047746,1,j,change,1.134682797633559,0.29004179539471,0.5008018016803817,0.03515547576012068,0.3533806203893164,1.0010388142570719,5.086038772563597
35,24,male,108,135,85,change,valid,anti,2,1,2,0.29298859709729186,1,j,change,0.9681444192358413,0.22376872736081788,0.5000144324303619,0.03532641987862917,0.353314872651481,1.0010019313799603,4.931730756278739
35,24,male,109,15,15,same,valid,anti,3,2,2,0.3604448139146825,1,f,same,1.839513941406949,0.28650545720892084,0.49992430992142545,0.035329627085275206,0.353313589768959,1.001064792631496,5.980188121917308
35,24,male,110,75,75,same,catch,clock,4,2,1,0.5645989163490412,0,j,change,1.216677923962152,0,0.49966003608733445,0.03534405951563713,0.3532699717572996,1.001105524157083,7.004256604761167
35,24,male,111,105,105,same,valid,clock,3,0,1,0.4261777985605022,0,j,change,1.317848939280566,0.08260391796865237,0.5007485620487842,0.03531262888964193,0.35334277534980174,1.0010330412851545,5.463120009185332
35,24,male,112,75,75,same,valid,clock,4,1,2,0.33465470250280305,1,f,same,1.0860365275186723,0.21841604116144514,0.4992921694765755,0.035352718973626907,0.35330717535543954,1.00106671695562,5.179181187294944
35,24,male,113,15,325,change,catch,anti,5,0,1,0.5418845161832451,0,j,change,1.6556598539182232,0,0.4990926812183716,0.035361699152417714,0.3532895357184316,1.0010801872240336,7.404251729807129
35,24,male,114,135,85,change,valid,anti,4,0,1,0.309814886442382,0,j,change,1.0387728842217712,0.08779523399302296,0.5002556143756465,0.035308138800246525,0.35334598255667515,1.0010330412851545,5.073647408673196
35,24,male,115,15,65,change,valid,clock,1,2,2,0.37681311414007723,1,j,change,1.5618974861272363,0.28323358268977866,0.4997366883280847,0.03536362347654176,0.3532888942770569,1.0010673583969947,5.626350795291046
35,24,male,116,15,15,same,valid,anti,2,2,2,0.33521436007572447,1,f,same,0.8864668063724821,0.27987544143542603,0.49994419460290374,0.035296913576758016,0.3533142312101063,1.0010558124529325,5.003137931056472
35,24,male,117,165,165,same,catch,anti,5,2,1,0.4758692973457528,0,j,change,1.2508301854597903,0,0.49974598922767655,0.03531743969983836,0.3533440582325511,1.0010535674080074,6.945920721698485
35,24,male,118,75,125,change,catch,clock,5,0,1,0.36562381132898736,0,j,change,1.9129448636263078,0,0.5001946774480075,0.03534951176698087,0.3532927429250776,1.0010134773240225,7.5120132342176476
35,24,male,119,165,215,change,catch,clock,1,2,1,0.23906005751155135,0,j,change,1.5659347179487213,0,0.4993973658570212,0.03532289195095473,0.353338926701781,1.0010590196593512,7.039541972393636
35,24,male,120,75,25,change,valid,anti,5,0,2,0.2295138067042899,1,j,change,1.3660301644206356,0.09317886848527052,0.49991885766985433,0.03533604149879466,0.35331455193067995,1.0010657547936717,5.320414383937305
35,24,male,121,165,165,same,catch,anti,5,1,1,0.6010218802057352,0,f,same,1.6872473122002702,0,0.49972001085325246,0.03528183970502141,0.3533700366069752,1.0010471529947154,7.582156128106135
35,24,male,122,45,95,change,valid,clock,4,0,2,0.9472504296052193,1,j,change,1.1827998786393437,0.08763964875603288,0.49981686849628204,0.035369717169260184,0.353297233014473,1.0010728106483384,5.826895828001398
35,24,male,123,105,55,change,valid,anti,1,2,2,0.5771121540947206,1,j,change,1.2268187908960044,0.27673344528468424,0.49980949192081425,0.03534534239838649,0.35318305645500914,1.001168064688045,5.497292476085477
35,24,male,124,75,75,same,valid,anti,2,1,2,0.33727851832190936,1,f,same,1.9962725843479348,0.21322538231626353,0.49952886133246466,0.03530044150397771,0.3532844041876615,1.0010375313745499,6.050262381581888
35,24,male,125,135,135,same,catch,anti,1,0,1,0.2639495852761229,0,j,change,2.6011014189323305,0,0.5000760107993756,0.035300120783404054,0.3533052510313155,1.0011010340674602,8.147517397492948
35,24,male,126,15,325,change,valid,anti,2,2,2,0.5909724186635685,1,j,change,1.0100622903689782,0.2738057866179252,0.5002517657278531,0.035354643297750954,0.35324591770677216,1.0011045619949073,5.333049816259063
35,24,male,127,105,155,change,valid,clock,5,2,2,1.609708920332423,1,j,change,1.2901078840195623,0.270788702022561,0.4998386775018844,0.03535881266634533,0.35330044022111906,1.0010763385757855,6.6158087067965425
35,24,male,128,15,15,same,valid,anti,1,0,1,0.2839211822533798,0,j,change,1.5951950270334692,0.08250452611137901,0.499982039642191,0.035280877543073075,0.35334822760137286,1.0010609439834752,5.603281036620501
35,24,male,129,165,165,same,valid,anti,1,2,2,0.33280799287217633,1,f,same,1.2970572595445446,0.267903890269454,0.5000574090004193,0.035327382040577504,0.35330204382466945,1.0010724899277648,5.3915351551549975
35,24,male,130,105,105,same,catch,anti,3,1,1,0.34259446346322875,0,j,change,1.392288207293177,0,0.5000288648604965,0.03533090996802457,0.35325104923754225,1.0010776214585348,6.969732948725095
35,24,male,131,15,15,same,valid,clock,5,2,2,0.47233206905229963,1,f,same,1.1563481204805157,0.2652131650883942,0.5003636972423919,0.03532385411313044,0.35330653391406486,1.0010131566034488,5.3801312902141945
35,24,male,132,45,45,same,valid,clock,4,1,2,0.2383615278877187,1,f,same,0.9554804427741601,0.20783615145872927,0.4995028829580406,0.035310383844944226,0.3532901771595789,1.0010872430787003,4.943204859046318
35,24,male,133,165,165,same,catch,anti,2,2,1,0.278578296575688,0,j,change,1.4527809368764792,0,0.49975561084784204,0.0353228919511821,0.35330428886936716,1.001045870111966,6.934221473018852
35,24,male,134,105,105,same,valid,clock,1,1,2,0.21236070299414678,1,f,same,0.7980107621028765,0.20256445578050683,0.4996298883440886,0.03531423249319232,0.3533209663444268,1.0010564538940798,4.790479919999598
35,24,male,135,105,55,change,valid,anti,2,2,2,0.8081481011090546,1,j,change,1.9344049252431432,0.2626602368167176,0.5000657477378354,0.035339890146588004,0.3532815177015891,1.001047473715289,6.439782128032903
35,24,male,136,105,155,change,valid,clock,3,0,2,0.5277378480541302,1,j,change,1.1267077573991173,0.08712576934300008,0.49945220909194177,0.035350473928929205,0.3533264185957705,1.001031437681604,5.332210810980769
35,24,male,137,105,105,same,valid,anti,5,1,2,0.7176343130067835,1,f,same,1.1470350336019237,0.1969966326335333,0.5000506738663262,0.03531776042018464,0.3533065339138375,1.0010769800171602,5.638874296098265
35,24,male,138,15,325,change,valid,anti,4,0,1,0.2348194887840691,0,j,change,1.2089405377457751,0.08227189364696401,0.5001577945706686,0.0353020451075281,0.35331455193090733,1.0010471529947154,5.096842889847267
35,24,male,139,165,115,change,valid,anti,2,1,2,0.3685641784516065,1,j,change,1.1763713534860472,0.19150829739799538,0.5005529224388283,0.0352937063698846,0.3533248149922201,1.0010750556932635,5.2268463728737515
35,24,male,140,105,55,change,valid,anti,2,0,2,0.24895332808614512,1,j,change,0.9498402490332865,0.08666288788563009,0.5004406702037159,0.03532930636447418,0.35334085102590507,1.0010352863298522,4.88582664791079
35,24,male,141,135,135,same,valid,anti,4,2,2,0.7369824289971803,1,f,same,0.9093300209303834,0.25998530042298584,0.49968409013786186,0.0353482288842315,0.353318079858127,1.00106671695562,5.391697119094488
35,24,male,142,135,85,change,valid,anti,1,1,2,0.5414258856219476,1,j,change,1.0076212853330162,0.18559611641138263,0.4995679892545013,0.035335079336618946,0.3532978744558477,1.0010689620003177,5.202721763912223
35,24,male,143,45,45,same,valid,anti,4,0,2,0.3270969198626972,1,f,same,0.8756052800886209,0.08206015880545259,0.4996805622104148,0.03534438023621078,0.3532997987797444,1.0010417007433716,4.931476424785615
35,24,male,144,75,75,same,valid,clock,2,2,2,0.29376506184462414,1,f,same,0.995833838468343,0.2574296766314973,0.5002174486157855,0.03530910096219486,0.3533068546346385,1.0010487565980384,5.014469313125346
35,24,male,145,75,25,change,valid,anti,5,1,2,0.33695394900155407,1,j,change,0.9135965680322897,0.1797214337435424,0.5000093008995918,0.03530108294535239,0.35334309607060277,1.0010606232629016,4.955321686041543
35,24,male,146,105,155,change,valid,clock,4,0,2,0.7873259529092138,1,j,change,3.154785569365913,0.0774966923095835,0.5000535603521712,0.03533155140939925,0.3532815177015891,1.0010856394753773,7.66442322556486
35,24,male,147,165,165,same,catch,anti,4,1,1,0.29523043459585097,0,j,change,2.6190774918873103,0,0.50016549186671,0.035319364023735034,0.3532911393217546,1.0010744142516614,8.111765702002913
35,24,male,148,165,165,same,catch,anti,2,0,1,0.2802380260541213,0,j,change,1.0684712977447361,0,0.5005580539695984,0.035333796454096955,0.3532933843664523,1.00104266290532,6.557855443495782
35,24,male,149,75,125,change,valid,clock,3,0,1,0.2625310377432015,0,j,change,1.6137544908910968,0.07324071660684572,0.49987748470334736,0.03535528473889826,0.35329755373527405,1.0010227782236143,5.60345935731425
35,24,male,150,15,65,change,catch,clock,2,1,1,0.23503693739985465,0,j,change,0.6674521115928655,0,0.4994913370139784,0.03533828654349236,0.3532821591427364,1.0010516430841108,6.085239536648487
35,24,male,151,45,355,change,valid,anti,3,2,2,0.299297814160127,1,j,change,1.1526736237397017,0.25502753318543375,0.5033800751639319,0.03530749735864447,0.35332417355084544,1.0010458701117386,5.171065350685694
35,24,male,152,165,165,same,valid,clock,5,1,2,0.2955027264461023,1,f,same,0.9754132325501814,0.17329864269864198,0.4995596505168578,0.03534053158819006,0.3532799140980387,1.0010343241679038,4.979246486024294
35,24,male,153,75,75,same,valid,anti,1,2,2,0.2692087628583977,1,f,same,0.9671319040735398,0.252731469121385,0.4991885766994528,0.03529627213538333,0.35333604021570864,1.0010404178606223,4.966227471777984
35,24,male,154,45,95,change,valid,clock,5,0,2,0.2331414782270258,1,j,change,0.7212061791328779,0.07707237176598017,0.500652025126783,0.035306214475895104,0.3533472654394245,1.0010307962406841,4.638836771779552
35,24,male,155,75,75,same,valid,clock,3,0,2,0.2563215648087862,1,f,same,0.866400276076547,0.07301323547134644,0.49970910635011023,0.03533347573329593,0.3533081375171605,1.0010888466822507,4.837862871386733
35,24,male,156,75,75,same,valid,anti,3,1,2,0.2028795584828913,1,f,same,0.7889340463598273,0.16637444797357331,0.4994570199019108,0.03531936402396241,0.35331679697537766,1.0010522845254854,4.743285552367524
35,24,male,157,75,75,same,valid,clock,3,1,3,1.1911783854793612,1,f,same,1.450681499356051,0.15930846273816393,0.5001170630453089,0.035329947806076234,0.35330621319326383,1.0010651133520696,6.356935167599204
35,24,male,158,105,105,same,valid,clock,3,2,3,0.4711800403979396,1,f,same,1.904710039647398,0.250312142209104,0.5003386810299162,0.03535432257740467,0.35330428886936716,1.0009910268772728,6.145658179756083
35,24,male,159,75,125,change,valid,clock,2,0,3,0.5307872602052157,1,j,change,1.1586172192364756,0.06894140862472917,0.4999762666702736,0.035353360414774215,0.35330813751761525,1.0010458701117386,5.403729917273722
35,24,male,160,135,185,change,catch,clock,4,1,1,0.860139487835113,0,f,same,0.8788249949166129,0,0.4991577875148323,0.03532545771622608,0.3533103825620856,1.00107184848639,7.1103747364477385
35,24,male,161,105,155,change,catch,clock,4,1,1,0.58956926572273,0,f,same,0.8625400820660616,0,0.4995686306956486,0.0353184018617867,0.3533248149924475,1.0010593403803796,6.686554234827781
35,24,male,162,75,25,change,valid,anti,5,2,2,0.42125601912539423,1,j,change,1.0153102427275371,0.24796747068548894,0.5004634413712665,0.03534790816365785,0.3532568222099144,1.0010875637990466,5.156143179971423
35,24,male,163,45,95,change,valid,clock,1,0,2,0.39097325253760573,1,j,change,0.9892301998283983,0.06511781289276264,0.49979538021125336,0.03527991538112474,0.35333988886395673,1.0010955818161165,5.038170891519712
35,24,male,164,105,155,change,valid,clock,3,2,2,0.37176753652556727,1,j,change,0.9829915413129129,0.2457572935717291,0.49930275325868934,0.03532353339232941,0.3533277014785199,1.001066396234819,5.026174976218499
35,24,male,165,105,155,change,valid,clock,2,0,3,0.345729187312827,1,j,change,1.0628994175071966,0.06145432174726037,0.4995051280025109,0.03533187212997291,0.3533135897687316,1.0010660755147,5.037652286192952
35,24,male,166,135,85,change,catch,anti,3,2,1,0.31530017209888683,0,j,change,2.3974322461540396,0,0.5002254666324006,0.035335720778221,0.3532622744614855,1.00106158542485,7.864989425839667
35,24,male,167,105,105,same,catch,clock,2,0,1,0.5626425202485734,0,j,change,0.8761543538794285,0,0.5001003855700219,0.03530525231417414,0.3533283429196672,1.001035927770772,6.604807025578793
35,24,male,168,165,115,change,valid,anti,4,1,2,0.3456156521951925,1,j,change,0.9358635628600496,0.1515337135828977,0.500185055827842,0.035328344202753215,0.35330108166226637,1.0010859601961783,4.968072898525861
35,24,male,169,45,45,same,valid,anti,1,0,1,0.6235101722973013,0,j,change,1.065114314469156,0.057768598427191814,0.4992668325435261,0.03534726672205579,0.35327959337746506,1.0010875637995014,5.331332357059637
35,24,male,170,165,165,same,valid,anti,5,2,2,0.6666304252303235,1,f,same,1.2146567422864791,0.2436444459715116,0.5005253404610812,0.03533219285054656,0.3533184005791554,1.0010500394805604,5.627672805901966
35,24,male,171,75,75,same,valid,clock,5,2,2,0.2926688385869056,1,f,same,0.944377413823986,0.2414224720386755,0.49938710279548104,0.03531808114121304,0.35329595013172366,1.0010192502959399,4.967186105867313
35,24,male,172,15,15,same,valid,clock,1,2,2,0.23853407560909545,1,f,same,0.828089871064094,0.2392325159473005,0.4992264217385127,0.03534470095701181,0.3533200041820237,1.0010580574976302,4.825176444478075
35,24,male,173,135,185,change,valid,clock,1,0,2,0.3632270657458321,1,j,change,1.9938120153510681,0.061210947111866754,0.500435859393292,0.03526323790629249,0.3533299465229902,1.0010933367716461,6.027875437222519
35,24,male,174,75,75,same,catch,clock,5,1,1,0.2561615251938747,0,j,change,1.0760393434461548,0,0.5001815279001676,0.03533956942601435,0.35325874653381106,1.001069603441465,6.50991475885985
35,24,male,175,135,135,same,valid,clock,5,1,2,0.49926330461585167,1,f,same,0.9777977907474451,0.14300979866051722,0.5008290629375551,0.03532064690671177,0.35331872129927433,1.0010545295704105,5.215888309667207
35,24,male,176,165,215,change,valid,clock,4,0,1,0.21298674974605092,0,j,change,2.4411589818782886,0.057666999600138436,0.49927132263246676,0.035360095549094694,0.3533248149924475,1.001070244883067,6.345255162159447
35,24,male,177,75,75,same,valid,clock,4,2,2,0.2741796125565088,1,f,same,0.7785058137037595,0.23713907186529004,0.4994987135892188,0.03531776042063939,0.35331583481320195,1.001018288134219,4.766657109190874
35,24,male,178,45,355,change,valid,anti,4,2,2,0.2433477721779127,1,j,change,1.0174872946508913,0.23514767255400723,0.4997912108424316,0.035342455912086734,0.35324655914791947,1.0011202773080186,4.932355520148121
35,24,male,179,105,55,change,valid,anti,4,0,1,0.2335391718606843,0,j,change,1.0459878164629117,0.06098365678047729,0.4993203928956973,0.03535079464973023,0.35332000418247844,1.0010554917321315,4.967367633767481
35,24,male,180,75,75,same,valid,anti,4,2,2,0.2613969694461957,1,f,same,0.7999815906332515,0.23322735083409668,0.49946150999130623,0.035324816275078774,0.3533273807574915,1.0010577367770566,4.778665853319126
35,24,male,181,165,215,change,valid,clock,2,0,1,0.12499831621653357,0,j,change,0.7617641946158074,0.06414871063782626,0.5000317513463415,0.03533219285054656,0.3533293050818429,1.001065434073098,4.590811416886481
35,24,male,182,165,115,change,catch,anti,5,2,1,0.17959042687289184,0,j,change,0.6494006692801122,0,0.5000846702573654,0.035355284739125636,0.3532712546402763,1.0010959025366901,5.991920725547061
35,24,male,183,135,135,same,valid,clock,4,2,2,1.290825977604527,1,f,same,1.0075346907515268,0.2311917328174735,0.500592050360865,0.035319684744081314,0.353316476254804,1.0010474737155164,6.063030271541265
35,24,male,184,135,185,change,valid,clock,1,2,2,0.47586384509440904,1,j,change,1.037127907894046,0.22917229680553064,0.5000054522511164,0.035316477537435276,0.35329242220450396,1.0010833944306796,5.1912806953737345
35,24,male,185,105,155,change,catch,clock,4,1,1,0.1311067621386428,0,j,change,0.42111778851540294,0,0.5001962810511031,0.03534149375036577,0.3532975537350467,1.0010323998435524,5.7448939665387115
35,24,male,186,105,55,change,valid,anti,3,2,2,0.2848887965214999,1,j,change,1.0949451856299675,0.22723411809971814,0.5004852503770962,0.03536586852123946,0.35329402580737224,1.001067037676421,5.050088230257188
35,24,male,187,165,115,change,valid,anti,3,0,2,0.46489263234070677,1,f,same,1.4625164128806318,0.06717441162251853,0.5004105224602426,0.03530781807967287,0.35332032490259735,1.001069282721346,5.627735667153502
35,24,male,188,165,165,same,valid,clock,2,2,2,0.24853222184356127,1,f,same,0.8224673169602283,0.2253841879376125,0.4992867172250044,0.035354001855921524,0.353299798779517,1.001073452089713,4.813254936372232
35,24,male,189,75,125,change,valid,clock,3,2,2,0.34602809897933184,1,j,change,3.5708481586466405,0.22359619956281193,0.5000455423351013,0.03532545771622608,0.3532911393217546,1.001052605246059,7.605358665134645
35,24,male,190,45,95,change,catch,clock,4,2,1,0.2174017905194887,0,j,change,1.444575298478867,0,0.500368508052361,0.035253616285899625,0.3533392474228094,1.001111297128773,6.863780629626035
35,24,male,191,45,95,change,valid,clock,2,2,2,0.28210943117619536,1,j,change,1.0868928517134009,0.22169857833056988,0.49988101263079443,0.03529242348713524,0.3533434167911764,1.0010708863242144,5.026317055476284
35,24,male,192,135,185,change,valid,clock,5,1,2,0.2010482434448022,1,j,change,2.8121859743714595,0.1336794863805194,0.4994518883713681,0.035347587443084194,0.3533174384169797,1.0010465115533407,6.6742760853348955
35,24,male,193,45,355,change,valid,anti,3,0,1,0.20681159392370319,0,j,change,1.1557631259743175,0.06393449744650889,0.500017639637008,0.035292102766561584,0.35333475733295927,1.001028551195759,5.014228451900635
35,24,male,194,135,85,change,valid,anti,5,2,2,0.5764582046444957,1,j,change,1.8921182253370716,0.21981161007379357,0.5003017981525772,0.03533860726383864,0.3533113447242613,1.0010769800169328,6.1576672446053635
35,24,male,195,135,185,change,catch,clock,5,1,1,0.22886627166735707,0,j,change,0.9194997527242776,0,0.4998383567813107,0.035314873934567004,0.353335719495135,1.0010683205587156,6.28586571168853
35,24,male,196,45,95,change,valid,clock,3,1,2,0.2272921746080101,1,j,change,0.7234679013131426,0.12342107914817774,0.5006244431483537,0.03537645230335329,0.3532834420252584,1.0010933367716461,4.6267824853157435
35,24,male,197,15,15,same,valid,clock,3,1,2,0.19668612158284304,1,f,same,0.7923455521495271,0.11205016912958288,0.49921006498425413,0.035339248705440696,0.35330332670719145,1.0010449079500177,4.731012213684608
35,24,male,198,135,135,same,valid,clock,4,0,1,0.3270757522986969,0,j,change,1.183758512728673,0.06685712704650429,0.5003386810299162,0.03533443789547164,0.35326451950595583,1.0010930160506177,5.1918727457345994
35,24,male,199,45,45,same,catch,clock,3,2,1,0.1971011341324811,0,j,change,0.31493070188435013,0,0.49987299461417933,0.03533219285054656,0.3533289843608145,1.0010404178606223,5.732829417012908
35,24,male,200,165,165,same,valid,anti,2,0,1,0.16582220913687706,0,j,change,0.4143711084552706,0.06997908376396414,0.5003948071471314,0.03533892798486704,0.3532757447296717,1.0010683205587156,4.296952063164099
35,24,male,201,75,25,change,valid,anti,2,2,2,0.23184288022594046,1,j,change,1.0381721744024617,0.21795941648710515,0.5061854188834332,0.03535303969465531,0.3532924222040492,1.0010439457882967,4.96219280572177
35,24,male,202,45,45,same,valid,clock,1,1,3,0.49744064903597973,1,f,same,1.7004661354249038,0.09918587581867076,0.49921840372189763,0.03533219285054656,0.35331551409308304,1.001083715151708,6.073197116849769
35,24,male,203,165,165,same,valid,anti,5,1,2,0.26297587731551175,1,j,change,2.140410868838444,0.08402249550238647,0.5001023098943733,0.03535111537030389,0.3532975537350467,1.00106158542485,6.086181493262757
35,24,male,204,135,135,same,valid,clock,5,2,3,0.7857284432411689,1,f,same,0.7914670982286225,0.21619374458289098,0.5004297657005736,0.03535239825305325,0.3532693303159249,1.001078262900137,5.332879192861583
35,24,male,205,105,105,same,valid,clock,4,0,1,0.3761091322644461,0,j,change,1.2397890555994309,0.07303055844764247,0.5001812071800487,0.03535400185637627,0.3533055717516618,1.0010542088493821,5.297687475665043
35,24,male,206,105,55,change,valid,anti,5,0,2,0.542144620648287,1,j,change,1.0875840047619931,0.07592127734254489,0.4999194991114564,0.035324174833931465,0.35331679697537766,1.0010426629050926,5.320800531626446
35,24,male,207,15,15,same,valid,anti,2,0,1,0.24376374688972646,0,j,change,1.2199880820194267,0.07286045535519597,0.5001029513359754,0.035299800062603026,0.35331391048930527,1.0010882052406487,5.1328325600757125
35,24,male,208,105,55,change,catch,anti,4,2,1,0.21587483939902086,0,j,change,1.3428917715264106,0,0.4995218054777979,0.035377414465529,0.35330396814833875,1.001062226866452,6.780646303469894
35,24,male,209,135,135,same,valid,anti,3,2,3,0.6601297379261268,1,f,same,0.9057584755246353,0.21449062461977952,0.5002674810402823,0.03532449555450512,0.3533437375117501,1.0010542088493821,5.320865637923362
35,24,male,210,105,105,same,valid,clock,4,1,1,0.18688489784062767,0,j,change,1.310409181848172,0.06379440091072935,0.499794097328504,0.035352718973626907,0.3533094204003646,1.0011298989279567,5.179240199898686
35,24,male,211,105,105,same,valid,clock,2,2,2,0.43976897848551744,1,f,same,1.2923346476468396,0.21268904870362032,0.49998781261456315,0.03533860726383864,0.35328247986353745,1.0010712070452428,5.462579594852741
35,24,male,212,135,135,same,catch,clock,2,2,1,0.12914523450763227,0,j,change,0.7103478600556627,0,0.49905515689988533,0.03534053158819006,0.3532734996842919,1.0010766592963591,6.026216990626381
35,24,male,213,105,155,change,valid,clock,4,2,3,0.3719763256826809,1,j,change,1.4572351055712716,0.2109063238274574,0.5007540143001279,0.035277028895052354,0.3533536798527166,1.0010426629050926,5.557136708469443
35,24,male,214,105,105,same,valid,anti,3,0,2,0.36847052801522295,1,f,same,2.455648179685795,0.07565946026961234,0.49953720007033553,0.03532994780562149,0.35327734833299473,1.0010426629050926,6.53323115172725
35,24,male,215,15,15,same,catch,clock,1,0,1,0.15935359389959558,0,j,change,0.2769451869130535,0,0.4995837045676126,0.03533796582269133,0.35331904202030273,1.0010282304751854,5.603128694301631
35,24,male,216,15,15,same,catch,clock,2,1,1,0.05901613160813213,0,j,change,0.25890849775078095,0,0.5003226449962312,0.03531679825846368,0.3533135897687316,1.0010458701121934,5.486051857967141
35,24,male,217,15,15,same,valid,clock,4,0,1,0.3286065520669581,0,j,change,1.4112604386564271,0.07270086228256464,0.5003755639072551,0.035335079336618946,0.3533010816627211,1.000961520574947,5.415058092135496
35,24,male,218,75,75,same,valid,clock,3,2,3,2.5524715055717024,1,f,same,0.9728715212227144,0.20911527078175837,0.49985310993179155,0.035303969431424775,0.3533030059866178,1.0010833944302249,7.2642780032442715
35,24,male,219,105,105,same,catch,clock,3,1,1,0.30080776708518897,0,j,change,1.0668741087974922,0,0.49909396410112095,0.0353770937445006,0.35329049788015254,1.0010955818165712,6.54419370502319
35,24,male,220,75,125,change,valid,clock,5,1,3,0.6507188312425569,1,j,change,0.9235706602162281,0.09768305439869342,0.500427841376677,0.03532192978900639,0.3533328330090626,1.0010567746148809,5.285504900932665
35,24,male,221,165,115,change,valid,anti,5,1,1,0.4871275551013241,0,f,same,1.9788138338371937,0.08789293230135524,0.5004801188465535,0.035320646906257025,0.3532985158972224,1.001084035871827,6.1577916842256855
35,24,male,222,15,15,same,valid,anti,1,1,1,0.36501925286165715,0,f,same,0.5070019737149778,0.10504758499238219,0.4992777370462136,0.03533892798486704,0.353314872651481,1.001064792631496,4.566224328715634
35,24,male,223,45,95,change,valid,clock,5,1,3,0.46980446943462084,1,j,change,1.1304569820572397,0.11805095261097072,0.5003008359904015,0.035324174833931465,0.35333796454006006,1.001032720564126,5.297845270236394
35,24,male,224,165,115,change,valid,anti,4,2,3,0.7328015143143602,1,j,change,1.9536985187196478,0.20738158108662536,0.49997434234637694,0.03530685591749716,0.3533376438194864,1.0010638304693202,6.380943675676917
35,24,male,225,75,125,change,valid,clock,4,0,1,0.6142859250448964,0,j,change,1.0649218820658461,0.07541422663047047,0.4999656828881598,0.03533123068837085,0.35332128706477306,1.0010323998440072,5.379857715480739
35,24,male,226,15,15,same,valid,clock,1,1,3,0.8257277633133526,1,f,same,1.3717601599500995,0.11180478507230443,0.4996077586179126,0.035327382040577504,0.353316476254804,1.0010692827208914,5.9684891939582485
35,24,male,227,45,45,same,catch,clock,2,0,1,0.21256692638598906,0,j,change,1.2912685721325943,0,0.4998486198428509,0.035346625280908484,0.3533187212997291,1.0010500394805604,6.674873267226303
35,24,male,228,105,105,same,valid,clock,5,1,2,0.30749030301058156,1,f,same,1.0406301776342843,0.10544159103062582,0.5005622233384202,0.035305573034747795,0.3533219285063751,1.0010696034419198,5.109052084395898
35,24,male,229,165,115,change,valid,anti,5,2,2,0.4340652820515061,1,j,change,1.4633425893316598,0.20571718630785138,0.5005144359583937,0.035290499163238565,0.3533559248971869,1.0010586989392323,5.580839569746786
35,24,male,230,105,155,change,valid,clock,1,1,2,0.2592407643669503,1,j,change,1.2782630281549245,0.09935519330293208,0.499137902833354,0.03531840186133195,0.35331455193090733,1.001051001642736,5.226189857658028
35,24,male,231,75,125,change,valid,clock,2,2,2,0.3431579696839435,1,j,change,0.9119284998164403,0.2041014312293522,0.499653942394616,0.03531327033078924,0.35334854832171914,1.0010558124527051,4.919808927452323
35,24,male,232,105,105,same,catch,anti,3,2,1,0.21176672830915777,0,j,change,0.8063264076913583,0,0.5003919206615137,0.03532674059897545,0.3532786312157441,1.0010875637990466,6.215859124086364
35,24,male,233,45,45,same,valid,anti,4,2,2,0.32893657363865714,1,f,same,0.6782254396921417,0.20238100272089485,0.5007203386298897,0.035290499163238565,0.35334437895335213,1.001067679118023,4.767932936024408
35,24,male,234,15,65,change,valid,clock,5,2,2,0.2763140086299245,1,j,change,0.7490889929308651,0.20066919252108165,0.4995487460141703,0.035336682939941966,0.3533167969758324,1.0010137980443687,4.720126312629418
35,24,male,235,165,215,change,catch,clock,4,0,1,0.22088353413664663,0,j,change,0.7015585100343742,0,0.4991606740009047,0.03529755501767795,0.3533228906680961,1.0010628683075993,6.121276352816039
35,24,male,236,135,135,same,valid,clock,1,2,3,0.6932361293120266,1,f,same,0.8880033791128881,0.19893694176962742,0.49996600360873344,0.03532770276115116,0.3532985158972224,1.0010692827208914,5.344072985762068
35,24,male,237,165,215,change,valid,clock,3,2,3,1.8076333444300872,1,j,change,1.4799988967206446,0.1972587526941394,0.5003906377787644,0.035342455912086734,0.35329691229389937,1.0010426629050926,6.946886732363055
35,24,male,238,15,325,change,valid,anti,2,1,2,2.1893836325975826,1,f,same,1.8038918170686884,0.0931748529460889,0.499177992917339,0.03531583609628797,0.35332802219909354,1.0010654340726433,7.746318928484925
35,24,male,239,135,85,change,valid,anti,1,2,2,0.4581299162468895,1,j,change,0.8000277744104096,0.1956412825427245,0.4998736360548719,0.03529915862145572,0.3533100618415119,1.0010904502855738,4.955739264356453
35,24,male,240,165,165,same,valid,anti,4,0,2,0.485558910294003,1,f,same,1.129144593066485,0.07827673318062,0.49994676036840247,0.035309100962422235,0.35331872129927433,1.0010811493862093,5.355772875882849
35,24,male,241,105,155,change,valid,clock,4,1,2,0.2671269649754322,1,j,change,1.0226008650474796,0.08686618530342141,0.5005461873047352,0.03529659285595699,0.35334085102613244,1.0010500394805604,4.991825150786553
35,24,male,242,105,155,change,valid,clock,1,2,2,0.15864191472837774,1,j,change,0.9601745105319424,0.19406540055069585,0.49925849380633736,0.03535143609087754,0.35329370508725333,1.0010805079446072,4.825207233662695
35,24,male,243,15,15,same,valid,anti,3,0,1,0.2491752667910987,0,j,change,0.7255737532464082,0.07539765321594653,0.49965490455679173,0.03527991538066999,0.3533309086847112,1.0010882052406487,4.60205716653536
35,24,male,244,165,165,same,valid,clock,3,2,2,0.2619473261197527,1,f,same,0.8013917994289841,0.19238095601482993,0.49979730453515003,0.035281198263419355,0.35332609787519687,1.001048756597811,4.814429736194597
35,24,male,245,15,15,same,catch,anti,1,2,1,0.33829584429395254,0,j,change,0.8383542154560928,0,0.49989384145783333,0.035322571230608446,0.3533100618410572,1.0010599818219816,6.368866618045558
35,24,male,246,135,85,change,catch,anti,3,1,1,0.2038279295106804,0,j,change,0.7514389132957149,0,0.5003422089571359,0.035358491945771675,0.3532882528356822,1.0010644719109223,6.169056356395231
35,24,male,247,135,85,change,valid,anti,2,0,2,0.20509156895923297,1,j,change,0.7029071404608658,0.07816896697246044,0.4999089153288878,0.03534790816365785,0.35327702761196633,1.0010567746148809,4.6374422782969305
35,24,male,248,135,135,same,valid,anti,5,2,2,0.23448529784400307,1,f,same,0.8124714157697781,0.19069938026881345,0.4998470162395279,0.035269652319584566,0.3533645843558588,1.0010365692123742,4.767299833417383
35,24,male,249,45,45,same,catch,clock,3,2,1,0.21623917808301485,0,j,change,0.26435401404341974,0,0.5000009621621757,0.03533347573329593,0.35330942039990987,1.0010439457882967,5.6738482439582185
35,24,male,250,45,45,same,valid,clock,2,2,2,0.1743027051502395,1,f,same,0.7039931006570441,0.18898342534799295,0.5005840323437951,0.03532032618613812,0.35331519337205464,1.0010651133525243,4.637912775523091
35,24,male,251,135,185,change,catch,clock,1,2,1,0.07047516050442937,0,j,change,0.806331539221901,0,0.5068040890605516,0.03532032618568337,0.3533023645454705,1.0010436250672683,6.104302852682395
35,24,male,252,15,325,change,valid,anti,5,1,2,0.5189109737143554,1,j,change,2.4416442322558396,0.08080334761972002,0.5003762053484024,0.03538896040981854,0.3533184005787007,1.0010490773188394,6.640525366118709
35,24,male,253,105,105,same,catch,anti,5,2,1,0.2966194758269012,0,j,change,0.4155574542219256,0,0.4993261658673873,0.03536394419734279,0.3533100618415119,1.0010651133520696,5.92029963008099
35,24,male,254,165,215,change,valid,clock,4,1,2,0.2534989021733054,1,j,change,0.6014093107778535,0.07452268277812285,0.5008633800498501,0.03532930636447418,0.3533184005787007,1.0010779421795633,4.532987724736813
35,24,male,255,75,25,change,catch,anti,1,1,1,0.31553750539615066,0,j,change,0.4340065901683374,0,0.49922802534183575,0.03534470095701181,0.35332064562362575,1.001039134977873,5.897298505634353
35,24,male,256,105,55,change,valid,anti,4,1,2,0.41813957635395127,1,j,change,0.7754246502063324,0.06809251765062677,0.49953880367365855,0.035354964018097235,0.35326195374091185,1.0011148250564474,4.884352615701573
35,24,male,257,135,85,change,valid,anti,1,0,2,0.25806404022114293,1,j,change,0.8445229568651484,0.07538188306792068,0.5003152684207635,0.03534149375036577,0.353256501488886,1.001091091726721,4.779723910816756
35,24,male,258,105,105,same,valid,anti,4,0,2,0.30252811277023284,1,f,same,1.1232542372013086,0.07269537226886283,0.49911769743084733,0.03537645230335329,0.35330044022111906,1.0010798665030052,5.09614468094378
35,24,male,259,105,155,change,catch,clock,5,2,1,0.20659061738069795,0,j,change,0.2220092636962363,0,0.499998396396677,0.035335720777766255,0.35329562941115,1.00104330434624,5.603654034762712
35,24,male,260,15,15,same,valid,anti,4,1,2,0.1863512186423577,1,f,same,0.8712665708353597,0.06180594385068175,0.5002472756382303,0.035342455912086734,0.3533129483275843,1.0010436250672683,4.7910841577459
35,24,male,261,15,15,same,catch,clock,5,0,1,0.14411102323401792,0,j,change,0.2509353818404634,0,0.5002020540232479,0.03531615681731637,0.35330396814833875,1.0010731313691394,5.579862975299875
35,24,male,262,165,115,change,catch,anti,2,0,1,0.19494236328773695,0,j,change,1.221941591633822,0,0.5006953224169592,0.03533187212997291,0.3533142312103337,1.0010461908323123,6.640174176982782
35,24,male,263,135,85,change,valid,anti,3,0,2,1.5091613860008692,1,j,change,1.447415280030782,0.06993761941337492,0.5003973729130848,0.035267727995233145,0.35336522579700613,1.0010471529949427,6.616658616577752
35,24,male,264,165,215,change,valid,clock,5,1,1,0.18627103847438775,0,j,change,0.5717907567018301,0.05523986571884726,0.4994862054832083,0.035362661314593424,0.3532574636510617,1.0010766592963591,4.413131202336899
35,24,male,265,15,325,change,catch,anti,2,0,1,0.17158042808523533,0,j,change,0.31482871271055046,0,0.4999127639771359,0.035219299174059415,0.3534011465126241,1.00104330434624,5.650232618703285
35,24,male,266,45,355,change,valid,anti,5,1,2,0.34948001557404496,1,j,change,2.60420086350814,0.06653939936065845,0.5005112287517477,0.035335079336618946,0.35329595013172366,1.001019891737542,6.639975330165726
35,24,male,267,165,165,same,catch,clock,4,0,1,0.11624745267590697,0,j,change,0.22523924158531372,0,0.5000115459442895,0.035335079336618946,0.3532799140980387,1.001087884520075,5.532298175291544
35,24,male,268,15,15,same,catch,clock,4,0,1,0.6110370246356069,0,j,change,1.7000584994507335,0,0.5003143062585877,0.03533411717489798,0.3533155140926283,1.0010628683075993,7.464537594556532
35,24,male,269,45,45,same,catch,anti,1,0,1,0.18155676531387144,0,j,change,3.7272831944292193,0,0.5004121260635657,0.03530621447634985,0.3533017231038684,1.0010789043412842,9.113158912603012
35,24,male,270,165,165,same,valid,anti,3,1,1,0.1752177212283641,0,j,change,0.7957233822689886,0.06112608627876473,0.5001414378166373,0.03530268654867541,0.35332000418247844,1.0010724899275374,4.661430580972592
35,24,male,271,75,75,same,valid,clock,5,0,2,0.36309653243233697,1,f,same,0.7191606226856493,0.06728837588113082,0.49947658386281546,0.03533636221936831,0.3532702924781006,1.0010612647042763,4.814137238941385
35,24,male,272,135,135,same,valid,clock,3,2,2,0.2703280780042405,1,f,same,0.8529700979288464,0.18730809992751787,0.49927292623624453,0.03530525231417414,0.35332609787519687,1.00107184848639,4.837195130946839
35,24,male,273,135,135,same,catch,anti,4,2,1,0.6332017095696756,0,j,change,0.9793067815098766,0,0.5000266198157988,0.03536811356616454,0.35324591770677216,1.001094298933367,6.780717503459073
35,24,male,274,15,15,same,catch,clock,3,0,1,0.25733247636799206,0,j,change,2.9676655832722645,0,0.5009361836418975,0.03536073699069675,0.353273178964173,1.001091091726721,8.442260657387578
35,24,male,275,165,215,change,valid,clock,3,1,1,0.14161325063878394,0,j,change,0.43894825428515105,0.0704067761119592,0.5003762053484024,0.035294668532060314,0.35333026724356387,1.0010490773188394,4.261492864927277
35,24,male,276,165,165,same,catch,anti,1,2,1,0.09967773986818429,0,j,change,0.2638620285329125,0,0.4992219316491173,0.03535303969420056,0.3533058924726902,1.0010830737096512,5.5321718113468705
35,24,male,277,105,105,same,valid,clock,5,2,2,0.3663855229251567,1,f,same,0.8999017953301518,0.18568855912130416,0.5001270053862754,0.03533636221936831,0.35330685463441114,1.0010500394805604,4.9799482228550005
35,24,male,278,165,165,same,catch,anti,2,0,1,0.06744851952134923,0,j,change,0.19454851830232656,0,0.4992475893031951,0.03530845952082018,0.35332417355084544,1.0010657547936717,5.473424122941196
35,24,male,279,135,185,change,catch,clock,1,0,1,0.0804704202528228,0,j,change,0.3713695221713351,0,0.4994085910807371,0.03535047392870183,0.35330974112093827,1.0010756971346382,5.697394272826841
35,24,male,280,135,185,change,valid,clock,3,1,2,0.2500184414384421,1,j,change,0.8137017002686662,0.07868621714080573,0.49987074956925426,0.03529146132495953,0.3533264185957705,1.0010853187545763,4.778776822671716
35,24,male,281,45,45,same,catch,anti,3,2,1,0.12230009320182944,0,j,change,0.2375561982794352,0,0.49965073518797,0.035335079337073694,0.3532362960863793,1.0011331061350575,5.544168368089686
35,24,male,282,105,105,same,valid,anti,3,1,2,0.34497036220273003,1,f,same,2.079504088867907,0.07425159220516156,0.49979794597629734,0.035337324381089275,0.3532808762602144,1.0010744142518888,6.204427356447013
35,24,male,283,75,125,change,valid,clock,3,1,2,0.22689159448873397,1,j,change,0.9598999736367659,0.0697383691220678,0.49915682535311134,0.03530268654867541,0.35331519337205464,1.0010866016373257,4.872351248148334
35,24,male,284,75,125,change,valid,clock,1,0,2,0.19210109885352722,1,j,change,1.4003722925563125,0.06478328775915329,0.4996905045513813,0.035339890146588004,0.3532994780593981,1.0010667169553926,5.238250879255702
35,24,male,285,45,45,same,valid,anti,4,1,2,0.17584889951103833,1,f,same,0.7400728933944265,0.0653248842204942,0.4998175099376567,0.03531583609628797,0.35332160778580146,1.0010596611009532,4.625642644047275
35,24,male,286,105,105,same,valid,anti,2,2,2,0.2167545762026748,1,f,same,0.935743613329123,0.1841059065767417,0.500166774749232,0.035324174833931465,0.3533248149924475,1.0010657547936717,4.8617158299384755
35,24,male,287,165,165,same,catch,clock,3,1,2,0.4577405613508745,1,j,change,0.8989354639447811,0,0.49981141624448355,0.03529530997320762,0.35330364742821985,1.0010696034419198,6.557547872370833
35,24,male,288,165,165,same,valid,clock,4,0,2,0.15138913744749516,1,f,same,0.8569188108449453,0.06226813481283494,0.5000497117043778,0.035363623476769135,0.3532728582431446,1.0010987890232173,4.732067705416739
35,24,male,289,15,65,change,valid,clock,2,1,2,0.25496748213117826,1,f,same,1.033914607479801,0.06109157047086963,0.4994948649414255,0.035307176638070814,0.35331166544483494,1.001025343989113,4.979166626576443
35,24,male,290,105,55,change,catch,anti,1,2,1,0.08053648871145924,0,j,change,0.23134897039017233,0,0.4998277729991969,0.035320646906257025,0.3532882528356822,1.0010763385757855,5.484890207691933
35,24,male,291,15,325,change,valid,anti,4,1,1,0.13762573052144944,0,j,change,0.5803382833364594,0.05668897476372187,0.5009111674294218,0.035358491945771675,0.35330268526604414,1.001057416056483,4.378960018319503
35,24,male,292,135,85,change,catch,anti,2,1,1,0.03812631134633193,0,j,change,0.23872426296793492,0,0.5001074414253708,0.03532545771668083,0.3533228906680961,1.0010394556984465,5.438187504850703
35,24,male,293,105,55,change,valid,anti,2,1,1,0.027445350800917367,0,j,change,0.4827298332443206,0.06422092123020134,0.5008608142843514,0.03528665051499047,0.35334502039449944,1.0010795457824315,4.190952598125932
35,24,male,294,45,95,change,valid,clock,1,1,1,0.06016880170409422,0,j,change,0.25835204738450557,0.0708051931618465,0.4996760721210194,0.03534630456033483,0.35325682220945964,1.0010699241620387,3.954188900627287
35,24,male,295,135,135,same,valid,anti,3,1,1,0.15785005538828045,0,j,change,1.137639842230783,0.07708018039657237,0.499692428875278,0.035310704565745255,0.35333026724356387,1.0010529259670875,4.991236307632789
35,24,male,296,15,15,same,valid,clock,2,0,1,0.08932712161549716,0,j,change,1.0562075806819848,0.059746253221732604,0.49943489017550746,0.03535047392870183,0.35327542400909806,1.001070244883067,4.8025842388883575
35,24,male,297,105,55,change,valid,anti,1,0,1,0.08784218490291096,0,j,change,0.7536281526040511,0.06207985805499333,0.49946183071233463,0.0353228919511821,0.35332353210969814,1.0010651133525243,4.50761070155113
35,24,male,298,165,165,same,catch,clock,3,1,1,0.010161713777051773,0,j,change,0.22116416472454148,0,0.49980692615508815,0.03534951176698087,0.35329242220450396,1.0010567746148809,5.438484171472737
35,24,male,299,135,135,same,valid,clock,1,0,2,1.1813611257039156,1,f,same,1.0127108016795319,0.06428987196794492,0.5003534341808518,0.03534983248755452,0.3533219285063751,1.0010452286705913,5.945130465962393
35,24,male,300,45,95,change,valid,clock,1,2,2,0.32974895910138,1,j,change,1.9592412133761172,0.1824078239472634,0.5004214269633849,0.035306214475895104,0.35332738075794623,1.001064792631496,5.992826440725366
35,24,male,301,45,355,change,valid,anti,2,0,2,0.2166801690068496,1,j,change,0.8206376055250075,0.06190043383284363,0.5086010869868005,0.0353103838451716,0.3533074960760132,1.0010381728156972,4.740274947418129
35,24,male,302,135,135,same,valid,clock,2,0,2,0.25830714649055153,1,f,same,0.7382431819596604,0.05949800764134999,0.49978190994306715,0.03531198744849462,0.353316476254804,1.0010866016373257,4.720109314433557
35,24,male,303,165,215,change,catch,clock,2,1,1,0.17175297580661208,0,j,change,0.22412313364657166,0,0.5000189225197573,0.035345983839761175,0.3532847249084625,1.0010917331678684,5.544900573384439
35,24,male,304,135,135,same,catch,anti,1,0,1,0.4566956534008568,0,j,change,1.2069895938971058,0,0.500185055827842,0.03534213519151308,0.3533228906685508,1.0010535674082348,6.82821783861209
35,24,male,305,15,15,same,valid,anti,1,2,2,0.19002250817675304,1,f,same,0.8609024823140317,0.18070649590331478,0.5001375891683892,0.03528985772163651,0.35334598255667515,1.0010542088493821,4.779465730675383
35,24,male,306,45,45,same,catch,clock,1,1,1,0.34333083812680343,0,j,change,1.4475490205509232,0,0.49921647939800096,0.03537388653785456,0.35327093391970266,1.001089488123398,6.980286903884462
35,24,male,307,135,135,same,valid,clock,5,0,2,0.1532826722959726,1,f,same,0.650807029427142,0.05720685894493999,0.500700133227383,0.035322571230608446,0.3533142312098789,1.0010481151571184,4.49694128694955
35,24,male,308,165,215,change,catch,clock,4,2,1,0.8308329949727522,0,j,change,0.8910066074872702,0,0.49976394958548553,0.03531519465514066,0.3533030059866178,1.0010756971346382,6.934318009940853
35,24,male,309,15,65,change,catch,clock,3,0,1,0.41489548675463084,0,j,change,1.0292715343084637,0,0.5001760756490512,0.03531776042018464,0.35331455193090733,1.001073452089713,6.604154359010863
35,24,male,310,75,75,same,valid,anti,2,0,2,0.14729385518421623,1,f,same,1.0686249229470377,0.05503021351692797,0.500394165705984,0.035328344202753215,0.3533135897687316,1.0010570953354545,4.909493588473197
35,24,male,311,15,15,same,valid,clock,2,1,2,0.17062820840965287,1,j,change,1.2529629779296556,0.08325753278106458,0.4996334162719904,0.03532513699565243,0.35329242220450396,1.0010574160560282,5.084803356534394
35,24,male,312,15,15,same,valid,clock,4,2,2,0.1584658390788718,1,f,same,0.7879818266837901,0.17895247679541912,0.49968376941706083,0.03533443789547164,0.35332321138866973,1.0010516430838834,4.673231177384878
35,24,male,313,105,55,change,valid,anti,3,1,2,0.14763734702410147,1,j,change,0.9396798181387567,0.07986264418082487,0.4990705514919682,0.03531808114121304,0.3533424546290007,1.0010349656090511,4.754140984958667
35,24,male,314,105,105,same,catch,clock,4,0,1,0.19329257615027018,0,j,change,0.90149160770261,0,0.5005792215338261,0.035317439699610986,0.3533219285063751,1.0010586989387775,6.274875897135644
35,24,male,315,135,85,change,valid,anti,2,2,2,0.6926456825549394,1,j,change,1.4427192879488757,0.17722553313358863,0.5003864684103974,0.03531936402350766,0.3532876113945349,1.0010939782127934,5.815603894575361
35,24,male,316,165,215,change,catch,clock,1,1,1,0.14640802468738912,0,j,change,1.7695025429943598,0,0.4998903135301589,0.03533347573329593,0.3532904978806073,1.0010773007379612,7.075379941744359
35,24,male,317,165,115,change,valid,anti,1,0,1,0.10062707305860386,0,j,change,1.017329820800569,0.05290911468394846,0.5006199530594131,0.035335079336618946,0.35332224922694877,1.0010307962406841,4.850114721784394
35,24,male,318,105,105,same,valid,anti,5,2,2,0.28227203655706035,1,f,same,0.8337249332739702,0.17554831135416857,0.4999368180278907,0.03531038384471685,0.35332160778580146,1.0010352863296248,4.838375703741349
35,24,male,319,45,95,change,valid,clock,3,0,1,0.1680483313220975,0,j,change,2.1354810713864936,0.05486813439251928,0.49899486141339366,0.03533956942601435,0.35331262760701065,1.0010352863296248,5.979188435582273
35,24,male,320,105,105,same,valid,clock,2,1,2,0.30884791361586394,1,f,same,1.021571030969426,0.07656072438552598,0.4999592684748677,0.035319684744081314,0.35334085102613244,1.0010689620003177,5.073487048337029
35,24,male,321,45,45,same,valid,clock,3,2,3,1.4064570051486953,1,f,same,1.5050782911230272,0.17390080141355338,0.4994836397177096,0.035316477537435276,0.35327510328806966,1.0010606232626742,6.675179555468276
35,24,male,322,15,65,change,valid,clock,3,0,1,0.28558123245238676,0,j,change,0.9841798114034646,0.05678172488012534,0.49961994600334947,0.03535079464973023,0.3532946672489743,1.0010455493916197,4.9438331508431475
35,24,male,323,75,75,same,catch,anti,4,0,1,0.3014120048314908,0,j,change,1.4895416196009137,0,0.49991340541873797,0.03534790816365785,0.3532917807629019,1.0010776214585348,6.94591783521264
35,24,male,324,165,165,same,valid,clock,5,2,2,1.0235845153492846,1,f,same,0.967594704003659,0.1721201777849396,0.5005230954161561,0.03533796582269133,0.3532629159026328,1.0010763385757855,5.745079343087127
35,24,male,325,15,325,change,catch,anti,4,1,1,0.0540286044356435,0,j,change,0.2032480665352523,0,0.5002710089679567,0.03540243067755,0.3532757447296717,1.0010769800169328,5.414780668754247
35,24,male,326,45,45,same,valid,clock,4,0,2,0.40636784480193455,1,f,same,2.9224834171373004,0.058849457131350064,0.5005230954166109,0.0352975550181327,0.3532985158972224,1.0011013547882612,7.1466559417672215
35,24,male,327,75,75,same,catch,clock,2,2,1,0.046869477590917086,0,j,change,0.2492086217416727,0,0.5003640179629656,0.035252654123723914,0.3533912041716576,1.0010426629050926,5.4388918074469075
35,24,male,328,165,165,same,valid,clock,3,1,1,0.09552761437043955,0,j,change,0.7904019848760981,0.0734188190787031,0.49989448289898064,0.03535400185637627,0.3532978744560751,1.0010417007433716,4.578506968297916
35,24,male,329,45,45,same,catch,anti,5,2,1,0.05765884172342339,0,j,change,0.2423618768320921,0,0.49993168649689324,0.03532385411335781,0.35327702761196633,1.0010882052406487,5.450305294007649
35,24,male,330,105,105,same,catch,anti,4,1,1,0.130745951382778,0,j,change,0.9111507521861313,0,0.5003768467900045,0.03532962708504783,0.3533395681433831,1.001022136782467,6.251166942166037
35,24,male,331,45,45,same,valid,clock,4,2,2,0.305488043853984,1,f,same,0.8574140035625533,0.170322979079595,0.5003701116561388,0.035306214475895104,0.35330942039990987,1.0010866016373257,4.908556121948095
35,24,male,332,135,85,change,valid,anti,4,2,3,0.31227353111535194,1,j,change,0.9355348241710999,0.16843271761823314,0.4999746630669506,0.0353100631241432,0.3533078167970416,1.001071207044788,4.967150826593297
35,24,male,333,45,355,change,valid,anti,2,1,3,0.33580737259853777,1,j,change,0.883385642875055,0.07871708506656802,0.49982039642327436,0.03533732438154402,0.3532792726568914,1.0010728106485658,4.896215752644821
35,24,male,334,135,135,same,valid,anti,1,1,1,0.5091187301513855,0,j,change,1.0698555281660447,0.07569107623167087,0.5006433656685658,0.03532417483347672,0.3532860077912119,1.001082432268504,5.250861295365212
35,24,male,335,45,45,same,catch,anti,2,0,1,0.05811779300574926,0,j,change,0.3166805538717199,0,0.5001144972798102,0.03532449555450512,0.35328889427728427,1.0010833944302249,5.5448239211436885
35,24,male,336,45,45,same,valid,anti,5,1,3,0.8110563961640764,1,f,same,0.8107677475595665,0.08106395766427414,0.5001680576319814,0.035339890146588004,0.3533896005678798,1.0010647926319507,5.427118151571449
35,24,male,337,105,55,change,valid,anti,4,2,3,0.4032084254599795,1,j,change,1.0579234362785428,0.16657887943635702,0.5001796035762709,0.035309100962422235,0.35330140238329477,1.0010442665084156,5.155875698930686
35,24,male,338,135,85,change,valid,anti,3,1,3,0.38871602044673637,1,j,change,0.7653597940716281,0.07811392847818847,0.4997103892328596,0.03533443789547164,0.3532911393217546,1.0010603025421005,4.838073905588772
35,24,male,339,75,125,change,valid,clock,5,0,3,0.3617972929896496,1,j,change,0.8264865884239043,0.056737774345862746,0.4997434234624052,0.03535303969420056,0.35333058796459227,1.0010298340785084,4.884904575978453
35,24,male,340,75,25,change,catch,anti,2,1,1,0.03336200576131887,0,j,change,0.21187545261727792,0,0.5000529189110239,0.035332513571574964,0.3532834420252584,1.0010875637995014,5.402800148044662
35,24,male,341,45,355,change,valid,anti,1,2,3,0.2462037897639675,1,j,change,1.2876168465586488,0.16475933940173232,0.5009615205749469,0.035286329794416815,0.35334181318830815,1.001064792631496,5.345084218041393
35,24,male,342,135,85,change,catch,anti,5,0,1,0.03712085203915194,0,j,change,0.24322301183656236,0,0.5003643386835392,0.035303007269249065,0.35330428886936716,1.001086280916752,5.462828794814868
35,24,male,343,75,125,change,catch,clock,2,0,1,0.006260146800286748,0,j,change,0.9168117927706589,0,0.49942879648278904,0.03531102528631891,0.3533437375122048,1.0010548502909842,6.109450098749676
35,24,male,344,105,155,change,valid,clock,1,0,2,0.3071355859474352,1,j,change,5.053022824407435,0.05471796973819193,0.5003062882419727,0.035345021677585464,0.3533158348136567,1.0010375313745499,9.019248051140949
35,24,male,345,75,75,same,valid,anti,5,1,3,0.35451533012701475,1,f,same,1.6354095506767408,0.07531449883086208,0.4994024973875639,0.035329947806076234,0.3532933843662249,1.0010282304747307,5.767129851461505
35,24,male,346,105,155,change,catch,clock,3,2,2,0.2965094686364864,1,j,change,1.0359851801390505,0,0.5000914053916858,0.03535047392915658,0.3533216077853467,1.0010542088493821,6.475184558711135
35,24,male,347,45,355,change,valid,anti,1,1,3,0.41801994754314364,1,j,change,1.3766889952398742,0.07261175590085078,0.5003800539966505,0.03531776042018464,0.35330268526604414,1.0010821115479303,5.521146717519969
35,24,male,348,45,45,same,valid,anti,3,2,3,0.3881781718791899,1,f,same,1.3381948172823286,0.16278885566510531,0.5002164864536098,0.03533956942601435,0.35329947805894335,1.0010519638049118,5.509652730070229
35,24,male,349,75,25,change,valid,anti,2,1,3,0.28584646844865347,1,j,change,1.5938861659701615,0.06979481257205891,0.4993187892923743,0.035348549605259905,0.3532988366182508,1.0010160430892938,5.567167888933
35,24,male,350,105,105,same,valid,anti,2,1,2,0.46198690305072887,1,f,same,2.0066610476405913,0.0670476091403365,0.49989384145783333,0.03530076222477874,0.35333764381903165,1.0010372106539762,6.21630556726177
35,24,male,351,105,55,change,catch,anti,5,2,1,0.2609713731139891,0,j,change,1.1185912793484931,0,0.5085590725784641,0.035321609068432736,0.3533267393163442,1.0010548502905294,6.577485472957505
35,24,male,352,165,165,same,valid,anti,2,2,3,0.4721903105155434,1,f,same,0.8179586257506344,0.16079330880204887,0.5001558702465445,0.035243673945387854,0.3534024293949187,1.0010612647042763,4.991515334617361
35,24,male,353,75,25,change,valid,anti,1,0,2,0.8609140282578664,1,j,change,2.0016853871320563,0.052677949327167656,0.49929024515267884,0.035309742403569544,0.3533126276065559,1.0010442665088704,6.580303645503591
35,24,male,354,165,215,change,valid,clock,5,2,2,0.3746129703290535,1,j,change,1.003543321986399,0.158663535862735,0.500144965743857,0.035317439700065734,0.3533132690477032,1.0010179674136452,5.085843774395016
35,24,male,355,45,355,change,valid,anti,5,2,3,0.4837654402949738,1,j,change,0.7429885650253709,0.15650733278453216,0.4997463099484776,0.035337645102117676,0.35330332670719145,1.0010641511903486,4.919848696815734
35,24,male,356,15,15,same,catch,anti,5,0,1,0.6384050817550815,0,j,change,0.3976849740442958,0,0.5002212972640336,0.03529081988381222,0.35331262760701065,1.0011183529836671,6.2156291673641135
35,24,male,357,75,75,same,valid,clock,4,0,2,0.3943478754499665,1,f,same,1.1566306753925346,0.05062888026243545,0.5003290594099781,0.03529819645928001,0.3533017231038684,1.0010949403749692,5.309523672072373
35,24,male,358,15,325,change,valid,anti,1,2,3,0.46480635847956364,1,j,change,1.0967938195844908,0.15436919549115796,0.4992915280354282,0.03532706132000385,0.3533501519254969,1.0010837151512533,5.261151618132317
35,24,male,359,105,155,change,valid,clock,5,0,1,0.2171359130820747,0,j,change,0.9055262737579142,0.04858779027513174,0.4997758162503487,0.035322250509580044,0.35332321138866973,1.001050360201134,4.755341763155684
35,24,male,360,45,355,change,valid,anti,4,1,1,0.0638907651050431,0,j,change,0.3128084931963713,0.06443168769412452,0.5000942918777582,0.0353225712301537,0.3533074960760132,1.0010298340785084,4.036751061104042
35,24,male,361,135,185,change,valid,clock,3,0,1,0.0848472952661723,0,j,change,0.34491904689502917,0.05050579178071357,0.5005272647849779,0.03531359105181764,0.35331294832712956,1.0010548502909842,4.084703291684491
35,24,male,362,15,325,change,catch,anti,4,0,2,0.34306816789603545,1,j,change,3.0799059518699323,0,0.5001808864590203,0.03530878024184858,0.35328600779075714,1.0010769800173875,8.629971731679689
35,24,male,363,135,85,change,valid,anti,3,2,2,0.3161382152152328,1,j,change,1.4570962335205877,0.15201241568282642,0.5006613260261474,0.03532545771668083,0.3532969122934446,1.001064151189894,5.462874657871453
35,24,male,364,135,185,change,valid,clock,4,2,3,0.4733679968235265,1,j,change,0.8450110937278623,0.14953655995592105,0.4996334162715357,0.03528151898444776,0.3532568222099144,1.0010336827267565,5.002262042900838
35,24,male,365,165,115,change,valid,anti,3,2,2,0.23132010552990323,1,j,change,0.6114908443869354,0.14681848454239357,0.4996751099588437,0.03532192978946114,0.35331230688598225,1.0010323998435524,4.519230732224514
35,24,male,366,135,135,same,valid,clock,3,1,2,0.24152768236308475,1,f,same,1.1296750650581089,0.06882015166665845,0.5002363711355429,0.035328344202753215,0.3532872906735065,1.0010750556930361,5.085492264538061
35,24,male,367,15,15,same,valid,clock,3,2,3,0.5550051988820996,1,f,same,1.2285141203688,0.14409456841502807,0.4996978811268491,0.03534117302933737,0.35322539158414656,1.0010756971346382,5.52036191403522
35,24,male,368,135,185,change,valid,clock,5,0,3,0.34867949677664,1,j,change,0.8400636566389039,0.052361046613031786,0.5000080180170698,0.035303007269249065,0.35333411589181196,1.0010471529949427,4.8732999398971515
35,24,male,369,45,45,same,valid,clock,3,1,2,0.71749768600057,1,f,same,2.333125185617064,0.0662715492409395,0.500201091861527,0.03532898564390052,0.3532638780643538,1.0010811493862093,6.816952525001852
35,24,male,370,75,75,same,valid,clock,1,0,2,0.23056705339195105,1,f,same,1.1420879172333116,0.05038713025365138,0.49954970817634603,0.035306535196923505,0.3533209663441994,1.001063830469775,5.120406558352897
35,24,male,371,165,215,change,catch,clock,2,2,2,0.1607756693601914,1,f,same,0.9889970358995015,0,0.4998418847085304,0.035359133386918984,0.3533485483221739,1.0010564538943072,6.368880409034318
35,24,male,372,105,55,change,valid,anti,5,2,2,0.1651339425743572,1,f,same,1.190187679322662,0.14103044363569275,0.5003402846327845,0.03533315501272227,0.3532641987853822,1.00107184848639,5.073981920334063
35,24,male,373,165,215,change,valid,clock,2,1,1,0.13034023973250441,0,j,change,0.5264244969016545,0.063824700948972,0.4999438738823301,0.035324174833931465,0.3533090996793362,1.0010352863296248,4.331733257899941
35,24,male,374,75,75,same,valid,anti,5,2,2,0.25398735975704767,1,f,same,0.8830440753590665,0.13753282327711502,0.49925785236428055,0.03534117302979212,0.35331070328265923,1.0010728106485658,4.849197460661799
35,24,male,375,135,85,change,catch,anti,4,0,2,0.16893031317067653,1,f,same,1.0943518523863531,0,0.4998569585804944,0.035355284739125636,0.35331455193090733,1.001066396234819,6.474781412825905
35,24,male,376,165,115,change,catch,anti,1,1,1,0.22647145040764372,0,j,change,0.8493453128921828,0,0.5005205296506574,0.03530717663852556,0.35331583481320195,1.0010490773188394,6.310128871980396
35,24,male,377,75,75,same,valid,anti,5,0,1,0.2861328720086931,0,j,change,0.8148072244257492,0.04843352837859022,0.5004268792145012,0.035334758615590545,0.3532975537355014,1.0010449079500177,4.720601941386121
35,24,male,378,45,45,same,valid,clock,2,0,2,0.19393914902548204,1,f,same,0.9114480602493131,0.05027262601235474,0.499855675697745,0.03533604149879466,0.35324142761737676,1.00110392055376,4.790477033513525
35,24,male,379,15,15,same,valid,clock,5,0,1,0.26730817215548086,0,j,change,0.8804587460208495,0.04836092443665935,0.5002517657276258,0.03530172438695445,0.35332417355084544,1.0010760178552118,4.814694330749262
35,24,male,380,75,75,same,valid,anti,1,1,2,0.20056074802323565,1,f,same,1.0360211008546685,0.06795878167373007,0.499467282963451,0.03533187212951816,0.35334085102613244,1.0010442665084156,4.931213754554847
35,24,male,381,45,45,same,valid,anti,1,2,2,0.27677648783947006,1,f,same,0.9474412584054335,0.1338368455733069,0.5006424035063901,0.03531808114121304,0.3533036474277651,1.0010731313691394,4.9448033308763115
35,24,male,382,135,185,change,valid,clock,2,1,2,0.19839909069241912,1,j,change,1.0546825538858684,0.06558009850529964,0.49980724687611655,0.03529242348713524,0.35327798977414204,1.001106165598685,4.8967054931113125
35,24,male,383,15,325,change,valid,anti,3,2,2,0.19031115678171773,1,j,change,1.4736563247079175,0.12953777197567534,0.5001446450232834,0.03532192978900639,0.35334502039449944,1.0010586989392323,5.285914461230732
35,24,male,384,165,115,change,valid,anti,2,0,1,0.29470477341374135,0,j,change,0.7459683807906003,0.050162030542330344,0.4995211640366506,0.03530878024139383,0.3533267393163442,1.0010651133525243,4.67243835588306
35,24,male,385,15,15,same,valid,clock,4,1,2,0.2122054741885222,1,f,same,1.8779635391911143,0.06327930490348141,0.5003373981471668,0.035303648710396374,0.35331807985858177,1.0010477944356353,5.780870166498971
35,24,male,386,15,65,change,valid,clock,1,1,1,0.1973330151781738,0,j,change,1.899896663799609,0.0608882602196531,0.49968184509316416,0.03532192978946114,0.3533017231038684,1.0010705656036407,5.744744831426033
35,24,male,387,105,105,same,valid,anti,4,1,1,0.16241583487772004,0,j,change,1.5651755721178233,0.06485128413131255,0.49975112075844663,0.03533475861604529,0.3533264185957705,1.0010683205587156,5.355736313726538
35,24,male,388,135,185,change,valid,clock,3,2,2,0.30354223153563,1,j,change,1.0195613952378153,0.12437048913405704,0.5004153332702117,0.03531294961021558,0.35333796454006006,1.001050360201134,4.955916622888253
35,24,male,389,165,165,same,valid,clock,1,1,1,0.18074341768897284,0,j,change,1.3310623102538557,0.06858743111369633,0.5002315603255738,0.03536586852123946,0.3532872906735065,1.0010452286705913,5.203677190795133
35,24,male,390,15,65,change,valid,clock,3,2,1,0.10474608865069968,0,j,change,1.3799500830346005,0.11812384727986486,0.49909749202834064,0.035311666727920965,0.3533434167911764,1.001067037676421,5.1551187981444855
35,24,male,391,75,25,change,valid,anti,3,2,2,0.502788666244669,1,j,change,1.3104117476136707,0.13842184901958315,0.5000978198049779,0.035327382040577504,0.35326997175752695,1.00107184848639,5.4858783480831335
35,24,male,392,135,135,same,valid,anti,3,0,2,0.27470110436979667,1,f,same,1.1638427211478302,0.05192904991469269,0.5000035279272197,0.03530364871085112,0.3533184005787007,1.0010859601961783,5.143757268332138
35,24,male,393,75,25,change,valid,anti,4,2,2,0.21885048579542854,1,j,change,1.132208758368506,0.13584350720390903,0.5006555530540027,0.03529947934202937,0.3533200041820237,1.0010603025421005,5.038884495015736
35,24,male,394,135,185,change,valid,clock,4,0,1,0.1321305025244328,0,j,change,1.0412286424088961,0.05005511445374,0.5001067999837687,0.03535175681190594,0.3532946672489743,1.0010699241624934,4.8258833128393235
35,24,male,395,15,15,same,valid,anti,5,1,1,0.2147202449791621,0,j,change,0.1319063187743268,0.07249919313478126,0.5006539494506796,0.03531776042018464,0.353276386170819,1.0010866016373257,4.025849444736195
35,24,male,396,135,135,same,valid,anti,2,2,2,0.3711546393210483,1,f,same,0.9210305524925388,0.13327611677208107,0.5003569621080715,0.035330909968251945,0.35331070328265923,1.0010372106539762,4.9919098210443735
35,24,male,397,165,165,same,valid,anti,5,0,1,3.2861662269588123,0,j,change,9.883939206755258,0.051795242296107935,0.4996770342831951,0.03531711897903733,0.3533184005787007,1.001031758402405,16.839238442349597
35,24,male,398,75,125,change,catch,clock,4,0,1,1.592586285085872,0,j,change,2.5038207453676478,0,0.49927100191234786,0.035359133386918984,0.35328696995293285,1.0010359277712269,9.324671630139619
35,24,male,399,135,135,same,valid,clock,2,2,3,0.7824372077034241,1,f,same,0.9670809094868673,0.13042801451832242,0.49968986310977925,0.035306535196923505,0.35333668165685594,1.0010776214585348,5.508679663550993
35,24,male,400,75,75,same,valid,anti,3,0,1,0.07453035268372332,0,j,change,0.27941633969203394,0.053446600491056845,0.4999397045139631,0.03530878024139383,0.35334662399782246,1.0010689620003177,4.0013062952975815
35,24,male,401,165,165,same,valid,anti,1,0,2,0.5677310744331407,1,j,change,0.9566132281879618,0.05504151666905091,0.5017386267636539,0.035329947806076234,0.3532802348190671,1.0010490773188394,5.216335715005243
35,24,male,402,75,75,same,valid,anti,4,0,2,0.5201521627154762,1,j,change,1.0388347833113585,0.05334395161561348,0.49980051174179607,0.03532706132000385,0.35332481499199275,1.0010410593017696,5.191273960239414
35,24,male,403,15,15,same,valid,anti,5,0,1,0.6214290158554832,0,j,change,1.4516382091214837,0.05159509286274261,0.499404742432489,0.03535464329797833,0.35330781679658685,1.0010551710115578,5.720283145038593
35,24,male,404,165,115,change,valid,anti,1,1,1,0.18411290907124567,0,j,change,0.4375139914391184,0.07609352345590815,0.5005493945113813,0.035297234297559044,0.35332321138866973,1.0010647926319507,4.261788248666107
35,24,male,405,165,215,change,valid,clock,4,2,2,0.2843775677697522,1,j,change,1.178219666719997,0.12724814361352837,0.49953142709819076,0.03531166672746622,0.35330332670719145,1.0010782628996822,5.131583994499124
35,24,male,406,165,165,same,valid,anti,2,1,2,0.22905196893634638,1,j,change,1.3166529718937454,0.07986031268971408,0.5004233512872815,0.0353184018617867,0.3533260978747421,1.001084677313429,5.155796160203863
35,24,male,407,135,135,same,valid,clock,3,0,2,0.3706889529048567,1,f,same,1.0002665188785613,0.053193349630969944,0.500780313395353,0.035265162229734415,0.35336394291425677,1.0010603025421005,5.1218212572375705
35,24,male,408,45,95,change,valid,clock,2,1,2,0.2520450753663681,1,j,change,1.0059166549604015,0.07776696337246712,0.49957793159501307,0.03531423249296495,0.35329562941115,1.0010898088439717,4.907700439194741
35,24,male,409,105,105,same,catch,clock,5,1,2,0.2065992768389151,1,j,change,1.2709554076391214,0,0.5004945512764607,0.03531808114121304,0.3533055717521165,1.0010766592963591,6.6877373733873355
35,24,male,410,105,105,same,valid,anti,2,0,1,0.16502008673569435,0,j,change,1.24135128599346,0.051473530576539306,0.5000708792686055,0.035366830682960426,0.3533100618415119,1.0010295133579348,5.109012635753061
35,24,male,411,75,125,change,catch,clock,3,0,1,0.22728287370864564,0,j,change,1.6012515162069576,0,0.5000359207151632,0.035297234297559044,0.35332609787519687,1.0010606232626742,6.9698557847427765
35,24,male,412,165,115,change,catch,anti,4,2,2,0.1385574240744063,1,f,same,0.9674808481649961,0,0.49950416584078994,0.03533219285054656,0.3533135897687316,1.0010336827263018,6.356416241551415
35,24,male,413,15,65,change,catch,clock,4,2,1,0.15595138900880556,0,j,change,0.6363001919835369,0,0.5003996179575552,0.035307176638070814,0.3533309086847112,1.0010548502909842,5.9687775218426395
35,24,male,414,165,165,same,valid,anti,4,1,2,1.0258895348201804,1,j,change,0.9844658942429305,0.07577853611286306,0.4998851819996162,0.03531262888964193,0.353298195176194,1.0010455493916197,5.70935683317839
35,24,male,415,165,215,change,valid,clock,1,1,2,0.17275939727642253,1,j,change,0.912096236727848,0.0738543361037799,0.499548104573023,0.03533315501272227,0.35324816275169724,1.001064792631496,4.767161602807846
35,24,male,416,135,185,change,valid,clock,2,2,2,0.16993192383006317,1,j,change,0.6968461611982093,0.12404309790818893,0.4992847929011077,0.03535015320812818,0.3533090996793362,1.0010795457824315,4.531349804263755
35,24,male,417,45,355,change,catch,anti,4,0,2,0.08182354076916454,1,j,change,0.8140820749858904,0,0.49994964685447485,0.03530685591749716,0.3533238528302718,1.001048435877692,6.073939905926181
35,24,male,418,105,105,same,catch,clock,5,2,1,0.12764971401338698,0,j,change,2.4554823670978294,0,0.5007479206074095,0.03534758744262945,0.35330813751761525,1.0010603025421005,7.759933841739894
35,24,male,419,105,105,same,catch,anti,5,0,1,0.10019794879872279,0,j,change,0.7284422789384735,0,0.49934637127034875,0.03524720187260755,0.35339120417120284,1.0010458701121934,6.050525051812201
35,24,male,420,165,165,same,valid,anti,3,2,2,0.2345465554922157,1,j,change,1.8268785090849633,0.12048623603490391,0.49962571897549424,0.03536394419734279,0.3533119861654086,1.0010551710115578,5.756479359379682
35,24,male,421,165,115,change,valid,anti,2,2,1,0.1645585696883245,0,j,change,0.7226571194537428,0.11645777994494406,0.499198839760993,0.03536234059401977,0.3532965915733257,1.0010577367766018,4.507115829553641
35,24,male,422,15,15,same,valid,clock,1,0,1,0.203680077280751,0,j,change,0.6816812049346481,0.053047930308169455,0.5000901225089365,0.03531647753789002,0.3532722168019973,1.0010914124472947,4.555457094309077
35,24,male,423,75,25,change,valid,anti,1,1,2,0.1797219223481079,1,j,change,0.9663422897788223,0.07186161227988888,0.4999518918989452,0.03534983248755452,0.3533100618410572,1.001046832274369,4.826719110911199
35,24,male,424,165,165,same,valid,anti,3,0,1,0.16287767264566355,0,j,change,0.5756252930582377,0.05456357125403641,0.4995304649355603,0.03534694600148214,0.35328632851178554,1.001051001642736,4.425705056289644
35,24,male,425,165,165,same,valid,clock,5,0,1,0.18252117237489074,0,j,change,1.4015365085961093,0.05604706059531786,0.4994528505335438,0.03537228293453154,0.35329081860118094,1.0010779421791085,5.2266164161519555
35,24,male,426,135,135,same,valid,clock,2,1,2,0.16260249430843032,1,f,same,0.8948761023971201,0.06985628258576049,0.4996205874449515,0.035319043302934006,0.3532872906735065,1.0010766592968139,4.813788294849928
35,24,male,427,75,75,same,valid,anti,4,1,2,0.1974151196704952,1,f,same,1.1224097796712158,0.06789603528532065,0.5004175783151368,0.035343418074262445,0.3532888942768295,1.001052605246059,5.038838311239033
35,24,male,428,15,65,change,valid,clock,4,1,2,0.12026864846393437,1,j,change,1.1321096556807788,0.06603237308402252,0.4998194342615534,0.03535303969465531,0.35327125463982156,1.0010849980340026,4.943774779681007
35,24,male,429,105,105,same,catch,anti,2,0,2,0.19205138714869463,1,j,change,1.0901289232956515,0,0.49995766487108995,0.03536715140398883,0.3532558600477387,1.0010737728107415,6.403716447005081
35,24,male,430,15,15,same,valid,anti,4,0,1,0.08357531708043098,0,j,change,0.32175852427462814,0.057645644956139275,0.5009781980497792,0.03534630456033483,0.35331070328265923,1.0010362484918005,4.0849951474965565
35,24,male,431,105,105,same,valid,clock,3,1,1,0.05061324999724093,0,j,change,0.2516900375821933,0.06422962262617879,0.4997431027413768,0.03532866492332687,0.3532927429250776,1.0010619061458783,3.942172779923112
35,24,male,432,45,45,same,valid,clock,1,0,2,0.08701280124523691,1,f,same,0.8407641105873154,0.05926541224246387,0.4999518918993999,0.035313270331243984,0.3532969122934446,1.0010708863246691,4.626172474597297
35,24,male,433,45,45,same,valid,anti,5,0,2,0.11127884802272092,1,f,same,0.7377563279792412,0.05759437058305153,0.49995285406157564,0.035322250509580044,0.3533145519304526,1.0010766592968139,4.519814123127162
35,24,male,434,105,155,change,catch,clock,2,2,2,0.09170141675167542,1,j,change,1.018702184556787,0,0.5002844792361429,0.03531423249296495,0.35329562941115,1.0010837151512533,6.34592771340931
35,24,male,435,15,325,change,valid,anti,1,0,1,0.0717817765230393,0,j,change,0.4144118399808576,0.05600441827456931,0.5001933945654855,0.03530781807967287,0.3533200041820237,1.0010612647042763,4.167014007154648
35,24,male,436,15,65,change,valid,clock,3,1,1,0.08298070095406729,0,j,change,1.097598187030144,0.0672788036209147,0.49965586671896745,0.03536137843184406,0.3533200041820237,1.0010400971400486,4.837503664233736
35,24,male,437,15,65,change,valid,clock,2,2,1,0.1100405455076725,0,j,change,0.7983398215123998,0.1302842284239406,0.49960294780794356,0.03534566311873277,0.3532933843666797,1.0010458701117386,4.531136204296217
35,24,male,438,135,185,change,valid,clock,4,1,2,0.22527933166975345,1,j,change,0.915029227274772,0.07055274710052295,0.4999118018149602,0.03533860726429339,0.3532930636456513,1.0009929512011695,4.802361338021001
35,24,male,439,45,45,same,valid,anti,1,1,2,0.10536860747606624,1,f,same,0.7776568660842713,0.06870520504399927,0.5003450954432083,0.03529178204553318,0.353312306886437,1.0010699241620387,4.602797389847183
35,24,male,440,75,75,same,valid,clock,2,0,2,0.16985430942759194,1,j,change,0.6984911375252523,0.05754488079606923,0.5001497765538261,0.03533219285054656,0.35330044022111906,1.0010439457882967,4.54386624921699
35,24,male,441,105,105,same,valid,anti,4,2,2,0.23256995398924118,1,f,same,1.2837701228168044,0.13852119974772373,0.49991436758045893,0.03535368113580262,0.3533074960760132,1.0010660755142453,5.273823933331187
35,24,male,442,165,115,change,catch,anti,4,1,2,0.12779916984663942,1,j,change,0.9293962305059722,0,0.4998880684852338,0.035339890146588004,0.3533046095899408,1.001031758402405,6.262776389057308
35,24,male,443,15,325,change,valid,anti,2,0,1,0.1826100120006231,0,j,change,0.4364722906957468,0.055984172402991056,0.5005057764992671,0.03533989014704275,0.35330557175257127,1.0010647926319507,4.308000890320727
35,24,male,444,105,105,same,catch,clock,5,0,2,0.10317840600509953,1,j,change,0.6741109141885318,0,0.500062540530962,0.035284726191093796,0.3533254564335948,1.0010766592959044,5.945269017292048
35,24,male,445,135,135,same,valid,clock,4,1,2,0.179332246731974,1,f,same,1.1173840867386389,0.06694932005990281,0.5002216179846073,0.03534887032583356,0.35333700237788435,1.001042342184519,5.026131037486266
35,24,male,446,15,325,change,valid,anti,1,1,1,0.5873649525428846,0,j,change,1.2490825785171182,0.065263185817964,0.5002129585263901,0.03531551537616906,0.35327093391970266,1.0010869223578993,5.497360148146981
35,24,male,447,45,95,change,valid,clock,4,2,2,0.26146592439090455,1,j,change,1.4434556626119956,0.13662851881961324,0.4998130198482613,0.035310063124597946,0.3533520762493936,1.0010625475870256,5.379182277744803
35,24,male,448,15,15,same,valid,clock,3,0,2,0.11186448396983906,1,f,same,0.8587603889445745,0.05749708486862923,0.5005612611766992,0.035298196459734754,0.35332385283072654,1.0010631890290824,4.696848726963253
35,24,male,449,45,95,change,valid,clock,2,0,2,0.1710675957301646,1,j,change,0.9638525352011129,0.05596459710195273,0.500304363918076,0.0352811982638741,0.35331487265102623,1.0010975061395584,4.814663541564187
35,24,male,450,45,45,same,valid,clock,5,1,1,0.13853657723029755,0,j,change,0.32927429250594287,0.06831861143350876,0.5002623495092848,0.035326419878401794,0.35328280058365635,1.0010724899275374,4.143837769220227
35,24,male,451,135,135,same,catch,clock,3,1,1,0.1244518081912247,0,j,change,1.427486659623355,0,0.5107925713391523,0.03532192978946114,0.3532734996842919,1.0011084106427006,6.744468690927533
35,24,male,452,165,215,change,valid,clock,2,2,2,0.17062403904037637,1,j,change,0.6478580028469878,0.13477563322286315,0.5006314990032479,0.035315836096742714,0.35328632851087605,1.0010856394746952,4.473825023781501
35,24,male,453,135,135,same,valid,anti,1,0,1,0.10635257849844493,0,j,change,0.3410572492812207,0.054477829216546925,0.4990878704084025,0.035431616259302245,0.3533248149924475,1.0010548502905294,4.107194470262584
35,24,male,454,75,75,same,valid,clock,5,1,2,0.2096974385322028,1,f,same,0.9665199690307418,0.07136707981205381,0.4993062811854543,0.035348228883776756,0.35331615553423035,1.0010670376768758,4.825219741768706
35,24,male,455,135,85,change,valid,anti,5,1,2,0.15807423913793173,1,j,change,0.7370116145784777,0.06963897950661813,0.500078255844528,0.03530717663852556,0.35335015192504216,1.0010798665025504,4.590487809728074
35,24,male,456,165,165,same,valid,clock,2,0,2,0.15500333870204486,1,f,same,0.7602863137590248,0.05583405058649962,0.5001683783530098,0.03534502167713072,0.3532972330140183,1.0010609439832479,4.626564074538692
35,24,male,457,165,165,same,valid,anti,4,2,2,0.15733978879870847,1,f,same,0.761108320841231,0.1327802234140248,0.49980660543496924,0.035320646906257025,0.35329595013172366,1.0010737728107415,4.648870518008152
35,24,male,458,165,115,change,valid,anti,4,0,2,0.14885833062271558,1,j,change,1.234264321300543,0.054373382345551474,0.5005705620760637,0.035322571230608446,0.35327574472921697,1.0010898088439717,5.073808731171994
35,24,male,459,75,75,same,valid,clock,1,1,2,0.11515604022861226,1,f,same,0.8004447112834896,0.0679631824494184,0.5000214882848013,0.0353562469008466,0.3532783104956252,1.0010545295699558,4.661428656648241
35,24,male,460,45,95,change,valid,clock,4,1,2,0.0938422272383832,1,j,change,0.7663674984232784,0.06636697296864835,0.4999223855975288,0.035345663118278026,0.3532991573383697,1.0010779421791085,4.555637980767642
35,24,male,461,75,125,change,valid,clock,2,1,2,3.041925889149752,1,f,same,1.33025858424935,0.0648239341504386,0.49973861265243613,0.03542680544887844,0.353341492466825,1.001084998033548,8.124096128965903
35,24,male,462,75,75,same,catch,clock,4,0,1,0.14965243500682845,0,j,change,0.2887974193536138,0,0.49949678926532215,0.0353270613204586,0.35331807985858177,1.001066396234819,5.579577854621675
35,24,male,463,15,65,change,valid,clock,2,0,2,0.11145075430249562,1,j,change,1.0447774166468662,0.052883564411813605,0.4996276433003004,0.03533475861604529,0.3533187212997291,1.0010230989446427,4.872433994081803
35,24,male,464,45,95,change,catch,clock,3,2,1,0.1441754880888766,0,j,change,1.1515738725547635,0,0.5006032755845808,0.035320326186592865,0.3532683681542039,1.001090450285119,6.486861356943336
35,24,male,465,45,95,change,valid,clock,3,2,2,0.23287463862834556,1,j,change,0.7650701833044877,0.1307720764648841,0.5002613873484734,0.03535977482897579,0.3533145519313621,1.0010657547936717,4.708445665748513
35,24,male,466,105,155,change,valid,clock,2,2,2,0.25486966232620034,1,j,change,1.001019571017423,0.12865120589117568,0.5004438774103619,0.035388639688790136,0.3531949231191902,1.0010410593022243,4.955801163447177
35,24,male,467,165,165,same,catch,clock,2,0,1,0.10440259681035968,0,j,change,1.1355705524547375,0,0.49984252615013247,0.03530878024139383,0.3533254564335948,1.0010991097433362,6.427256702901104
35,24,male,468,165,115,change,valid,anti,1,2,2,0.06288338147351169,1,j,change,0.7399420393603577,0.12653108104389316,0.5004137296673434,0.035328344202753215,0.3533200041829332,1.0010782628996822,4.532571429303971
35,24,male,469,15,15,same,catch,anti,2,1,1,0.279190231618486,0,j,change,0.5568557571605197,0,0.4991423929222947,0.035325457715771336,0.3532609915782814,1.0010833944306796,6.026219877112453
35,24,male,470,135,85,change,catch,anti,2,1,1,0.04117893070451828,0,j,change,0.338366082120956,0,0.4999964720727803,0.03530910096196749,0.3533135897687316,1.001048756597811,5.603318240218869
35,24,male,471,105,155,change,valid,clock,2,1,1,0.09108916098830377,0,j,change,0.6412242164633426,0.06323459146835,0.5004769116394527,0.03530589375532145,0.3533129483266748,1.001049718759532,4.41396571752648
35,24,male,472,15,15,same,valid,anti,4,2,2,0.15801650941739354,1,f,same,1.1454670302355225,0.1244545602683792,0.5000282234195765,0.035315515375259565,0.35328280058365635,1.00107986650346,5.026168241084633
35,24,male,473,105,105,same,catch,clock,2,0,1,0.2161416789977011,0,j,change,0.8432586759754486,0,0.500327455806655,0.035318722581905604,0.3533392474218999,1.001073772809832,6.262872925979536
35,24,male,474,75,75,same,valid,anti,3,2,2,0.13075974237108312,1,f,same,0.9108534441229494,0.1222129070055021,0.5006279710760282,0.03533219285054656,0.35332866364115034,1.0010503602015888,4.779782602699015
35,24,male,475,165,165,same,valid,clock,4,2,1,0.14379318904775573,0,j,change,0.9272698524500811,0.11994545057083583,0.4998806919093113,0.03529242348668049,0.3533145519304526,1.0010959025366901,4.719635930721779
35,24,male,476,15,325,change,valid,anti,5,0,1,0.05726948682786315,0,j,change,0.23732046858640388,0.05138222496139494,0.5000955747600528,0.0352937063698846,0.3533296258019618,1.0010673583974494,3.954271325839727
35,24,male,477,105,105,same,valid,clock,5,0,1,0.10894528441167495,0,j,change,0.7245198651180544,0.052761324612746324,0.5003983350752605,0.03530942168345064,0.3533235321092434,1.001069603441465,4.496590739255225
35,24,male,478,105,155,change,valid,clock,5,1,1,0.09963861194682977,0,j,change,1.0555055231307051,0.06582813698453552,0.5003726774211827,0.035268048716716294,0.35336073570761073,1.0010474737155164,4.814776755962157
35,24,male,479,165,165,same,valid,clock,3,0,1,0.08795764434580633,0,j,change,0.5921276545250294,0.05408784034122402,0.5001946774482349,0.0353103838451716,0.3533110240032329,1.0010186088547925,4.354837975123701
35,24,male,480,45,355,change,catch,anti,2,0,1,0.1201621692007393,0,j,change,0.8734003254676281,0,0.5001270053862754,0.03530525231417414,0.3533309086851659,1.0010298340785084,6.2154146052344
