subject,age,gender,ntrial,memory_ori,test_ori,type,trial_type,which_change,trial,quest,pas,pas_rt,vis,test_key,test,test_rt,contrast,fix_dur,target_dur,mask_dur,retention_dur,trial_dur
36,23,female,1,165,165,same,valid,clock,2,1,3,0.9639885349840824,1,f,same,1.3060804545980318,0.2,0.5073061093191882,0.03536842604898993,0.3533022857227479,1.0010718385171913,6.0821309894429305
36,23,female,2,75,75,same,catch,anti,1,0,1,1.4293662586389928,0,j,change,0.04012819727472561,0,0.49964320157073416,0.03529947174592962,0.35333307462110497,1.0010269380409227,6.6865722238596845
36,23,female,3,135,135,same,catch,anti,4,1,2,0.8579672848713926,1,j,change,1.1098689002303672,0,0.5003603263237437,0.03535431447085102,0.3532416700795693,1.0010814600482263,7.206068171110701
36,23,female,4,45,45,same,valid,anti,4,1,2,2.7279826504559423,1,j,change,0.971052342089024,0.09338226537841544,0.49915667283607945,0.03532320485487617,0.35332473596122327,1.0010208444048203,7.463406913454492
36,23,female,5,135,85,change,catch,anti,2,1,2,1.4580534937861103,1,f,same,1.7148316216093917,0,0.49961080908406075,0.035337957868705416,0.35327566615478645,1.0010256551702241,8.464352389202531
36,23,female,6,45,355,change,valid,anti,2,2,1,0.49727085282347616,0,j,change,0.9809172974917146,0.2,0.500292654891382,0.03533988217486694,0.35331511443041563,1.0010455396668476,5.215395603665911
36,23,female,7,165,115,change,catch,anti,2,2,1,0.29139639519735283,0,j,change,0.29216643836912226,0,0.4998709111300741,0.035326412031736254,0.35331415227733487,1.001055481915273,5.814795797443821
36,23,female,8,165,165,same,valid,clock,3,1,2,1.3116647910028405,1,f,same,1.300975591138922,0.020575447070561637,0.500363212782986,0.03529850959284886,0.353336923233428,1.0010384838776645,6.392527983420223
36,23,female,9,45,45,same,valid,clock,2,2,3,1.8108500077132703,1,f,same,0.873756537429017,0.3670372117912738,0.4998317835720627,0.035332184950220835,0.35333211246779683,1.001059330527596,6.451197511743885
36,23,female,10,45,45,same,catch,anti,3,1,1,1.0759119527313032,0,j,change,0.5982898691374885,0,0.5001505769550931,0.03536329456596832,0.35328977773315273,1.00105163330295,6.910749077856508
36,23,female,11,45,45,same,catch,anti,4,0,2,0.9754003118016499,1,f,same,1.1660233604350196,0,0.5003715514430951,0.03532416700795693,0.3533202459136646,1.0010525954560308,7.370002376517959
36,23,female,12,75,25,change,valid,anti,1,1,1,2.879566659087004,0,j,change,1.1180433526928937,0,0.5001823280063036,0.03531935624255311,0.3532904191683883,1.0010381631600467,9.277501942747449
36,23,female,13,15,325,change,valid,anti,4,0,2,0.6222882116685469,1,j,change,0.9179267397410058,0.2,0.500241660779011,0.03531165901813438,0.353299399263733,1.001073442105735,5.285326812928815
36,23,female,14,135,185,change,valid,clock,2,1,2,0.3638971945863432,1,j,change,1.6101907404313351,0.047936301479861165,0.49992447098406956,0.03533058136190448,0.35329009845054316,1.0010355974184222,5.662188057948697
36,23,female,15,135,135,same,valid,anti,5,0,2,0.5055338233685234,1,j,change,1.186236272080123,0.0723357464867447,0.5001281267166178,0.035357842365328906,0.3532673274946774,1.0010532368912664,5.414691500051049
36,23,female,16,105,155,change,valid,clock,2,2,1,1.100016773535117,0,j,change,1.8917324431920406,0.3227502669243441,0.5006043924852293,0.03534854155213907,0.3532945884983292,1.0010320695239443,6.710864985229364
36,23,female,17,105,155,change,valid,clock,4,0,1,0.2612938328875316,0,j,change,0.44287296340257853,0,0.5003436490039803,0.03527734222552681,0.3533321124680242,1.0010381631598193,5.956767896929023
36,23,female,18,45,45,same,catch,clock,1,0,1,0.3542929826649015,0,j,change,0.276092067785612,0,0.5003125393882328,0.0352783043783802,0.3533240945257603,1.0010541990445745,5.874595214186456
36,23,female,19,165,165,same,valid,anti,4,2,4,0.6959262759833109,1,f,same,1.335258067092127,0.410545444309991,0.49976988505795816,0.035365539589975015,0.3532740625662427,1.0010654241636985,5.779469385412085
36,23,female,20,105,105,same,catch,clock,1,1,2,1.234000757535341,1,f,same,1.2415110036636179,0,0.49999534959351877,0.03530364107587047,0.3533273017026204,1.001043294642841,7.735261659130174
36,23,female,21,15,15,same,valid,clock,4,1,1,0.6173507628429888,0,j,change,0.5763239146031083,0.018540659684303656,0.500142238294984,0.035327694902434814,0.3533010028522767,1.0010391253131274,4.955967064858896
36,23,female,22,165,115,change,valid,anti,2,1,2,0.37258383319840505,1,f,same,1.1286148491649328,0.05966797802237597,0.4995380061686774,0.03533218494999346,0.35329779567518926,1.0010602926804495,5.285256896472674
36,23,female,23,165,115,change,valid,anti,3,2,2,0.37935129715879157,1,f,same,1.3029159331586015,0.38602135432929263,0.499311579480036,0.035353352317542885,0.353321849501981,1.0010532368912664,5.33224460368433
36,23,female,24,165,115,change,valid,anti,1,1,2,0.3689270101060629,1,f,same,0.9327057315776983,0.038971407674630476,0.49969002635339166,0.03534822083452127,0.3533240945257603,1.0010362388538852,5.07370830148875
36,23,female,25,105,155,change,catch,clock,4,0,1,0.8991557748265677,0,j,change,0.7124461234370756,0,0.4996563509960197,0.035322884137030996,0.35330100285204935,1.0010676691874778,6.874873276422932
36,23,female,26,135,135,same,valid,clock,4,0,2,0.6638750329939285,1,f,same,0.7582372329504778,0.05517235490842054,0.5003022764221896,0.0352696450008807,0.35335584557697075,1.001039766748363,5.191761917147687
36,23,female,27,135,135,same,valid,anti,4,1,2,0.5090793574227064,1,f,same,1.1009856616742582,0.021427218169414397,0.4998542338103107,0.035357842365328906,0.3533106243826296,1.0010051292379103,5.426763313873153
36,23,female,28,135,135,same,valid,clock,5,0,1,0.5771706093025841,0,j,change,0.7552163930356528,0.00898370978647961,0.49937155368797903,0.03534180648102847,0.3532830426615874,1.0010349559831866,5.132102654034952
36,23,female,29,75,75,same,valid,anti,2,1,1,0.2909214122996673,0,j,change,0.4607715762024327,0.005908024073372875,0.49966982113915037,0.03533122279714007,0.3533208873489002,1.0010282209116212,4.50767974542714
36,23,female,30,15,65,change,catch,clock,5,2,2,1.49459831231934,1,f,same,1.2340709947091,0,0.5002429436497096,0.03533539212708092,0.3532997199813508,1.0010317488060991,8.064795877623055
36,23,female,31,135,135,same,valid,anti,3,2,1,0.2785564625096413,0,j,change,0.7974969267227152,0.3675055704312141,0.5005024042602599,0.03528536016756334,0.35335841131836787,1.0010455396668476,4.897794328235932
36,23,female,32,165,165,same,valid,clock,2,0,1,0.291533983086083,0,j,change,0.560409261428731,0.04532533474617015,0.49955821138314604,0.035317752654236756,0.3533240945257603,1.0010359181362674,4.613675017406877
36,23,female,33,135,85,change,valid,anti,1,1,1,0.3167193017848149,0,f,same,1.2279824900972471,0.02983738851541623,0.49951940454275245,0.03534629652858712,0.353254498787237,1.0010541990445745,5.344153492920441
36,23,female,34,165,215,change,valid,clock,4,0,1,0.28545798646382536,0,f,same,0.6368872808818651,0.07781089330998395,0.4997192116629776,0.035318073372081926,0.353321208066518,1.0010631791396918,4.672590856916031
36,23,female,35,75,125,change,catch,clock,4,1,1,0.4188730172832038,0,f,same,1.3320986771357184,0,0.5001906666661853,0.03534629652858712,0.3533074172059969,1.0010214858402833,7.110764023300817
36,23,female,36,135,135,same,valid,clock,2,2,2,1.6051519448160434,1,f,same,0.8808132887450029,0.41814697939732703,0.5008247255377682,0.03529434026290801,0.35333660251558285,1.001027900193776,6.323132693416028
36,23,female,37,105,55,change,valid,anti,1,2,2,1.5219042163791983,1,j,change,0.6543856380053512,0.40477312037274144,0.4996723868805475,0.03531871480731752,0.3532589888347957,1.0010413703369068,6.003761377059163
36,23,female,38,105,55,change,valid,anti,4,2,2,0.6348898511132575,1,j,change,0.7039086185502583,0.39276274157209634,0.49928848780655244,0.03532737418481702,0.35331479371279784,1.0010631791399192,5.120159448006461
36,23,female,39,105,105,same,valid,clock,4,0,2,0.3573875876479633,1,f,same,0.7515210838205348,0.10709618407339457,0.4997464726666294,0.03531807337185455,0.35333403677418573,1.001055481915273,4.931681038560782
36,23,female,40,165,165,same,valid,clock,3,0,2,0.758914588710013,1,f,same,1.1240792596038318,0.08002162906938975,0.5003276131196799,0.03532352557249396,0.353294267780484,1.0010612548335303,5.721753350778272
36,23,female,41,15,65,change,valid,clock,1,0,2,0.7085109173904129,1,j,change,0.5747828661064887,0.05788696315897379,0.4997711679286567,0.035356559494630346,0.3533029271582109,1.001070876364338,4.9436550334878575
36,23,female,42,15,15,same,valid,clock,1,0,1,1.3877576285108262,0,f,same,1.260821736448861,0.03934523877796159,0.4998875884498375,0.03532095983109684,0.35327630759002204,1.0010670277520148,6.4395108798667025
36,23,female,43,165,165,same,catch,anti,5,1,1,0.3562913745865899,0,j,change,0.5982933970321938,0,0.49996039136544823,0.035264513517859086,0.3533410925633689,1.0010416910545246,6.274636009476353
36,23,female,44,105,105,same,valid,anti,1,1,1,0.330947942066814,0,j,change,0.10842374632261453,0.05123641934070525,0.5000027261003197,0.0353139040419137,0.35330581361768054,1.0010269380409227,4.249562300533626
36,23,female,45,105,155,change,catch,clock,5,1,1,0.35556591117347125,0,j,change,2.330176295306728,0,0.4990893221215629,0.03528600160279893,0.3533439790223838,1.0010580476566702,7.958276552939196
36,23,female,46,135,85,change,valid,anti,4,1,1,0.30273087905197826,0,j,change,1.7881085578064813,0.0712106265085869,0.49940683263389474,0.035372274661312986,0.3532820805085066,1.0010955716263652,5.897440255906986
36,23,female,47,75,75,same,valid,clock,2,1,2,0.775997295708521,1,j,change,1.9205043478093557,0.09031170498722159,0.4993741194296035,0.0353418064808011,0.35329522993379214,1.0010429739254505,6.498126848336142
36,23,female,48,75,125,change,valid,clock,1,0,1,0.4485227262157423,0,j,change,0.07840809850654296,0.05510815352149334,0.4998638553411183,0.03532865705574295,0.3533026064405931,1.0011013445448498,4.331792391742738
36,23,female,49,75,125,change,valid,clock,1,1,1,0.38778007874907416,0,j,change,1.3626364533499782,0.07950002231710641,0.4994023425861087,0.03533699571539728,0.3532859291208297,1.0010824222010797,5.567455108343211
36,23,female,50,45,95,change,valid,clock,1,1,1,1.8335696488172744,0,j,change,0.6489841106836138,0.09627936717722271,0.5001662921220031,0.0353331471033016,0.3532628374471187,1.0010830636365426,6.2517297106774095
36,23,female,51,165,215,change,valid,clock,4,1,1,0.606313584286454,0,j,change,0.611592918168526,0.11297075094840191,0.5021175385429615,0.03529434026290801,0.35332601883192183,1.0010016013434324,4.957764046071816
36,23,female,52,15,65,change,valid,clock,2,0,1,0.48928305805588934,0,j,change,0.7255176142966775,0.0707663777397482,0.49959605607045887,0.0353139040419137,0.35325097089253177,1.0010904401433436,5.01418053262887
36,23,female,53,15,325,change,valid,anti,4,2,3,1.7562574426549418,1,j,change,0.5974271385534848,0.38234486679018187,0.5001448040366085,0.035328015620279984,0.35329747495757147,1.0009833204353527,6.0978224231055265
36,23,female,54,135,185,change,valid,clock,2,2,3,0.7576442259430678,1,j,change,1.7249021570510195,0.3730233411886372,0.5005306274167651,0.03532705346719922,0.3533266602671574,1.0010577269390524,6.251818549477321
36,23,female,55,75,75,same,valid,clock,4,2,2,0.6414748267081904,1,j,change,0.9237458414941102,0.3644812277537578,0.4999530148586473,0.03533026064405931,0.3533022857229753,1.0010843465072412,5.332705154286032
36,23,female,56,165,115,change,valid,anti,3,1,2,0.3371554329416995,1,j,change,0.9148834495881601,0.12847045395313836,0.4996560302784019,0.03533282638545643,0.3532628374471187,1.0010586890921331,5.026424892567547
36,23,female,57,15,65,change,valid,clock,2,1,2,0.46508843629931107,1,f,same,1.5103891684655082,0.11954163794930783,0.4995684743491893,0.035360087389335604,0.35330677577053393,1.0010500297146336,5.86169338298464
36,23,female,58,75,125,change,valid,clock,3,0,1,0.5383987271354727,0,j,change,0.6423375572921941,0.08536195419952748,0.5005559641142554,0.03529401954506284,0.35331511443041563,1.0010689520581764,4.9567140163574095
36,23,female,59,15,15,same,catch,anti,3,1,1,0.30957018377444,0,j,change,0.449080454277464,0,0.49966308606735765,0.03533154351475787,0.35331607658372377,1.001032390241562,6.062816087327519
36,23,female,60,165,165,same,valid,anti,2,0,2,0.5769951767267685,1,f,same,1.6513131625426922,0.10017077182116008,0.4999061900759898,0.03531262117121514,0.35327887333164654,1.0010782528711388,6.085969659465036
36,23,female,61,165,165,same,valid,anti,1,2,2,1.1582892533594986,1,j,change,1.26535155309125,0.3565097351415852,0.49974454836069526,0.035277021507454265,0.3533324331858694,1.0010804978951455,6.145171899870775
36,23,female,62,105,105,same,valid,clock,4,1,2,0.300046792710873,1,j,change,0.9809570664849616,0.11141003328338987,0.4999363375386565,0.03530716897034836,0.3532942677807114,1.0011058345924084,5.037809729099536
36,23,female,63,165,215,change,valid,clock,2,0,2,0.2859669654365007,1,j,change,1.1754383489196698,0.08574818137202886,0.5003394796740395,0.03533410925638236,0.3532910606036239,1.0010288623468568,5.214706702069634
36,23,female,64,105,55,change,valid,anti,5,2,2,0.920607618905251,1,j,change,1.0086337201937567,0.3495246369083541,0.5005736035870996,0.03529145380366572,0.35331639730134157,1.001065424163471,5.697771685566977
36,23,female,65,75,25,change,valid,anti,4,2,2,0.6439013767449069,1,j,change,1.055732075008109,0.34280863526649374,0.49985295093961213,0.03532673274935405,0.3533240945257603,1.0010243722992982,5.521086386271691
36,23,female,66,75,125,change,valid,clock,4,2,2,0.3384373415453865,1,j,change,0.8913924824414607,0.3362628760242753,0.49996552284846985,0.035325129161037694,0.3533321124680242,1.0010551611974279,5.002834182219658
36,23,female,67,105,105,same,valid,clock,3,2,3,0.7702224529964496,1,f,same,1.6302522733271871,0.33036160748827725,0.4993221631639244,0.03527253146012299,0.35329875782827,1.0010609341159125,6.2509981536281884
36,23,female,68,165,115,change,valid,anti,1,2,3,0.5957513886273773,1,f,same,0.7165230867024093,0.3244886886540025,0.4988901564365733,0.0353414857631833,0.35341934767939165,1.001040408183826,5.002199161194767
36,23,female,69,15,15,same,valid,clock,4,2,3,0.5791542482104433,1,f,same,1.1850964414127247,0.3186463956603734,0.4994690518656171,0.035378368297415363,0.35327823189641094,1.0010718385171913,5.532521254763196
36,23,female,70,45,355,change,valid,anti,2,0,2,0.30641432171250926,1,j,change,0.9494247447166799,0.07321996456187235,0.49980323969771234,0.03535463518846882,0.35329522993356477,1.0010384838776645,5.037665085421395
36,23,female,71,45,355,change,catch,anti,2,2,2,0.4628940858694932,1,f,same,1.9772367412901986,0,0.5004161312017459,0.03531871480731752,0.3533016442875123,1.0010641412927725,7.888858491979136
36,23,female,72,15,15,same,valid,clock,5,0,1,1.1175526546285255,0,j,change,0.8849155887078268,0.0617500175347295,0.49993826184481804,0.035335071409463126,0.35328977773315273,1.001077932153521,5.815830111991318
36,23,female,73,75,75,same,valid,anti,5,1,1,0.5267438463095004,0,j,change,0.1373694799272016,0.1038761656108376,0.49901780207687807,0.03533154351475787,0.3532971542397263,1.0010416910545246,4.413100419594912
36,23,female,74,135,185,change,valid,clock,4,1,2,0.31799223029338464,1,j,change,2.0277013489708224,0.11550520541385273,0.49950561368223134,0.035317752654236756,0.35331928376058386,1.0010731213881172,6.109308606427021
36,23,female,75,45,355,change,valid,anti,1,0,2,0.3408629294287948,1,f,same,1.2173215133898339,0.0715143921894125,0.5001278059992273,0.035326412031736254,0.3532743832840879,1.0010535576091115,5.356684253755702
36,23,female,76,45,45,same,valid,anti,2,1,1,0.34465220892684556,0,j,change,0.08493855209417234,0.10883535710800725,0.4996807255404292,0.03532961920859634,0.35328143907327103,1.0010339938298785,4.1777433469519565
36,23,female,77,105,105,same,valid,anti,3,1,1,0.5079866722558108,0,j,change,0.5104071286561975,0.11987807489244467,0.5005136293791566,0.035280228684541726,0.3533629013661539,1.0010618962689932,4.814818247682069
36,23,female,78,75,125,change,valid,clock,2,1,1,0.3775042839863545,0,j,change,0.7396888461123581,0.1306751098255996,0.49992479170191473,0.03533892002178618,0.3532743832840879,1.001062858422074,4.837480801037373
36,23,female,79,165,165,same,valid,anti,3,2,1,0.592087509745852,0,j,change,1.0302619590013364,0.3132415726641481,0.5005190815800233,0.03532737418481702,0.3532766283078672,1.001074083541198,5.426799554972149
36,23,female,80,105,105,same,catch,anti,5,2,1,0.3713137911490776,0,j,change,1.1898074635496414,0,0.5003228023542761,0.03530620681749497,0.3533125486890185,1.001044898231612,6.875499317352478
36,23,female,81,165,215,change,valid,clock,3,1,2,0.3645604387675121,1,j,change,1.1614778286257206,0.1412619648818742,0.5003285752725333,0.03533988217486694,0.35328977773315273,1.0010487468437077,5.3207661175872545
36,23,female,82,75,125,change,valid,clock,3,2,2,0.4410926595096498,1,j,change,0.8334750370988786,0.33101794819368685,0.5004093961301805,0.035304282511106067,0.3533109451004748,1.001059009809751,5.0856890314871634
36,23,female,83,45,45,same,valid,anti,3,2,2,1.3023007966305613,1,f,same,1.0202869974314126,0.3264570028623923,0.499867703953214,0.03535591805939475,0.35330356859367384,1.000992941965933,6.215616898871531
36,23,female,84,105,105,same,valid,anti,3,0,1,2.429725783168351,0,j,change,0.6374706663582401,0.06134947425344178,0.5000819433694232,0.03532769490266219,0.35329009845054316,1.001052274738413,6.89868175408219
36,23,female,85,165,165,same,valid,clock,3,2,2,0.6632810638334377,1,f,same,0.540233553035705,0.3222549278179253,0.5003436490039803,0.035322563419640574,0.3533266602671574,1.0010317488060991,5.050661528341607
36,23,female,86,165,165,same,valid,clock,4,0,2,0.37812423127979855,1,f,same,0.9021804633537158,0.07012956495417952,0.4995922074581358,0.03536329456619569,0.35330004069919596,1.0010657448813163,5.084630663112648
36,23,female,87,15,15,same,catch,anti,5,0,1,0.6839840321076736,0,j,change,0.7127957057184631,0,0.5004058682357027,0.03530524466418683,0.35332281165506174,1.0011032688510113,6.66387407084062
36,23,female,88,165,165,same,valid,anti,2,2,2,0.26084995960559354,1,j,change,1.3459270617418042,0.3179510050625395,0.5000976585363333,0.03531582834807523,0.3533157558658786,1.0010070535440718,5.37976470225999
36,23,female,89,75,75,same,catch,clock,5,2,1,0.4368393015154197,0,j,change,1.2496325377076118,0,0.5001159394446404,0.03533571284492609,0.3532663653415966,1.0010862708134027,7.016810096962672
36,23,female,90,75,125,change,catch,clock,3,2,1,0.49380549819170483,0,j,change,0.9557165843439179,0,0.5003365932147972,0.03530973471197285,0.3532910606038513,1.0010769700004403,6.770022966593842
36,23,female,91,135,185,change,valid,clock,3,2,2,1.8993190201306334,1,j,change,0.7120641486694694,0.3139518551261996,0.49988566414367597,0.0352866430382619,0.3533487897877876,1.0010667070341697,6.509811235189773
36,23,female,92,45,45,same,valid,anti,1,1,2,0.6891418139855432,1,f,same,1.722799531880355,0.13516237256169367,0.4998022775444042,0.03527670078983647,0.3533289052911641,1.0010808186127633,6.38013833836817
36,23,female,93,165,115,change,valid,anti,4,2,2,0.8231803199928436,1,j,change,1.4455262608455541,0.30986184071427614,0.49989688926302733,0.035300113181165216,0.3533266602671574,1.0010455396668476,6.098155648784541
36,23,female,94,135,185,change,valid,clock,2,0,1,0.5421398989803947,0,j,change,0.11013060586446954,0.061016749262438885,0.4999151701711071,0.03534469294027076,0.35330677577053393,1.0010089778504607,4.425715849900143
36,23,female,95,15,15,same,valid,anti,1,0,1,0.32587643324723103,0,j,change,0.07390009066693892,0.06900116928260727,0.5000405707876325,0.03536329456619569,0.35328111835542586,1.0010692727757942,4.131747619552925
36,23,female,96,105,155,change,catch,clock,3,2,1,0.2906770254203366,0,j,change,0.8399294805944919,0,0.49964576731235866,0.03536425671904908,0.3533128694066363,1.0010647827282355,6.380788112406435
36,23,female,97,135,135,same,valid,anti,1,2,2,0.49904955312786115,1,f,same,1.7133794119126833,0.3059699705519032,0.49993024390255414,0.03535303159992509,0.35332024591343725,1.001041049619289,6.227973510001675
36,23,female,98,165,215,change,valid,clock,1,0,1,0.2899406576061665,0,j,change,1.0320413007411844,0.07703925095525439,0.4990203678182752,0.03531262117121514,0.3533301881618627,1.0010452189492298,5.025046768656921
36,23,female,99,105,105,same,catch,anti,4,2,1,0.7620120801523171,0,j,change,0.5927218893350528,0,0.5001358239412639,0.03527670079006384,0.353332433185642,1.0010788943066018,6.651466786315723
36,23,female,100,135,135,same,catch,clock,3,2,1,0.5089937257998827,0,j,change,0.11353502413567185,0,0.5001306924582423,0.03526451351763171,0.3533577698831323,1.0010798564596826,5.9215194192956915
36,23,female,101,75,75,same,valid,clock,3,2,1,0.928942109494983,0,j,change,0.04938443050332353,0.30232603011618175,0.511891410122189,0.03530428251087869,0.35329073988577875,1.0010875536841013,4.779280482693139
36,23,female,102,45,355,change,valid,anti,1,1,2,0.8396440418509883,1,j,change,0.5987568340929101,0.12960321771700506,0.4993584042626935,0.035324167008184304,0.35332858457331895,1.0010118643094756,5.238149240844905
36,23,female,103,15,15,same,catch,clock,1,1,1,0.22020380326284794,0,j,change,0.10256166839917569,0,0.49925128455424783,0.03531165901813438,0.3532939470628662,1.0010631791401465,5.661318913010746
36,23,female,104,15,15,same,catch,clock,5,1,1,0.3329168279606165,0,j,change,0.9803165932594311,0,0.500091885618076,0.035347900116903475,0.3532872119917556,1.0010618962687658,6.616543195701524
36,23,female,105,75,125,change,valid,clock,3,1,2,0.6605196845293904,1,j,change,0.642994066402025,0.12430870894714005,0.49988790916768266,0.03534565509289678,0.3532878534269912,1.001014750768718,5.108698280664612
36,23,female,106,45,95,change,valid,clock,4,2,2,0.6291089147648563,1,j,change,0.7119371444641729,0.3150596691662022,0.49941773703540093,0.03536521887190247,0.35322114414748285,1.0011087210514233,5.155091056562924
36,23,female,107,165,215,change,catch,clock,3,2,1,0.028583964051449584,0,j,change,0.20571794739407778,0,0.4999414690219055,0.035324167008184304,0.35329747495779884,1.0010538783267293,5.521289721286394
36,23,female,108,135,85,change,valid,anti,3,1,2,0.3329399196345548,1,j,change,0.7499774695825181,0.11915017029500566,0.4999504491170228,0.03536008738910823,0.3532965128047181,1.0010448982311573,4.849980772974504
36,23,female,109,105,105,same,valid,clock,2,1,1,0.43447240496880113,0,j,change,0.0016908236575545743,0.11443263835369556,0.49954377908716197,0.035345013657661184,0.3533112658178652,1.0010564440685812,4.166481024577479
36,23,female,110,15,325,change,catch,anti,2,2,1,1.6414395477622747,0,j,change,0.7163495784325278,0,0.4992099119726845,0.03532288413725837,0.35331190725355555,1.0010558026328908,7.593204890175002
36,23,female,111,15,325,change,valid,anti,2,2,2,0.32451049660903664,1,j,change,1.0667099207921638,0.3119124185012513,0.5000290249508907,0.035302678922562336,0.3533353196448843,1.001056123350736,5.214885341822537
36,23,female,112,105,55,change,valid,anti,3,0,1,0.35830227449787344,0,j,change,0.3265159443194534,0.08511878888298423,0.49992767816092964,0.03533282638545643,0.3532788733318739,1.0010936473199763,4.449627919372688
36,23,female,113,15,15,same,valid,anti,4,2,2,1.8322986446150935,1,f,same,0.4874835111018001,0.30861934546812864,0.4989773916477134,0.03532448772557473,0.35329362634502104,1.00105484047981,6.2380305753003995
36,23,female,114,105,55,change,valid,anti,3,2,2,0.35547226160815626,1,j,change,1.8738036829295197,0.30551520167353197,0.5000550030840714,0.03529113308604792,0.35334750691708905,1.0010307866532457,6.051381218836468
36,23,female,115,45,45,same,catch,anti,3,1,1,0.37574258171980546,0,j,change,0.044954998497360066,0,0.49974005831290924,0.035353673035388056,0.3533763715090572,1.0010577269390524,5.685823989490473
36,23,female,116,15,325,change,valid,anti,1,2,2,0.3388651789427968,1,j,change,0.6898534865381407,0.302575241958965,0.49989432352140284,0.03532865705574295,0.3533083793586229,1.001041049619289,4.873642041214225
36,23,female,117,135,135,same,valid,clock,2,1,2,0.3607365217590086,1,f,same,0.6739179867140592,0.1220224155133102,0.49957168152604936,0.035225065241775155,0.3533946524175917,1.0010667070341697,4.884677616182671
36,23,female,118,165,215,change,valid,clock,2,2,2,0.8348544438804311,1,j,change,0.6042263535650818,0.2994856517324072,0.49935519708560605,0.03530460322917861,0.35330837935907766,1.0010279001940035,5.226070691951463
36,23,female,119,15,325,change,valid,anti,3,1,2,0.569269729028747,1,j,change,0.6782928967122643,0.11747681305344734,0.49926603756830445,0.035329619208823715,0.35326989323630187,1.0010715177995735,5.037055080376376
36,23,female,120,165,115,change,catch,anti,1,0,2,0.6374276901883604,1,j,change,1.4204050856847061,0,0.5004809161750927,0.03527702150768164,0.3533770129442928,1.0010214858402833,7.370859975619169
36,23,female,121,105,105,same,valid,anti,4,0,1,0.06772018151332304,0,j,change,0.3966880125667558,0.09323572260789233,0.49990683151145276,0.035375161120555276,0.35330902079431326,1.0010586890921331,4.213900097081023
36,23,female,122,45,355,change,valid,anti,1,2,2,0.32839534997810915,1,j,change,0.6863265541096553,0.2965213857502088,0.4998840605553596,0.03530492394656903,0.35329747495779884,1.0010314280884813,4.814728446728623
36,23,female,123,15,15,same,valid,anti,3,2,2,0.41244615550931485,1,f,same,2.2713733484242766,0.2937179242276804,0.49898540959020465,0.03534084432749296,0.3533080586412325,1.0010869122488657,6.556217160512915
36,23,female,124,45,355,change,valid,anti,4,1,1,0.394540166202205,0,j,change,0.7467828006801938,0.11329949363033864,0.5000274213625744,0.03533699571562465,0.3532692518010663,1.0010679899050956,4.944383704077609
36,23,female,125,135,135,same,valid,anti,5,2,2,0.38284455422990504,1,f,same,0.5208282085318388,0.29078546185460913,0.4996345421927799,0.03535271088230729,0.3532660446239788,1.0011100039223493,4.766760626258929
36,23,female,126,15,15,same,catch,anti,2,0,1,0.347745210321591,0,j,change,0.7312247855761598,0,0.5002143997753592,0.035334750691617955,0.3532878534269912,1.001068631340786,6.333744279599159
36,23,female,127,135,185,change,catch,clock,1,0,1,0.39556550065481133,0,j,change,0.20966598214818077,0,0.500318953741953,0.035332505668066005,0.3532856084029845,1.0010407289014438,5.909857161962918
36,23,female,128,135,85,change,valid,anti,5,1,2,0.2750215121391193,1,j,change,1.0780553090485228,0.12015717725844066,0.4998603274461857,0.0353331471033016,0.353303889311519,1.001050991867487,5.226413539161513
36,23,female,129,75,25,change,valid,anti,5,2,1,0.4241972516415444,0,j,change,0.8516687101728166,0.2879043411551687,0.49965474740747595,0.03533346782114677,0.35325674381101635,1.0010663863167792,5.108243823699013
36,23,female,130,45,355,change,catch,anti,1,0,2,0.4223444655513049,1,f,same,1.562991359544867,0,0.4998959271097192,0.03534437222242559,0.3532824012263518,1.001053557609339,7.34638953664944
36,23,female,131,75,75,same,valid,clock,4,0,2,0.5054542853813473,1,f,same,1.118564198220156,0.10077656386723864,0.5000601345668656,0.03531967696017091,0.35332249093744394,1.001043615360686,5.4497501128125805
36,23,female,132,105,105,same,valid,clock,2,2,2,0.5548563553579697,1,f,same,0.5610317744635722,0.29787511296522834,0.5003288959901511,0.03534886226998424,0.35332024591343725,1.0010513125853322,4.979335197130695
36,23,female,133,15,15,same,valid,clock,3,1,2,0.6035053801992944,1,j,change,1.5082910333430846,0.11612903482996938,0.4997166459215805,0.03532737418481702,0.35330549289983537,1.0010160336391891,5.98010940963286
36,23,female,134,135,85,change,valid,anti,4,0,2,0.3336756460134893,1,j,change,0.9140880697191278,0.09276852436044773,0.5000424950940214,0.03530492394656903,0.3533183216072757,1.0010651034458533,5.073778859380582
36,23,female,135,135,135,same,valid,clock,3,1,3,0.5290238283623694,1,f,same,1.6022795971912274,0.11237165081448569,0.4996887434826931,0.035337637150860246,0.3533138315597171,1.0010452189490024,5.991580198504835
36,23,female,136,75,125,change,catch,clock,1,1,2,0.43508786221445916,1,f,same,1.689353166942965,0,0.49997065433171883,0.03532031839586125,0.3533301881616353,1.0010407289014438,7.475503743256468
36,23,female,137,105,155,change,valid,clock,1,2,2,0.5413368218864889,1,j,change,0.7619771219242466,0.2954098950417176,0.5006794404243919,0.03531518691261226,0.35332088734867284,1.0010503504322514,5.203837900299732
36,23,female,138,105,105,same,valid,clock,5,2,2,0.3915324757126655,1,f,same,0.974489794281908,0.29304951354912934,0.499251605272093,0.035332826385911176,0.3532891362974624,1.0010731213878898,5.155010556422894
36,23,female,139,45,95,change,valid,clock,3,2,2,0.5961503614330468,1,j,change,0.6430469848210123,0.29055661035026825,0.5001698200167084,0.03537804757979757,0.3533080586412325,1.0010586890921331,5.0977281321047485
36,23,female,140,105,155,change,catch,clock,2,2,2,0.2632287227065717,1,j,change,0.969952601132718,0,0.49961626128470016,0.03533956145702177,0.35330645505291614,1.001058368374288,6.485819307012662
36,23,female,141,75,75,same,valid,anti,4,1,2,0.40976078629728363,1,f,same,1.3644975781003268,0.10858845328258944,0.5008984906062324,0.0353013960516364,0.3533003614165864,1.0010744042588158,5.639961680650231
36,23,female,142,135,135,same,valid,clock,3,0,1,0.30206795558842714,0,j,change,0.8393643760259692,0.08528344449855262,0.49936930866397233,0.03530620681704022,0.3533519969646477,1.001074724976661,4.943334636516283
36,23,female,143,75,25,change,valid,anti,5,1,2,0.37780736220292965,1,j,change,1.1731788927991147,0.10508016723932896,0.4995364025799063,0.03534373078673525,0.35330228572320266,1.0010137886156372,5.32020197517204
36,23,female,144,75,75,same,valid,clock,4,1,2,0.3619453067294671,1,j,change,0.5697395804431835,0.10175100701999702,0.5001698200162537,0.03532801562005261,0.35330773792384207,1.0010362388538852,4.719662271444577
36,23,female,145,75,125,change,catch,clock,2,0,2,0.3306734077245892,1,j,change,0.34998093333342695,0,0.5006768746829948,0.035385103368753335,0.35323653859677506,1.0011103246401944,5.968720403770476
36,23,female,146,75,125,change,valid,clock,5,0,1,0.27463376445302856,0,j,change,0.9068975791269622,0.09215433298538779,0.5008054824766077,0.03533154351498524,0.35329298490978545,1.0010586890921331,5.038920695174511
36,23,female,147,135,85,change,valid,anti,4,2,1,0.2843187972321175,0,j,change,0.36982790609499716,0.2881018668237966,0.5000049711238717,0.03528760519157004,0.35330966222954885,1.0010638205749274,4.449571473059677
36,23,female,148,105,105,same,valid,clock,4,2,1,0.303668016139909,0,j,change,0.8322986446146388,0.29664398056685953,0.4991887446049077,0.0353482208342939,0.3532807976375807,1.0010853086605493,4.967141831304161
36,23,female,149,15,65,change,valid,clock,1,2,1,0.9082834002620075,0,j,change,0.1843049101557881,0.3046930185291099,0.4990835492030783,0.03528792590941521,0.3533240945257603,1.00103591813604,4.908160565386879
36,23,female,150,45,45,same,valid,anti,4,2,2,0.5668566491353886,1,f,same,1.2733002203008255,0.3118880231984283,0.499636145781551,0.035316469783538196,0.3533067757707613,1.0010439360785313,5.614796567166195
36,23,female,151,15,15,same,catch,clock,4,2,1,0.8657504617531231,0,j,change,0.3096160464042441,0,0.5137611942500371,0.03534084432794771,0.3532913813214691,1.0010580476564428,6.465267076051987
36,23,female,152,165,115,change,valid,anti,2,2,2,1.3599991917917578,1,j,change,0.655097951992957,0.3098594014389547,0.4996804048228114,0.03530107533424598,0.35331671801895936,1.0010477846903996,5.7914154779000455
36,23,female,153,75,75,same,valid,anti,4,2,2,0.42563727406650287,1,f,same,1.1856387750249269,0.3078974883025802,0.5000498716003676,0.03533282638545643,0.3532942677807114,1.001054519761965,5.438564441965809
36,23,female,154,105,105,same,valid,anti,2,1,2,0.3688275876224907,1,f,same,0.8082637402676482,0.098372945248964,0.49950465152869583,0.03531775265446413,0.35326251672950093,1.001103268850784,4.9200691339051446
36,23,female,155,135,135,same,valid,anti,2,0,2,0.4630836300239025,1,f,same,0.4718648803545875,0.09858947106788603,0.49992447098429693,0.035345013657661184,0.3533176801720401,1.0010519540205678,4.696770725659007
36,23,female,156,45,45,same,valid,anti,5,2,2,0.6035464320639221,1,f,same,0.6474873212277998,0.30603786167267144,0.49924166302389494,0.035302999640407506,0.3533555248591256,1.0010878744014917,5.037146484918139
36,23,female,157,135,85,change,valid,anti,5,2,2,0.6714657792622347,1,j,change,0.5890676319841077,0.3042527972604323,0.4998215206060195,0.03532801562050736,0.35326027170549423,1.0010881951193369,5.10818449092676
36,23,female,158,75,75,same,catch,clock,4,0,2,0.40535444596480374,1,f,same,0.6586399581524347,0,0.5003539119697962,0.03535431447062365,0.3533003614165864,1.001070876364338,6.369640606964822
36,23,female,159,135,135,same,catch,clock,5,0,2,0.5780227562026994,1,f,same,0.6430101022865529,0,0.49995365629411026,0.035347900116903475,0.3533228116552891,1.001043615360686,6.66294719671896
36,23,female,160,165,165,same,catch,anti,3,2,1,0.3819080585772099,0,j,change,0.2926019729911786,0,0.5001278059994547,0.03532416700772956,0.35332377380791513,1.001038163159592,6.003379723008948
36,23,female,161,15,65,change,catch,clock,3,0,1,0.2809358670456277,0,j,change,0.8595788912598437,0,0.5005078564608993,0.03537900973287833,0.3532997199813508,1.0010532368914937,6.416600411737363
36,23,female,162,165,115,change,valid,anti,4,1,1,0.594636573940079,0,j,change,0.6214812859625454,0.09522731767551748,0.4998343493134598,0.03533122279714007,0.3532586681171779,1.0010541990445745,5.014451859793553
36,23,female,163,15,65,change,valid,clock,4,1,2,0.4695393563902144,1,j,change,0.252909951773745,0.10079336726376101,0.49945301598108927,0.03530267892301708,0.3533369232336554,1.0010282209113939,4.555103307978243
36,23,female,164,45,45,same,valid,anti,4,0,2,0.9708515728152634,1,j,change,1.0798574217437817,0.09182855393201932,0.4995713608082042,0.03532095983109684,0.35328977773315273,1.0010667070341697,5.826625790128219
36,23,female,165,135,185,change,valid,clock,5,1,2,0.5077833372411078,1,j,change,0.6761877058006576,0.09769114867991642,0.5001961188668247,0.03531486619522184,0.3532830426615874,1.0010865915310205,5.061666635129313
36,23,female,166,105,105,same,catch,anti,4,2,1,0.3772185245252331,0,j,change,0.43035535199260266,0,0.500055323801007,0.035321601266787184,0.35329875782827,1.0010801771773004,6.133512528996562
36,23,female,167,165,115,change,valid,anti,4,0,1,0.2677367305459484,0,j,change,0.3457400833290194,0.08540159640508625,0.5003859837388518,0.03531486619476709,0.35329522993379214,1.0010327109594073,4.367021947032299
36,23,female,168,75,25,change,valid,anti,5,0,1,0.32036810693489315,0,j,change,0.21870316519516564,0.09135496116482597,0.4997204945334488,0.03529915102808445,0.35328753270914603,1.001085950095785,4.284139516043524
36,23,female,169,165,215,change,valid,clock,1,1,1,0.4712770048299717,0,j,change,0.2559718435522882,0.09479418570498767,0.49991741519534116,0.03531743193661896,0.35331479371279784,1.0010131471799468,4.519560090788673
36,23,female,170,15,325,change,valid,anti,1,1,1,0.4103355123961592,0,j,change,0.04128855387443764,0.09957035328875108,0.4998135026635282,0.03533635428038906,0.3532984371108796,1.0010744042588158,4.213155711324816
36,23,female,171,105,105,same,valid,clock,1,0,1,0.27543555867578107,0,j,change,0.17540018351473918,0.09698364266446437,0.5006431993256228,0.035313583324295905,0.3533074172059969,1.0010647827284629,4.237850652676116
36,23,female,172,45,45,same,valid,clock,5,1,1,0.8911105715928898,0,j,change,0.4802750603189452,0.10454242911433782,0.5002182483876823,0.0353331471033016,0.35327823189618357,1.0010606133982947,5.191768972937098
36,23,female,173,165,215,change,valid,clock,5,0,2,0.5529573859198536,1,j,change,1.7365955239997675,0.10281922405321711,0.4997641121394736,0.03537387824962934,0.3533061343355257,1.0010888365550272,6.1568280635674455
36,23,female,174,135,185,change,catch,clock,4,1,1,0.32334340493798663,0,j,change,0.203322827690954,0,0.5001345410705653,0.03532544987865549,0.3532884948622268,1.0010346352655688,5.826781017489793
36,23,female,175,105,155,change,valid,clock,1,0,2,0.3718891586836435,1,j,change,0.7843808561042351,0.09683806993845848,0.5008135004186443,0.03536650174328315,0.3533221702195988,1.0010314280884813,5.0149669324027855
36,23,female,176,165,215,change,valid,clock,1,2,2,2.4085580949622454,1,j,change,0.9479783079382287,0.3023732411888629,0.5000274213625744,0.03530556538180463,0.35332601883192183,1.0010234101464448,7.217250314062767
36,23,female,177,75,75,same,valid,clock,2,0,2,0.3626332461731181,1,j,change,0.9341287559650482,0.09133685840054735,0.49924166302389494,0.03522923457194338,0.353327301702393,1.001037201006966,5.131051662167465
36,23,female,178,135,135,same,valid,clock,2,0,2,0.33137962807631993,1,j,change,1.1741590060573799,0.08602194714005693,0.5003516669462442,0.03532063911370642,0.3533157558658786,1.0010288623470842,5.332575584339793
36,23,female,179,135,135,same,valid,clock,4,2,2,1.0246596624060658,1,f,same,2.2312336053123545,0.30052012576638953,0.5002977863741762,0.035305244663959456,0.3533459033287727,1.0010455396668476,7.1696660719489955
36,23,female,180,45,45,same,valid,clock,1,1,2,0.31644188098380255,1,f,same,1.5038067586119723,0.10922609748109346,0.5003179915888722,0.03534725868166788,0.35329009845054316,1.0010368802891207,5.709529196053609
36,23,female,181,135,135,same,valid,anti,1,1,2,0.3264136353768663,1,f,same,0.42853303408264765,0.10645109813555285,0.5002554516395321,0.035310376147208444,0.3532801562023451,1.0010933266025859,4.637646419652356
36,23,female,182,135,85,change,valid,anti,2,0,2,0.33894022688218683,1,j,change,0.6158295988429927,0.08107857993733933,0.5003160672827107,0.03528087012000469,0.3533183216072757,1.0010837050717782,4.779623971337969
36,23,female,183,105,155,change,valid,clock,5,0,2,0.3578102935625793,1,j,change,1.7758959489187873,0.0762676882412073,0.49970381721414014,0.035350786576145765,0.35329234347454985,1.0010218065576737,6.074648004318533
36,23,female,184,45,45,same,valid,clock,3,1,2,0.43766450812972835,1,f,same,0.42706927854897003,0.10382353915096265,0.4997150423328094,0.03531775265400938,0.3532859291208297,1.0010728006700447,4.707761400150957
36,23,female,185,165,215,change,valid,clock,3,0,2,0.2150553221977134,1,f,same,1.5675089889150513,0.07178006424962086,0.5004709739268947,0.035268041412109596,0.35335809060097745,1.0010525954562581,5.662785875721056
36,23,female,186,165,115,change,valid,anti,5,1,2,0.40304335429664206,1,j,change,1.1710557416963638,0.10114282131771377,0.5001133737032433,0.03530652753488539,0.35328881558007197,1.0010737628235802,5.450746903390154
36,23,female,187,15,15,same,valid,anti,1,2,3,1.0640235894275065,1,f,same,1.407779071695586,0.29868943082091565,0.499807088309808,0.03532448772557473,0.3533301881616353,1.0010580476564428,6.286801793581617
36,23,female,188,165,165,same,valid,anti,3,0,2,0.273307276090236,1,f,same,0.9821584749488466,0.0673502732793271,0.49969355424764217,0.0353331471033016,0.35330870007692283,1.0010529161736486,5.096808634489662
36,23,female,189,105,55,change,catch,anti,1,1,2,0.3473391817274205,1,j,change,0.7032238862839222,0,0.5000720011212252,0.03530235820517191,0.35331447299495267,1.0010760078471321,6.427802118468662
36,23,female,190,15,15,same,valid,anti,3,0,2,0.43079601809768064,1,j,change,0.4514236177146813,0.0632322034274056,0.500403623211696,0.035367143178518745,0.3532824012263518,1.0010641412927725,4.74394444913014
36,23,female,191,15,65,change,valid,clock,3,0,1,0.37079968069338065,0,j,change,0.01743838291577049,0.05912162277645494,0.5001743100638123,0.035329939926668885,0.35328175979066145,1.0010538783267293,4.272576039758405
36,23,female,192,45,45,same,valid,anti,5,1,1,0.3572923344945593,0,f,same,1.5649961658200482,0.09851954272167437,0.4997278710407045,0.035313583324295905,0.3532900984509979,1.0010817807656167,5.650186481300807
36,23,female,193,45,355,change,valid,anti,3,1,1,0.8158259426613768,0,f,same,1.4670829796082216,0.10294947359509413,0.4997095901326247,0.035331543514530495,0.3532525744808481,1.0010933266025859,6.074310609309123
36,23,female,194,15,15,same,valid,clock,1,1,1,0.29288516671067555,0,j,change,0.26814724918813226,0.10708780662277415,0.4995550042058312,0.035324167008184304,0.353303889311519,1.001045860384238,4.402210129739615
36,23,female,195,105,155,change,valid,clock,2,1,1,4.893928717927793,0,j,change,0.4736214511385697,0.11148890636766536,0.4996117712371415,0.03532673274912668,0.3532936263454758,1.0010756871297417,9.159877768074239
36,23,female,196,15,325,change,valid,anti,3,2,1,0.47155891567899744,0,j,change,0.7082081598919103,0.29694787437321385,0.49977629941167834,0.03534886226998424,0.35329875782827,1.001042011771915,4.978516404870334
36,23,female,197,105,155,change,valid,clock,3,0,1,2.0202347204481157,0,j,change,0.8673886877099903,0.06288180116808711,0.5006175419102874,0.03536553958974764,0.353292664192395,1.0010352767008044,6.604839886504124
36,23,female,198,45,45,same,catch,clock,3,1,1,0.6427310778967694,0,j,change,0.7045542232585831,0,0.5003901530685653,0.03526258921192493,0.35335520414173516,1.0010102607211593,6.592709702063075
36,23,female,199,15,15,same,valid,anti,5,2,2,0.9730725428134974,1,f,same,1.5368717902174467,0.30336742557187696,0.5007926537691674,0.0353142247595315,0.35332922600855454,1.001006091390991,6.405052650619382
36,23,female,200,75,25,change,catch,anti,3,2,1,0.7436067334037944,0,j,change,0.7772766385705836,0,0.4994360179434807,0.03533154351498524,0.3533109451004748,1.0010718385174187,6.804186135566852
36,23,female,201,135,85,change,valid,anti,3,0,2,1.0182311970434057,1,j,change,1.5206162141394088,0.06643743052335613,0.5048259994282489,0.0353414857631833,0.353331471033016,1.0010288623470842,6.338587116706094
36,23,female,202,45,45,same,valid,clock,4,2,2,0.3415620939913424,1,f,same,0.6328561802461081,0.30167667129812364,0.49935198990897334,0.035348541552593815,0.353316076583269,1.0010442567959217,4.8141094615889415
36,23,female,203,45,45,same,valid,clock,5,0,2,0.27221330805195976,1,f,same,0.5457377100178746,0.06267402883319573,0.49964897448899137,0.035342447916264064,0.35333018816209005,1.0010333523946429,4.64968391668117
36,23,female,204,165,165,same,valid,clock,5,1,2,0.29053141958956985,1,f,same,0.7109717842199643,0.11563550729758558,0.4996229963562655,0.03531999767801608,0.35335873203621304,1.0010490675617802,4.825756965908113
36,23,female,205,105,155,change,valid,clock,4,2,2,0.4585364946260597,1,j,change,1.3084329188486663,0.29999691472369017,0.5000174791139216,0.035313262606450735,0.3532859291208297,1.0010843465074686,5.6156471104777665
36,23,female,206,135,85,change,valid,anti,1,0,2,0.17582994521853834,1,j,change,2.380710819443266,0.058891404054849494,0.49970606223814684,0.03530620681704022,0.35332281165483437,1.0009983941667997,6.321723139171809
36,23,female,207,165,165,same,valid,anti,5,2,2,0.3011109340041003,1,j,change,0.6294456683385761,0.2983509200808794,0.4997490384084813,0.03535014514091017,0.35329587136902774,1.0010663863167792,4.719677665893869
36,23,female,208,15,325,change,valid,anti,5,0,2,0.3716608076888406,1,f,same,0.8595596481982284,0.05535290079531616,0.5000283835156552,0.035334750691617955,0.3533407718455237,1.0010529161741033,5.0264617751017795
36,23,female,209,45,45,same,valid,clock,1,0,2,0.7312405007432972,1,f,same,0.9810513574857396,0.051970535847016414,0.5000437779644926,0.03536265313050535,0.35327310041338933,1.001029824500165,5.555725179578076
36,23,female,210,165,115,change,catch,anti,4,0,2,0.3527487269911944,1,j,change,0.6250133498738251,0,0.5007897673099251,0.03530139605209115,0.35333307462133234,1.0010551611972005,6.463749760664086
36,23,female,211,165,165,same,catch,clock,2,1,2,0.5418406693761426,1,f,same,0.6728910486731365,0,0.5004241491437824,0.035345334375506354,0.3532968335221085,1.0010750456945061,6.663949760215473
36,23,female,212,45,355,change,valid,anti,5,0,2,0.5284032396339171,1,f,same,0.8662231996272567,0.04855029097450719,0.5002846369488907,0.03541621298472819,0.35320991902835885,1.0010586890921331,5.2500087395574155
36,23,female,213,165,215,change,catch,clock,1,0,2,0.30421772625913945,1,j,change,1.0074416125430616,0,0.5000450608349638,0.03532063911325167,0.3532843255325133,1.0010711970817283,6.6043222481544035
36,23,female,214,165,115,change,catch,anti,3,1,2,0.5621703222604992,1,f,same,0.710578263615389,0,0.5000819433694232,0.0353225634194132,0.3532884948622268,1.0010859500953302,6.733550950976223
36,23,female,215,75,75,same,catch,anti,1,2,1,0.09564346712477345,0,j,change,0.2006451557035689,0,0.5003879080450133,0.03531967696017091,0.35331351084232665,1.0010381631600467,5.603420710730006
36,23,female,216,15,325,change,valid,anti,4,1,2,0.5026079158897119,1,j,change,0.9016759744285991,0.11330133585854568,0.5001175430334115,0.03531967696017091,0.3533199251955921,1.001049388278716,5.226386598875251
36,23,female,217,15,325,change,valid,anti,1,0,1,0.34600339255166546,0,j,change,0.2950705370453761,0.04534912018729345,0.4998770047659491,0.03529883031069403,0.3533366025158102,1.0010500297144063,4.43719818460977
36,23,female,218,135,135,same,valid,clock,5,1,1,0.6928829858302379,0,f,same,0.5390632541875675,0.11089886297137962,0.4996887434826931,0.035307810405811324,0.3533205666312824,1.0010420117723697,5.12009851164521
36,23,female,219,135,135,same,catch,anti,3,0,1,0.5626943749643942,0,f,same,1.0083149268107263,0,0.5001338996353297,0.03593385133535776,0.35272274885846855,1.0010269380409227,6.9577342193265395
36,23,female,220,75,75,same,valid,clock,5,0,1,0.3444475910409892,0,j,change,0.7999975625452862,0.0484201989321478,0.500438902157839,0.035350786576145765,0.35328913629791714,1.0010349559829592,4.896841475981546
36,23,female,221,105,105,same,valid,clock,2,0,1,0.3133578596844018,0,f,same,0.9576758487073675,0.051485660361152624,0.4999350546677306,0.03529113308604792,0.35333147103256124,1.0010503504322514,5.073113370175179
36,23,female,222,165,165,same,valid,clock,2,2,2,0.5222037667008408,1,f,same,0.4037354630700065,0.2967855219290945,0.5002471129796504,0.03532320485510354,0.35327085538938263,1.0010452189490024,4.8026094874066985
36,23,female,223,135,135,same,catch,anti,5,1,2,1.9065730128249925,1,j,change,0.9346309998663855,0,0.5003830972796095,0.035316149065693025,0.35330228572320266,1.0009419478533346,8.170934831127852
36,23,female,224,75,75,same,valid,anti,3,1,1,0.39747505377636116,0,j,change,0.3935876346654368,0.11484654847451745,0.5004417886166266,0.03525841988175671,0.3533770129442928,1.0010404081835986,4.602692681574808
36,23,female,225,15,325,change,catch,anti,3,1,1,0.3028873892840238,0,j,change,0.9909634583887055,0,0.49963261788707314,0.03531005542981802,0.3532846462503585,1.0010891572724177,6.5801661125196915
36,23,female,226,105,55,change,valid,anti,4,0,1,0.29473538705951796,0,j,change,0.7367388848069822,0.05440560456405075,0.5001788001118257,0.03530428251133344,0.35333852682197175,1.0010394460305179,4.838393884298512
36,23,female,227,75,25,change,valid,anti,1,2,2,0.4428681526374021,1,j,change,0.5511722712617484,0.2952812270596149,0.4997711679288841,0.03536008738910823,0.35327694902525764,1.0010856293783945,4.7557410871754655
36,23,female,228,75,75,same,valid,anti,1,0,1,1.9955166874224233,0,j,change,1.2446181166365022,0.057218045785298294,0.49915699355369725,0.03532833633789778,0.3533266602671574,1.0010570855038168,7.1103342615974725
36,23,female,229,15,15,same,valid,anti,3,1,1,0.3244319207751687,0,j,change,0.29344706410211074,0.11862220270685593,0.499447884498295,0.03532320485464879,0.35332762242069293,1.0010109021563949,4.378286193712938
36,23,female,230,45,45,same,catch,anti,2,2,2,1.433052908476384,1,f,same,0.803299030438211,0,0.4999206223719739,0.03533122279714007,0.3532804769197355,1.0010788943063744,7.5468647119778325
36,23,female,231,45,355,change,catch,anti,5,2,1,0.33417596560866514,0,j,change,0.1411138589487564,0,0.4999947081582832,0.03532192198417761,0.35330292715843825,1.0010673484694053,5.779867716782064
36,23,female,232,105,155,change,valid,clock,5,2,2,1.033774459133383,1,j,change,0.7137145618980867,0.29382075982108474,0.49990619007621717,0.03530396179348827,0.35335520414173516,1.001032390241562,5.591381289394121
36,23,female,233,105,155,change,valid,clock,1,1,2,1.1834591776091656,1,j,change,0.7789921574903929,0.1226654051842616,0.5002830333605743,0.035348541552593815,0.35331735945419496,1.0010115435920852,5.780750652580082
36,23,female,234,105,55,change,catch,anti,2,0,2,1.3101667186765553,1,j,change,0.79158962760539,0,0.49924936024854105,0.03536521887190247,0.3533109451004748,1.0010429739254505,7.45134728690482
36,23,female,235,165,165,same,valid,clock,1,2,2,0.7729565712966178,1,j,change,1.1345150924935297,0.2922679509088555,0.5007326795607696,0.035334750691617955,0.35327342113077975,1.0010843465074686,5.6979753412997525
36,23,female,236,45,45,same,valid,clock,1,2,3,0.9065781443082415,1,f,same,2.1494647061408614,0.2907265612821143,0.5002682803469725,0.035319356242780486,0.35327887333141916,1.0010715177995735,6.899506319261036
36,23,female,237,75,125,change,valid,clock,2,2,2,0.5713720334815662,1,j,change,0.6613683035348004,0.2891848693955098,0.49908258704999753,0.0353793304507235,0.35332249093744394,1.0010365595717303,5.025110270759342
36,23,female,238,75,25,change,valid,anti,1,0,2,1.339218930554125,1,j,change,0.7734168011811562,0.06024555581152838,0.4999975946170707,0.03533282638545643,0.3532820805085066,1.001062216986611,5.898271876875242
36,23,female,239,15,15,same,valid,clock,2,1,2,0.4256138616747194,1,f,same,0.6875346976448782,0.12035219005151243,0.4994097190933644,0.03531967696062566,0.35329651280426333,1.0010590098099783,4.908393406429241
36,23,female,240,45,355,change,valid,anti,4,2,2,0.828835214289029,1,j,change,0.7486535469611226,0.2877031803093833,0.49973492682966025,0.03533859930439576,0.3533016442875123,1.0010561233502813,5.355841407668322
36,23,female,241,15,65,change,valid,clock,3,1,2,0.4907808096645567,1,j,change,0.6245178410440531,0.11811047055919749,0.49998284160346884,0.03536297384835052,0.35326732749490475,1.0010519540205678,4.896598692690532
36,23,female,242,135,135,same,valid,anti,3,1,2,0.7168345035788661,1,f,same,0.8139895131730555,0.1160041967649512,0.5001547462848066,0.03533346782114677,0.3532740625664701,1.0010821014834619,5.4745685304746985
36,23,female,243,75,75,same,valid,clock,5,1,2,0.6912832459966012,1,f,same,0.6581935191293269,0.11398433221723696,0.49944275301504604,0.03529947174592962,0.3533019650053575,1.0010795357420648,5.2256155935506285
36,23,female,244,165,115,change,valid,anti,1,0,2,0.5578656494353709,1,f,same,0.7263251814379146,0.05713702947403801,0.5005184401447877,0.035317111219228536,0.35328977773315273,1.001043294642841,5.167758763851452
36,23,female,245,15,325,change,catch,anti,5,2,2,0.35299952822470004,1,j,change,0.7205400757598,0,0.5005758486108789,0.035313262606450735,0.3533125486892459,1.0010516333027226,6.486804872471566
36,23,female,246,105,105,same,valid,anti,2,2,2,0.5062499859686795,1,f,same,0.5690368879868402,0.28628365717640913,0.5008439685989288,0.035313583324295905,0.3532968335221085,1.001074724976661,4.9450036513708255
36,23,female,247,135,135,same,valid,clock,3,2,3,1.2466011141091258,1,f,same,0.6017715803718602,0.284910752601698,0.4992586610615035,0.03533924073963135,0.35330004069919596,1.0010724799526542,5.614150321022407
36,23,female,248,75,75,same,valid,anti,2,2,3,0.37672814717871006,1,f,same,0.5769098658215626,0.2834589955083966,0.5003173501536367,0.03527830437860757,0.35336065634237457,1.001048746843935,4.779603445405883
36,23,female,249,75,75,same,valid,clock,5,2,3,0.2794201552464983,1,f,same,0.7452725410817038,0.2820260773629444,0.4998138233818281,0.03530332035825268,0.3533032478758287,1.0010862708131754,4.7906961081225745
36,23,female,250,135,135,same,valid,clock,1,1,3,0.2518583184705676,1,f,same,0.6060441814274782,0.1119097994009466,0.5000575688254685,0.03533667499777948,0.3533199251960468,1.0009781889521037,4.684755037432751
36,23,female,251,135,85,change,valid,anti,1,2,2,1.3265637312556464,1,j,change,0.5016444799512101,0.28059706349413405,0.5035764833110079,0.0353248084434199,0.3533026064405931,1.001037521724811,5.583063155406762
36,23,female,252,75,25,change,valid,anti,3,0,2,0.6549295752060971,1,f,same,0.6908515599866405,0.05421196336626616,0.4997487176906361,0.035319035524935316,0.35330581361768054,1.00105484047981,5.179042253593252
36,23,female,253,75,25,change,catch,anti,1,1,2,0.2950169771906985,1,f,same,0.48136999051030216,0,0.4999360168212661,0.03535142801138136,0.35330004069919596,1.0010429739254505,6.074449159350479
36,23,female,254,165,215,change,valid,clock,5,2,2,2.0357933769873853,1,j,change,0.49034944437289596,0.2791610038188175,0.49985455452815586,0.03531390404168633,0.3533228116552891,1.0010744042588158,6.298476238186595
36,23,female,255,15,15,same,catch,anti,2,2,1,0.38180318389322565,0,f,same,2.436288308525036,0,0.49914288197533097,0.03531967696017091,0.3533561662948159,1.001059651245214,8.099194132662433
36,23,female,256,105,105,same,valid,anti,5,1,2,0.9591700724213297,1,f,same,0.9022481347860776,0.1098388613503734,0.5002423022142466,0.03528568088540851,0.35334462045784676,1.0010474639730091,5.6626915847205055
36,23,female,257,15,15,same,valid,clock,2,2,2,0.3065371565876376,1,f,same,0.4033839564826849,0.2777775691987945,0.49932312531655043,0.03530556538180463,0.3533366025153555,1.001057406221662,4.484097053021742
36,23,female,258,105,55,change,valid,anti,3,1,2,0.3232103070968151,1,f,same,0.7034695560337241,0.10785360377506008,0.49931542809235907,0.035363615283586114,0.3532872119917556,1.0010352767008044,4.849120608132125
36,23,female,259,165,115,change,valid,anti,2,0,2,0.35563967624148063,1,f,same,0.7911977105886763,0.05127209349378811,0.49996039136522086,0.03536072882479857,0.3532913813214691,1.0010628584218466,4.979706908932258
36,23,female,260,75,75,same,valid,clock,3,1,2,0.25661552395513354,1,f,same,0.8109574481391064,0.10597623072982305,0.49968072554065657,0.035307489687966154,0.35332441524360547,1.0010400874662082,4.872761671157605
36,23,female,261,15,65,change,valid,clock,4,2,2,2.4372806090559607,1,j,change,0.716160354996191,0.2764493018631791,0.5001175430329567,0.03532737418481702,0.35327759046049323,1.0010750456945061,6.92260953872119
36,23,female,262,165,165,same,valid,anti,1,0,1,0.4888488063047589,0,j,change,0.09117234181940148,0.048374734279122145,0.4999504491170228,0.03536553959020239,0.35328945701530756,1.001031107371091,4.366645424465332
36,23,female,263,45,45,same,catch,anti,4,2,2,0.5225427652985672,1,f,same,1.1344689091461078,0,0.5003398003918846,0.03530845184104692,0.353294909215947,1.00102373086429,7.016845055190515
36,23,female,264,15,15,same,valid,clock,3,2,2,4.199053433811969,1,f,same,0.6169152282213872,0.27516274715665734,0.5006553865978276,0.03529979246377479,0.3533080586412325,1.0010737628235802,8.69018318432245
36,23,female,265,165,165,same,valid,clock,4,2,2,0.8127066424162877,1,j,change,0.7501025494811984,0.27390570124574093,0.49915603140107123,0.03534276863365449,0.3533128694066363,1.001053236891039,5.355292659702172
36,23,female,266,45,45,same,catch,anti,5,1,1,0.26071718248249454,0,j,change,0.5126704333888483,0,0.49964576731235866,0.035329298490978545,0.3532913813214691,1.0010570855038168,6.0153200425784235
36,23,female,267,105,105,same,valid,anti,2,0,1,0.019822918935005873,0,j,change,0.17410288046175992,0.051077632517656124,0.5002564137926129,0.03531390404168633,0.3533074172059969,1.0010301452175554,3.9198821554923597
36,23,female,268,45,355,change,valid,anti,5,2,2,0.3339950808322101,1,j,change,0.5167573389030622,0.2725622114149342,0.4991913103463048,0.035393762746480206,0.3532945884981018,1.0010692727760215,4.637193566275073
36,23,female,269,75,75,same,valid,anti,5,2,2,1.401506475129736,1,f,same,3.681886538420258,0.27122404807122047,0.49923332436401324,0.03534886226998424,0.35330902079431326,1.001073442105735,8.912247150182793
36,23,female,270,105,105,same,catch,anti,1,1,1,0.4229111737081439,0,f,same,1.2875567630221667,0,0.4997493591258717,0.03532544987865549,0.35334269615168523,1.0010558026328908,6.98061486071083
36,23,female,271,135,185,change,valid,clock,1,0,1,0.24994010597174565,0,j,change,0.5416148841231916,0.05366722620189471,0.5007644306119801,0.03532544987865549,0.3533054928993806,1.0010041670848295,4.55582363990834
36,23,female,272,15,15,same,valid,clock,3,0,1,1.0588032676000694,0,j,change,0.28458820009063857,0.056151590955426295,0.5003940016813431,0.035328657055288204,0.35330517218244495,1.0010384838778918,5.132875583666191
36,23,female,273,135,85,change,valid,anti,5,0,2,0.8462841808886878,1,j,change,0.8992067689391661,0.05880339259505965,0.49942094421203365,0.035329939926668885,0.35332601883192183,1.0010429739254505,5.508180706458006
36,23,female,274,135,185,change,valid,clock,3,1,2,0.7522782982850913,1,j,change,0.5793242285858469,0.10416902839878013,0.5000078575835687,0.03529594385145174,0.3533276224202382,1.001071197082183,5.132177381256952
36,23,female,275,45,355,change,valid,anti,3,2,2,0.6819009707164696,1,j,change,0.7437202674655055,0.26987652106209403,0.500153142696945,0.03532095983109684,0.35325353663438364,1.0011456035858828,5.203631999543177
36,23,female,276,15,325,change,valid,anti,5,1,2,0.43682422778420005,1,j,change,0.94732468528764,0.10230990147207833,0.49922049565611815,0.035337957868705416,0.35331800088943055,1.0010503504322514,5.0842935888213105
36,23,female,277,75,75,same,valid,clock,3,0,1,0.016932611119955254,0,j,change,0.18988796368967087,0.056111430302059034,0.5002865612550522,0.03530171676993632,0.3533115865361651,1.001059651245214,3.895661876320446
36,23,female,278,165,215,change,valid,clock,3,2,2,0.3115608784714823,1,j,change,0.536653702188687,0.2685370955638763,0.5003866251740874,0.03530620681749497,0.3533757300738216,1.0010426532076053,4.567704305987718
36,23,female,279,15,65,change,catch,clock,3,0,2,0.29450928108872176,1,j,change,1.8291706849922775,0,0.4998664210820607,0.03534886226998424,0.3533077379233873,1.0010564440681264,7.416832290626644
36,23,female,280,45,355,change,valid,anti,5,1,1,0.9133484947278703,0,j,change,0.8877263585359287,0.10045309596085793,0.5006136932984191,0.035300754616855556,0.35333147103256124,1.0010445775137669,5.557063213777383
36,23,female,281,15,15,same,valid,anti,2,0,1,0.24285192432216718,0,j,change,0.6849452230221686,0.05868462126243121,0.4994626375118969,0.03530684825273056,0.3533170387363498,1.0010670277520148,4.68424188912968
36,23,female,282,105,105,same,valid,clock,1,1,2,0.37898215109862576,1,f,same,3.9901918116283923,0.10354179082190992,0.49943409363731917,0.035329939926668885,0.3532743832838605,1.0010513125848775,8.158091049827817
36,23,female,283,45,95,change,valid,clock,2,0,1,0.6430752079772901,0,j,change,0.7093540841951835,0.0612757039102321,0.4998677039534414,0.03533571284469872,0.3533542419886544,1.0010307866532457,5.14418248579932
36,23,female,284,75,75,same,valid,clock,1,1,1,0.29707758834410924,0,j,change,0.18799123927556138,0.1017579418221698,0.49994916624609687,0.03532192198417761,0.35332184950220835,1.0010779321532937,4.237678106559542
36,23,female,285,75,25,change,valid,anti,4,1,2,0.35967302190147166,1,f,same,0.6961587963078273,0.10469180605721463,0.4991602007307847,0.035316790501383366,0.35330613433507096,1.0010519540205678,4.684195064347023
36,23,female,286,165,165,same,valid,anti,5,0,1,0.26748304285410995,0,f,same,0.7614402405129113,0.06375116666623853,0.49962139276794915,0.03535848380079187,0.3532747040017057,1.0010230894285996,4.825461584915956
36,23,female,287,15,15,same,valid,clock,5,2,1,0.27122421469857727,0,f,same,0.5030027193652131,0.26725431307945,0.5004347328276708,0.03529273667436428,0.3533353196448843,1.0010590098099783,4.579779647704527
36,23,female,288,165,165,same,valid,clock,4,1,1,0.328344035147893,0,f,same,1.2726911774093423,0.10296363370575454,0.4992920157010303,0.03531037614766319,0.3533186423251209,1.0010580476568975,5.367432465674483
36,23,female,289,135,135,same,valid,anti,5,1,2,0.2629747142964334,1,f,same,0.9096166236959107,0.1057750361234637,0.4998827776844337,0.035350786576145765,0.35329298490978545,1.0010801771773004,4.955781690034655
36,23,female,290,15,15,same,catch,anti,3,1,2,0.558713627006,1,j,change,0.945849383917448,0,0.49977469582290723,0.035313262606450735,0.35333980969244294,1.0010625377044562,6.780668548852191
36,23,female,291,75,75,same,valid,clock,1,0,1,0.27078419002918963,0,f,same,1.1487280176083914,0.06613171608903179,0.5006579523392247,0.03531101758244404,0.35329106060407867,1.0010926851668955,5.227010394780791
36,23,female,292,105,105,same,valid,anti,1,0,1,1.4432004161635632,0,f,same,0.7843317862980257,0.06867589898342139,0.5002336428365197,0.03531711121877379,0.3533138315597171,1.0010378424426563,5.956683548176898
36,23,female,293,165,165,same,catch,anti,4,0,1,0.6117199223735952,0,j,change,0.5151499018443246,0,0.49973845472413814,0.03530652753534014,0.3533247359609959,1.001074724976661,6.34510377943343
36,23,female,294,45,45,same,valid,clock,3,2,2,1.4519858358239617,1,f,same,2.6207263165224504,0.2720570954389727,0.5004921412942167,0.03534693796427746,0.35324070792648854,1.0010862708131754,8.006147516666715
36,23,female,295,45,95,change,valid,clock,5,1,2,0.294397350615327,1,j,change,0.6318651625865641,0.1041665640323038,0.5002499994388927,0.03532961920836897,0.35331190725355555,1.0010840257896234,4.708579230258238
36,23,female,296,45,45,same,catch,anti,1,2,1,1.3038700682836861,0,j,change,0.6140871396373768,0,0.4994985578932756,0.03535110729353619,0.35329394706332096,1.0010654241636985,7.181102544029272
36,23,female,297,75,75,same,valid,clock,1,2,2,1.0902278282246698,1,f,same,1.0254091796455214,0.27081030441107673,0.5002272284827995,0.03532448772557473,0.35330870007692283,1.0010503504322514,6.015937744847633
36,23,female,298,45,45,same,valid,clock,2,1,2,0.9791443701055869,1,j,change,0.7837124804400446,0.10250712984081782,0.4999866902157919,0.0353414857631833,0.3533016442875123,1.0010740835409706,5.485681398406086
36,23,female,299,165,165,same,catch,clock,5,2,1,0.2155479445682431,0,j,change,0.23082436954109653,0,0.4994985578932756,0.03534629652858712,0.35330613433507096,1.0010048085205199,5.661167213543649
36,23,female,300,165,115,change,catch,anti,4,2,1,0.4519136743438139,0,f,same,2.5239083812189165,0,0.5009671241919023,0.0353626531309601,0.3533131901244815,1.001050991867487,8.407119676126513
36,23,female,301,45,45,same,valid,anti,1,0,1,0.4967198598333198,0,f,same,1.1017900216388625,0.07124058622240317,0.5101393293857654,0.0353225634194132,0.3532705346719922,1.0010984580858349,5.401608142637542
36,23,female,302,105,55,change,catch,anti,2,0,1,0.28309365565883127,0,j,change,0.3813237109475267,0,0.4993109380448004,0.03535495590631399,0.35330709648815173,1.0010185993805862,5.897018191427833
36,23,female,303,105,105,same,valid,anti,4,2,1,0.35000883577231434,0,f,same,0.3688484342724223,0.2695486414585691,0.4998843812732048,0.03530909327673726,0.3532974749573441,1.0010644620106177,4.402328153849339
36,23,female,304,105,55,change,valid,anti,2,1,1,0.8418515417060917,0,f,same,0.30878667045999464,0.10084831844307846,0.49961786487347126,0.035329298490978545,0.3533221702195988,1.0010256551699968,4.88450122145332
36,23,female,305,15,65,change,valid,clock,4,0,1,0.27966839073769734,0,j,change,0.07131093676207456,0.07369332942988269,0.49970157219013345,0.03532865705574295,0.3533019650053575,1.0010567647859716,4.072169177298292
36,23,female,306,135,135,same,catch,clock,2,2,1,0.4001421420798579,0,j,change,0.3517715001921715,0,0.500065586767505,0.03531486619522184,0.35331671801895936,1.0010654241636985,6.015787328251463
36,23,female,307,105,105,same,valid,clock,3,0,1,0.25730923631681435,0,j,change,0.14716195313212665,0.07605178723858151,0.5002936170444627,0.03534597581074195,0.3532830426615874,1.001039766748363,4.190992194693536
36,23,female,308,45,45,same,valid,anti,2,0,2,0.8946743865549251,1,f,same,1.1593197192951266,0.07857138240825018,0.49901042556984976,0.03532448772557473,0.3533253773962315,1.0010195615341217,5.89717726740173
36,23,female,309,15,15,same,valid,anti,2,1,2,0.29443968535042586,1,j,change,0.7432796013608822,0.10360511731407751,0.49970093075489785,0.0353520694470717,0.35330388931106427,1.0010025634965132,4.790639982527409
36,23,female,310,105,105,same,catch,anti,4,2,1,0.33343735277048836,0,j,change,0.30234922500176253,0,0.49967880123449504,0.035326412031736254,0.3533019650053575,1.0010202029693573,5.90943445604853
36,23,female,311,105,105,same,catch,clock,2,1,2,1.092461306212499,1,f,same,1.6391762430298513,0,0.5002060611154775,0.03534052361010254,0.35327117610677305,1.0010718385174187,8.112047856210665
36,23,female,312,135,185,change,valid,clock,1,2,1,0.9248885586212054,0,f,same,0.30811701192487817,0.27394339576160237,0.4998321042899079,0.035337957868705416,0.353294909215947,1.001052274738413,4.991366279806243
36,23,female,313,45,95,change,valid,clock,1,2,2,2.079101490150606,1,j,change,0.6097629030336975,0.277948939917295,0.49908451135615906,0.03531646978308345,0.3533138315597171,1.0010250137347612,6.450206814802186
36,23,female,314,75,25,change,valid,anti,3,1,1,0.28044260323986236,0,j,change,0.24194333110835942,0.10200579271851355,0.49983787720839246,0.03530396179348827,0.35332569811407666,1.0010481054082447,4.237234874713522
36,23,female,315,45,45,same,valid,anti,2,2,2,0.6884862670290204,1,f,same,0.6264001331619511,0.27685436163207455,0.49963742865247696,0.03532512916126507,0.35327021395414704,1.001085950095785,5.16735626315176
36,23,female,316,75,125,change,valid,clock,4,0,1,0.2985952244494001,0,j,change,1.261301530111723,0.07601503859667944,0.5000569273897781,0.03531454547737667,0.35330132356966715,1.000974661057171,5.367723035900781
36,23,female,317,75,25,change,catch,anti,2,0,2,0.8801198971009399,1,f,same,1.1837516721420798,0,0.5002923341735368,0.03533603356254389,0.3533128694066363,1.00103591813604,7.3588054805522916
36,23,female,318,105,105,same,catch,anti,2,1,1,0.24002768435093458,0,f,same,0.9198135219066899,0,0.4996043947303406,0.03529273667436428,0.35334494117569193,1.001073442105735,6.533502009456697
36,23,female,319,75,75,same,catch,anti,4,0,1,0.2475687193777958,0,f,same,1.749853672554309,0,0.49971760807466126,0.035329619208823715,0.3532801562023451,1.0010651034458533,7.3934760249094325
36,23,female,320,105,55,change,valid,anti,2,0,2,1.4694303123756072,1,j,change,0.5250334588727128,0.07846342834404008,0.49995622203505263,0.035326091313891084,0.3533471861992439,1.001037521724811,5.744823215599354
36,23,female,321,135,85,change,catch,anti,5,2,1,0.2944865101326286,0,j,change,0.20245207916468644,0,0.4994373008144066,0.03530428251087869,0.35325963027025864,1.0011369442086107,5.803178761304935
36,23,female,322,135,135,same,catch,clock,4,0,1,0.7402003908264305,0,f,same,1.1661272729661505,0,0.4999206223719739,0.03530139605209115,0.3533244152431507,1.0010465018194736,7.287703010288169
36,23,female,323,75,125,change,valid,clock,2,0,2,0.9779814477642503,1,f,same,1.6800937265375069,0.07598035227375971,0.49964640874759425,0.035300433899010386,0.3533750886381313,1.0010400874662082,6.509546322378355
36,23,female,324,135,185,change,valid,clock,1,1,2,1.071059494093788,1,j,change,0.5379782662448633,0.10463674223443178,0.5000126683485178,0.03532801562005261,0.3532637995999721,1.0010827429186975,5.40325310366552
36,23,female,325,135,85,change,catch,anti,4,2,2,1.654301609970389,1,j,change,0.7034971377547663,0,0.4998712318474645,0.03533026064405931,0.3532955506516373,1.001006091390991,7.7705948062334755
36,23,female,326,45,355,change,valid,anti,4,0,1,0.17485528416091256,0,j,change,1.120771056639569,0.07359857753931334,0.5000171583965312,0.03534661724597754,0.35328689127391044,1.001059651245214,5.131949350979994
36,23,female,327,45,95,change,valid,clock,5,0,1,0.2406511595390839,0,j,change,0.5078404249893538,0.07576999881920439,0.49992415026645176,0.03532095983109684,0.3533010028522767,1.0010291830649294,4.520101141530631
36,23,female,328,45,45,same,valid,clock,5,2,2,0.6975054898848612,1,f,same,0.8274439409533443,0.27579386176830684,0.4997570563505178,0.03532769490266219,0.35330709648815173,1.0010583683747427,5.36762874490023
36,23,female,329,45,95,change,valid,clock,3,1,1,0.4566558060969328,0,j,change,0.6887091658227291,0.10308324843802662,0.5001338996353297,0.035363615283586114,0.35326508247089805,1.0010423324897602,4.967805075485558
36,23,female,330,105,105,same,valid,clock,5,1,1,0.6756036788883648,0,j,change,0.7298905999887211,0.10561369023171911,0.4998019568270138,0.035332505668066005,0.35333179174995166,1.0010420117723697,5.120628016550654
36,23,female,331,45,95,change,catch,clock,5,2,1,0.276962174876644,0,j,change,0.5519586710356634,0,0.4999350546677306,0.035329619208823715,0.35332024591343725,1.000988451918147,6.085816677127241
36,23,female,332,15,15,same,catch,anti,1,0,2,0.8733697518960071,1,j,change,0.8273371419627438,0,0.5006938727206034,0.03532512916081032,0.35326764821229517,1.001063499857537,6.993957037299879
36,23,female,333,75,25,change,valid,anti,2,1,1,0.06551845457670424,0,j,change,0.36418551978840696,0.10830368636058155,0.4996233170741107,0.035423268774138705,0.35332537739668624,1.0010590098099783,4.142462156114107
36,23,female,334,45,45,same,valid,anti,3,0,2,0.3837823327530714,1,f,same,0.3988053907514768,0.07808732255333185,0.5001124115501625,0.03525777844606637,0.35331671801895936,1.0010519540205678,4.826364725929125
36,23,female,335,15,325,change,catch,anti,1,0,1,0.39213285922687646,0,j,change,0.6973624497950368,0,0.49935423493298003,0.03526707925902883,0.3533215287843632,1.0010477846903996,6.368170757794815
36,23,female,336,15,15,same,valid,anti,4,0,1,0.1763616951466247,0,j,change,0.3200281461840859,0.07574360603448958,0.5001537841317258,0.03534212719841889,0.35329522993379214,1.0010561233511908,4.319613778929124
36,23,female,337,135,135,same,catch,anti,2,1,1,0.31976483696143987,0,j,change,0.7205314163820731,0,0.5003786072320509,0.03533892002178618,0.3532923434740951,1.001065744881089,6.333779879261783
36,23,female,338,165,165,same,catch,anti,2,2,1,0.6306534911564086,0,f,same,0.9857001603913886,0,0.4999392239978988,0.03534341006889008,0.35329715423995367,1.0010718385174187,6.981450651008345
36,23,female,339,45,355,change,valid,anti,2,1,2,0.9098786500480855,1,j,change,0.6101259554579883,0.11104491262365172,0.5002868819728974,0.035315828347847855,0.3533170387363498,1.0010458603846928,5.380009730574784
36,23,female,340,135,135,same,valid,clock,1,2,2,0.8536789686495467,1,f,same,0.961066476117594,0.2747590057356295,0.49945109167492774,0.035334109255927615,0.3532811183558806,1.0010718385174187,5.638176245274735
36,23,female,341,165,165,same,valid,anti,2,1,2,0.7604816153389038,1,f,same,1.0954035702934561,0.10947123329453716,0.49954794841687544,0.03535912523602747,0.3532788733318739,1.0010109021559401,5.650179746228787
36,23,female,342,45,45,same,valid,anti,5,0,2,0.3216766351069964,1,f,same,0.9520684206290753,0.07800037420324095,0.5001197880574182,0.03531775265400938,0.3532990785461152,1.001042332490215,5.03776547005873
36,23,female,343,75,25,change,catch,anti,5,1,1,0.722332566924706,0,j,change,1.4237027049648532,0,0.5005328724400897,0.03530332035825268,0.35330741720645165,1.0010837050713235,7.464785037364891
36,23,female,344,75,75,same,valid,anti,3,2,1,1.1566362743897116,0,j,change,1.0798878899249758,0.27365715762425,0.5004465993815757,0.03531903552539006,0.35326861036537593,1.0010317488067813,6.063115958366325
36,23,female,345,105,105,same,valid,anti,3,2,2,0.515840407028918,1,f,same,1.1399676139280928,0.27740187703752683,0.5002384536019235,0.03532095983155159,0.3532904191679336,1.0010833843543878,5.473815164622465
36,23,female,346,15,15,same,valid,clock,1,2,2,0.7248543701152812,1,f,same,0.8105536645689426,0.27638759996568196,0.49986642108160595,0.03529690600498725,0.353355845576516,1.0010586890921331,5.332195854595739
36,23,female,347,165,165,same,catch,anti,1,1,1,0.7258931747110182,0,j,change,0.7550339046701993,0,0.5001775172413545,0.03534629652858712,0.35328272194328747,1.0010561233502813,6.781597988715475
36,23,female,348,105,105,same,valid,clock,5,0,2,1.4652410979197157,1,j,change,0.7834020257168959,0.0757185969396583,0.5000854712643559,0.035333467820237274,0.35330068213443155,1.0010580476564428,6.051030032966082
36,23,female,349,75,75,same,valid,anti,1,2,2,0.376624555365197,1,f,same,1.9048805855791215,0.2754009929885438,0.49946744827684597,0.035354314471078396,0.3532599509881038,1.0010644620106177,6.109128042367956
36,23,female,350,75,75,same,catch,clock,4,2,2,0.6152693050398739,1,j,change,0.6188356857437611,0,0.5003090114933002,0.035309734711518104,0.3533215287843632,1.0010378424422015,6.604751368421603
36,23,female,351,75,125,change,valid,clock,4,1,1,0.1850861784469089,0,j,change,0.7766124322361065,0.10797108743234918,0.5046775071377851,0.03534341006889008,0.35325193304561253,1.0010737628235802,4.772188131713847
36,23,female,352,165,165,same,valid,anti,4,1,2,0.7588619910093257,1,f,same,0.3955270145324903,0.11061300353116148,0.4992108741253105,0.03531262117121514,0.3533180008898853,1.001066065598934,4.95511908728804
36,23,female,353,15,325,change,catch,anti,5,2,2,0.2935035104155759,1,j,change,0.3443087202822426,0,0.4993827788066483,0.03534405150458042,0.35331190725355555,1.0010580476573523,5.814286818470464
36,23,female,354,105,155,change,valid,clock,4,1,1,0.5824816942358666,0,f,same,0.6757925816073111,0.1090975307297378,0.500610165404396,0.035333788538082445,0.35329747495779884,1.001066065598934,4.979685741564936
36,23,female,355,105,105,same,catch,clock,4,0,1,0.2563134078918665,0,j,change,0.7197293014414754,0,0.5003228023542761,0.03533571284424397,0.3533048514636903,1.001047143255164,6.2398214628765345
36,23,female,356,135,85,change,catch,anti,3,0,1,0.1994601038413748,0,j,change,0.3483298786686646,0,0.4997852795077051,0.03532288413680362,0.35327598687308637,1.0010760078466774,5.791509768900141
36,23,female,357,105,105,same,valid,anti,4,1,2,0.3912245867304591,1,f,same,0.7102835240584682,0.11168220212065709,0.5005646234922096,0.035265154952867306,0.3532933056276306,1.0010445775142216,4.87396628679835
36,23,female,358,75,75,same,valid,anti,2,0,2,0.8443922672404369,1,f,same,0.9254636054374714,0.07351867061200432,0.4992390972820431,0.035298188875458436,0.35333980969244294,1.0010721592352638,5.6141342851378795
36,23,female,359,15,325,change,valid,anti,3,0,1,0.9914002758814604,0,j,change,0.5523326278616878,0.07127278370584386,0.49984974376275204,0.03526258921192493,0.3533712400258082,1.0010205236876573,5.356114979857921
36,23,female,360,135,85,change,valid,anti,3,2,2,0.5065838530827023,1,j,change,0.5511969665230936,0.27443483576649913,0.4997775822821495,0.03532673275003617,0.3533414132807593,1.0010192408162766,4.861614165715764
36,23,female,361,135,135,same,valid,anti,2,1,2,0.8605442515035975,1,f,same,1.2120950979269765,0.11020507125436765,0.49973171965302754,0.035348541552593815,0.3533170387363498,1.0010541990450292,5.814769498592796
36,23,female,362,45,355,change,catch,anti,3,0,1,0.2257304104832656,0,j,change,0.5164151331282483,0,0.4999815587334524,0.03530909327673726,0.35326508247089805,1.0011064760274166,6.074165003477901
36,23,female,363,15,15,same,valid,clock,2,0,1,0.8370317962726403,0,j,change,0.6458013083365586,0.07331879770569613,0.5007493568800783,0.03530332035734318,0.3533337160561132,1.001053557609339,5.333113748622054
36,23,female,364,45,45,same,catch,clock,2,1,1,0.4359284632773779,0,j,change,0.5291790557230343,0,0.5002714875236052,0.03534597581074195,0.3532923434750046,1.001043615360686,6.310738558317098
36,23,female,365,45,45,same,valid,clock,3,0,2,0.36124004853081715,1,f,same,1.5925621719261471,0.07528673594501008,0.49936642220473004,0.03531807337185455,0.3533414132807593,1.0010468225373188,5.767407513838407
36,23,female,366,165,215,change,valid,clock,4,2,2,1.03026933550791,1,j,change,1.1174481006619317,0.27340260664381477,0.49972883319424,0.03532256341986795,0.35326155457642017,1.0010914022959696,5.792085136435162
36,23,female,367,75,25,change,valid,anti,2,2,2,0.24102928569391224,1,j,change,1.7863391583150587,0.2723767711504376,0.499504972246541,0.035334109255927615,0.3533138315597171,1.001043294642841,5.767651900717283
36,23,female,368,135,135,same,valid,clock,4,1,2,0.3165069866736303,1,j,change,0.5429663884651745,0.10875141907574087,0.5002695632183531,0.03530684825273056,0.3532945884981018,1.0010750456940514,4.555692145655485
36,23,female,369,45,45,same,catch,anti,3,2,2,0.4579476569488179,1,f,same,0.3855632780805536,0,0.5000004810772225,0.03532737418481702,0.35331639730156894,1.0010506711496419,6.144862407300934
36,23,female,370,15,65,change,valid,clock,1,1,1,0.27316936748411536,0,j,change,0.8163791806746303,0.10737709872771461,0.5007503190336138,0.03523757323182508,0.35335520414173516,1.001069593493412,4.898005039757663
36,23,female,371,45,45,same,catch,anti,2,1,1,0.0022520796137541765,0,j,change,0.10103409004477726,0,0.4990181227940411,0.035335071409463126,0.3532933056276306,1.0010904401433436,5.355125886503629
36,23,female,372,15,15,same,catch,anti,1,1,1,0.12254205971930787,0,j,change,0.7146164200403291,0,0.5003683442655529,0.035307168969666236,0.35327951476756425,1.0010654241632437,6.216010740194179
36,23,female,373,105,105,same,catch,anti,2,0,1,0.2184302344412572,0,j,change,0.5185588101630856,0,0.4999203016541287,0.03534405150458042,0.3532779111783384,1.0010593305278235,6.027388649223212
36,23,female,374,135,185,change,valid,clock,3,0,1,0.2615690086640825,0,j,change,0.8044273152690948,0.07319247608884236,0.5001932324075824,0.03536265313050535,0.3532548195044001,1.0010683106229408,4.908905913296621
36,23,female,375,135,135,same,valid,clock,1,0,1,0.2538381087661037,0,j,change,0.3708089815063431,0.07511738390704988,0.49947322119533055,0.035342768634109234,0.35330517218244495,1.0010647827275534,4.354184259368594
36,23,female,376,75,25,change,valid,anti,2,0,1,1.5164674101124547,0,f,same,3.536554279705342,0.07716231865056092,0.500000481076313,0.035267399976874,0.3533327539034872,1.001076970000213,8.807371182938368
36,23,female,377,75,25,change,catch,anti,3,2,1,0.27089419619642285,0,j,change,0.540559081489846,0,0.49916918082635675,0.035302678922562336,0.3533224909378987,1.0010362388538852,6.09736219322167
36,23,female,378,165,165,same,valid,clock,1,0,2,0.445403105252808,1,f,same,1.2287971130281221,0.07921458854302722,0.4998914370626153,0.03533122279714007,0.3532631581647365,1.0011074381809522,5.520671377582403
36,23,female,379,105,55,change,valid,anti,4,1,2,0.4796727524981179,1,f,same,0.9575838027303689,0.1098204795970361,0.49967270759771054,0.03537067107299663,0.3532577059640971,1.0011100039218945,5.262168109308732
36,23,female,380,165,165,same,valid,clock,5,0,2,0.5525032496716449,1,f,same,0.5066210563345521,0.07710680183204556,0.4995030479403795,0.035302999640407506,0.35332056663173717,1.001043615360686,4.837608767395068
36,23,female,381,105,105,same,valid,anti,1,2,2,0.22862969839388825,1,f,same,0.6505944342015937,0.27134970118493407,0.499917094477496,0.035353993753233226,0.3533224909369892,1.0010516333031774,4.696795420921262
36,23,female,382,135,135,same,valid,anti,1,0,2,0.24693369835313206,1,f,same,0.6579731860765605,0.07510182726410262,0.4997798273061562,0.03529658528714208,0.3533693157196467,1.0010320695246264,4.719680552352656
36,23,female,383,75,125,change,valid,clock,5,2,1,0.9890093255080501,0,f,same,0.307879680834958,0.2703139906847227,0.5002512823093639,0.03532801562050736,0.3533125486892459,1.0010391253126727,5.238643466804206
36,23,female,384,15,15,same,valid,anti,5,0,2,0.4968577684403499,1,j,change,0.636752900169995,0.07314924229069186,0.49996680571894103,0.035335392127308296,0.3533058136172258,1.001013467897792,4.8495975153355175
36,23,female,385,105,55,change,valid,anti,5,1,2,1.0739831565488203,1,j,change,0.5964117463490766,0.10842995838448288,0.5001005449958029,0.035315828347847855,0.3532253134781058,1.0011375856438463,5.509678458066446
36,23,female,386,75,25,change,catch,anti,5,2,2,0.7896640385997671,1,j,change,0.756881559278554,0,0.49979714606160996,0.03526643782424799,0.3532747040017057,1.001076970000213,6.8627857474348275
36,23,female,387,45,45,same,valid,clock,4,1,1,0.6450084942080139,0,f,same,1.3345909742993172,0.10711080537121931,0.5007439046803484,0.03531262117121514,0.3533247359619054,1.0010445775142216,5.7928381815690955
36,23,female,388,135,135,same,catch,anti,1,2,1,0.44680464155499067,0,j,change,0.9233369264402427,0,0.499220174938273,0.03530107533424598,0.35331960447729216,1.0010471432560735,6.674133829718812
36,23,female,389,75,75,same,catch,clock,3,1,1,1.9604555089199494,0,f,same,1.530451342797278,0,0.5006518587033497,0.03532192198417761,0.35329651280426333,1.0010628584223014,8.92513839770072
36,23,female,390,75,25,change,catch,anti,5,1,1,0.8994652673964083,0,f,same,0.3688057788194783,0,0.49999342528735724,0.03531743193616421,0.3533180008898853,1.001043615360686,6.67454915912549
36,23,female,391,165,115,change,valid,anti,5,2,2,2.1415843517988833,1,j,change,0.513426685700324,0.27392018215008684,0.50037796579727,0.03531807337185455,0.35330966222954885,1.001053878327184,6.475440241154502
36,23,female,392,105,105,same,valid,clock,1,2,2,0.48540301545199327,1,f,same,1.6839112291918354,0.2729481781102304,0.49934493412001757,0.035362011695724505,0.35327598687308637,1.0010250137347612,6.003155220626468
36,23,female,393,45,95,change,valid,clock,4,0,1,0.6212365783649147,0,j,change,0.6238485032272365,0.07114128491715113,0.4996823291285182,0.0353286570561977,0.35327406256601535,1.0010788943063744,5.049251653379542
36,23,female,394,45,95,change,valid,clock,4,1,2,0.38746353039005044,1,j,change,0.5530292266821561,0.1094632898627297,0.5005405696656453,0.03528760519111529,0.3533170387372593,1.0010766492823677,4.732779624933755
36,23,female,395,15,325,change,valid,anti,2,0,2,3.1437565727082983,1,j,change,0.9715510580963382,0.07297830651271381,0.4990059355222911,0.03538349978043698,0.3532926641919403,1.001055802632436,7.946093129361543
36,23,female,396,165,115,change,catch,anti,5,1,1,0.23534424393528752,0,j,change,0.3520963872115317,0,0.5001201087743539,0.03533218495067558,0.3532400664907982,1.0010981373679897,5.850743760356636
36,23,female,397,165,165,same,valid,anti,3,1,2,0.31194253252124327,1,f,same,1.9597165753639274,0.10813061076792047,0.5005229301923464,0.035333788538082445,0.3532981163934892,1.001059330526914,6.134037864571837
36,23,female,398,165,215,change,valid,clock,5,1,2,1.0145769396931428,1,j,change,0.6373147975618849,0.10686225306431457,0.49940651191627694,0.035302037486871995,0.35330613433598046,1.0010676691872504,5.450155820688451
36,23,female,399,45,45,same,valid,clock,2,0,2,2.1811474445057684,1,f,same,0.927509463577735,0.07100847390214898,0.49973588898228627,0.03531839408969972,0.3533048514645998,1.0010529161736486,7.00481108605527
36,23,female,400,105,55,change,valid,anti,1,1,2,0.2556094325645972,1,j,change,0.6067731727343926,0.10564084256708728,0.4996929128128613,0.03534629652858712,0.35330613433507096,1.0010176372279602,4.70849488150634
36,23,female,401,15,65,change,valid,clock,2,2,2,1.7028557023768371,1,f,same,1.4794418357623726,0.2719782639152538,0.5047753260332684,0.035347579399058304,0.35330421002890944,1.001036880288666,6.915331492200494
36,23,female,402,165,215,change,catch,clock,4,0,1,0.05734368139655999,0,j,change,0.8790749988693278,0,0.49968264984636335,0.03532609131434583,0.3532692518010663,1.001078252870684,6.227172357213931
36,23,female,403,105,105,same,valid,anti,5,2,2,0.29590376160103915,1,f,same,0.23918740400495153,0.27100370821011177,0.5000024053824745,0.03533603356208914,0.3532891362974624,1.0010538783262746,4.519460989023173
36,23,female,404,105,105,same,catch,anti,3,0,2,0.8306286676070158,1,f,same,0.6970898397603378,0,0.5005004799540984,0.03534212719841889,0.35330196500490274,1.0010599719626043,6.804743542910728
36,23,female,405,105,155,change,valid,clock,3,1,2,0.5032304289243257,1,j,change,0.5650102773979597,0.10445070892570893,0.5004671253145716,0.03531839408969972,0.35332537739668624,1.0010339938298785,4.779601521099721
36,23,female,406,165,165,same,valid,anti,4,0,1,0.037580415952106705,0,j,change,0.2622909441824959,0.06902996017182728,0.4993433305317012,0.035353673035388056,0.3533160765828143,1.0009951869897122,4.036050271856766
36,23,female,407,105,105,same,catch,clock,5,1,1,0.2458118278764232,0,j,change,0.09001326809084276,0,0.5004347328276708,0.03533924073963135,0.35329298490978545,1.001045218949912,5.568685381398609
36,23,female,408,105,105,same,catch,clock,1,0,1,0.2925868992597316,0,f,same,0.531304772567637,0,0.5002390950376139,0.03535752164771111,0.35331511443018826,1.001032390241562,6.133085974470305
36,23,female,409,15,15,same,valid,anti,5,1,1,0.29366418997778965,0,f,same,0.23979612617949897,0.10321888571252966,0.5002240213061668,0.035377406144107226,0.3533282638563833,1.0010522747388677,4.355316713528737
36,23,female,410,135,85,change,valid,anti,2,2,2,0.7146484918093847,1,j,change,0.7177103835874732,0.2700179197700568,0.4996175441556261,0.03532480844296515,0.35330741720645165,1.0010609341161398,5.202248102714293
36,23,female,411,135,135,same,catch,anti,1,2,1,0.16335659284868598,0,j,change,1.1347748738216978,0,0.5002034953740804,0.035315186912157515,0.35329394706332096,1.0010259758873872,6.545450026251274
36,23,female,412,45,355,change,valid,anti,3,0,2,0.6980250525411975,1,j,change,0.8047560509012328,0.07088056041836094,0.5003766829258893,0.035316469783538196,0.3533192837603565,1.001031107371091,5.2976712367863
36,23,female,413,165,165,same,valid,anti,1,1,2,0.3131763334722564,1,f,same,0.6840956418636779,0.10523197728894489,0.4994751455014921,0.03532480844296515,0.3533289052911641,1.0009108382373597,4.896176628211833
36,23,female,414,15,15,same,valid,anti,2,2,2,0.666462262593086,1,j,change,0.6215088676835876,0.26903000535453303,0.5003202366124242,0.03533603356299864,0.35329747495779884,1.0010766492832772,5.049827983067189
36,23,female,415,165,165,same,valid,clock,1,1,2,0.3320201013020778,1,f,same,0.6312792113685646,0.10408056551200345,0.5006197869352036,0.03528215299047588,0.3533045307467546,1.0010859500953302,4.779823137023413
36,23,female,416,15,325,change,valid,anti,5,2,2,0.29950317622751754,1,j,change,1.1066258029568417,0.26808254696650136,0.49989528567493835,0.03533058136144973,0.3533221702200535,1.0010416910545246,5.2267249560372875
36,23,female,417,135,135,same,valid,anti,2,2,2,0.6910032594532822,1,f,same,0.9565039462713685,0.26716882222239774,0.49947546621933725,0.03533186423192092,0.35332986744469963,1.0010586890921331,5.426380697669629
36,23,female,418,15,65,change,valid,clock,5,0,1,1.2435767463002776,0,j,change,0.7156481688471104,0.06894216745560577,0.49947995626735064,0.03533795786825067,0.3532586681176326,1.0010933266021311,5.80326054431589
36,23,female,419,135,185,change,valid,clock,4,2,2,0.27019471091625746,1,j,change,0.6400591788278689,0.2662824096576859,0.5000489094472869,0.035329298490978545,0.35327277969554416,1.0010872329667109,4.672804454897232
36,23,female,420,105,55,change,valid,anti,1,0,2,0.22397448113497376,1,j,change,0.9778489913587691,0.07075724226659683,0.5000822640877232,0.03530813112320175,0.35330164428796706,1.0010529161736486,4.87341112447848
36,23,female,421,45,95,change,valid,clock,2,2,2,0.3331907208676057,1,j,change,0.5895535192830721,0.2654173900272909,0.5000665489205858,0.035329939926668885,0.3532557816579356,1.001065744881089,4.708751455657875
36,23,female,422,105,155,change,valid,clock,2,0,2,0.40373738737616804,1,j,change,0.6820934013294391,0.06885787819427552,0.49975705635097256,0.035365539589292894,0.3532689310832211,1.0010907608611888,4.908781154115786
36,23,female,423,135,85,change,catch,anti,5,2,2,0.409379773683213,1,j,change,0.464449245943797,0,0.49963358003969915,0.035272210741823073,0.3533526383998833,1.001077290718058,6.250692830388289
36,23,female,424,105,55,change,valid,anti,5,0,1,0.23372141242816724,0,j,change,0.5829018344084034,0.06707081812440507,0.5004905377054456,0.035329939926668885,0.3532788733318739,1.0010404081840534,4.649962620353108
36,23,female,425,135,135,same,valid,anti,3,0,1,0.5741289227389643,0,f,same,0.8801195763835494,0.0687768879905521,0.4996541059726951,0.035321601266332436,0.353295871368573,1.0010474639730091,5.261303454418339
36,23,female,426,75,125,change,valid,clock,1,2,2,0.5896375473175794,1,j,change,0.7008611590672444,0.2645682556435715,0.4997965046259196,0.035347900116903475,0.35328400481375866,1.001051954020113,5.0971736112196595
36,23,female,427,165,115,change,valid,anti,5,0,2,0.5415029536497968,1,f,same,1.4706727727034377,0.07052330120567388,0.4992374936946362,0.035370991789932305,0.3533093415126132,1.0010131471799468,5.862260411860007
36,23,female,428,45,95,change,catch,clock,2,1,2,0.6381768867095161,1,f,same,0.8888786971929221,0,0.4996152991316194,0.0353331471033016,0.3532990785461152,1.0010372010074207,6.886783769247813
36,23,female,429,165,215,change,valid,clock,2,1,2,0.7132014135950158,1,j,change,0.7983593365888737,0.10288360701359717,0.5000758497335482,0.03532801562050736,0.353250008739451,1.0010599719626043,5.344702240886363
36,23,female,430,75,25,change,valid,anti,4,0,2,0.5158519528658871,1,j,change,0.5949758932547411,0.06869900800637779,0.4998269728066589,0.03534629652858712,0.353309982947394,1.0010750456940514,4.908766401101275
36,23,female,431,75,75,same,valid,anti,4,0,1,0.4586545187357842,0,f,same,1.0995818803485236,0.06698384347224612,0.4990553260468005,0.03538093403858511,0.35329651280426333,1.0010766492832772,5.438130510932751
36,23,female,432,165,165,same,valid,clock,5,2,2,0.1792192897573841,1,f,same,1.0264274583087172,0.2636596138734608,0.49969034707100946,0.03532352557249396,0.353332433185642,1.0010596512447592,5.096760206118233
36,23,female,433,75,25,change,valid,anti,3,2,2,0.22472399837442936,1,j,change,0.4881576596844752,0.26275598571528813,0.49964897448899137,0.03532641203128151,0.35332762242069293,1.0010291830649294,4.519305440942844
36,23,female,434,165,165,same,catch,clock,4,1,1,0.1565163259738256,0,j,change,0.4353325698111803,0,0.5003766829267988,0.0353475793999678,0.35325514022224525,1.0010795357420648,5.909801036367753
36,23,female,435,75,75,same,valid,clock,2,2,2,0.2321537443631314,1,f,same,0.9237599530724765,0.2618514070114039,0.5005639820556098,0.03534725868212263,0.35326412031736254,1.001091402296879,5.05092676186996
36,23,female,436,165,115,change,valid,anti,3,0,2,0.46691107492642914,1,j,change,0.6429642396569761,0.06862406351196706,0.49908451135615906,0.035362653131414845,0.3532900984500884,1.001062216986611,5.00220910344342
36,23,female,437,45,95,change,valid,clock,2,1,2,0.19394055240991293,1,j,change,0.7047572375558957,0.10168352445730834,0.4998603274461857,0.03534629652858712,0.3533045307467546,1.0010641412927725,4.695794781730001
36,23,female,438,45,95,change,valid,clock,1,0,2,0.1601590374875741,1,j,change,0.7992862107103065,0.06694277875388435,0.5008109346772471,0.035329619208823715,0.35334622404661786,1.001054519761965,4.803786200608556
36,23,female,439,15,325,change,valid,anti,2,1,2,0.07246135111290641,1,j,change,0.5096611393119019,0.10046613926526267,0.4994523745453989,0.03532320485555829,0.35332986744379014,1.0010516333031774,4.389464808770754
36,23,female,440,135,185,change,valid,clock,5,0,2,0.09127208502104622,1,j,change,0.6190197776977584,0.06533315944287932,0.5004671253145716,0.03534052361010254,0.35334205471644964,1.0010240515812256,4.567735736321083
36,23,female,441,105,55,change,catch,anti,3,0,2,0.2937536702129364,1,j,change,0.9282413413438917,0,0.4999658435654055,0.03531486619522184,0.35332313237267954,1.0010262966061418,6.604796268898099
36,23,female,442,135,85,change,valid,anti,2,1,2,0.2037230833675494,1,j,change,0.7232177477471851,0.0992425741692567,0.5001034314545905,0.03523372461950203,0.35330870007601334,1.0010667070346244,4.70798910971007
36,23,female,443,105,55,change,catch,anti,5,1,1,0.24412645641950803,0,j,change,1.476265447768128,0,0.4997111937209411,0.035328657055288204,0.35328753270914603,1.0010330316772524,6.898978417944818
36,23,female,444,15,15,same,valid,anti,4,1,2,0.3560219717282962,1,j,change,0.6561380394587104,0.09808046161096022,0.5000033675351006,0.03536329456619569,0.35330388931197376,1.0010654241632437,4.744020459223066
36,23,female,445,45,45,same,catch,anti,5,0,1,0.14951954886601015,0,j,change,0.3128206575547665,0,0.4992288343164546,0.035316149065693025,0.35330741720554215,1.0010586890921331,5.673204069137682
36,23,female,446,135,185,change,valid,clock,5,2,1,1.8637049243307047,0,j,change,0.5848841904462461,0.2609400616391536,0.4999594292121401,0.035321601266332436,0.3532824012254423,1.0010676691872504,6.145468884451475
36,23,female,447,135,185,change,catch,clock,5,0,1,0.16243773666974448,0,j,change,0.11251257614276255,0,0.4997301160647112,0.03534950370521983,0.353343658304766,1.0010019220617323,5.591714515073363
36,23,female,448,15,15,same,valid,anti,1,1,2,0.40071847176659503,1,f,same,1.702288673502153,0.09697123021126164,0.49948637062061607,0.03531999767801608,0.3533356403631842,1.0010731213878898,5.838455782813071
36,23,female,449,135,185,change,valid,clock,4,0,1,0.6604180170224936,0,j,change,0.4977644373466319,0.06376261310323361,0.4999417897388412,0.03535880451909179,0.35332954672685446,1.0010615755509207,4.8616157693040805
36,23,female,450,165,115,change,catch,anti,3,0,1,0.6519375998832402,0,j,change,0.6659112696024749,0,0.500021007009309,0.03535142801138136,0.3533054928993806,1.00105484047981,6.55684737077263
36,23,female,451,45,45,same,valid,anti,3,1,1,0.3882970756640134,0,j,change,0.2708124131859222,0.09590158146263016,0.4999626363887728,0.03533154351498524,0.353275345437396,1.0010824222008523,4.414119018976635
36,23,female,452,45,45,same,valid,anti,1,2,1,0.21249022211941337,0,j,change,0.6052693274905323,0.26410805044651836,0.49933723689537146,0.035302999640407506,0.3533667499787043,1.0010282209113939,4.543112315014696
36,23,female,453,105,155,change,valid,clock,5,1,1,0.12790830809535692,0,j,change,1.0785726266813072,0.09783708070595774,0.49921376058500755,0.03530941399458243,0.3533712400258082,1.0010410496197437,4.955175533602414
36,23,female,454,165,165,same,valid,anti,5,1,1,0.05490301978170464,0,j,change,0.06403385239354975,0.09982887789101565,0.49976828147009655,0.03537868901457841,0.3532355764436943,1.0010728006709542,3.860584020497299
36,23,female,455,105,105,same,valid,anti,5,0,1,0.08359121708144812,0,f,same,0.7599161900534455,0.0652053455226844,0.49963903224033857,0.03531454547737667,0.35327726974264806,1.0010856293783945,4.601677289371764
36,23,female,456,45,45,same,catch,clock,3,0,1,0.6381387213050402,0,f,same,0.5905669871817736,0,0.500233642836065,0.03529915102808445,0.35332730170193827,1.001038804595737,6.675539856068099
36,23,female,457,45,95,change,valid,clock,5,2,2,0.35179395042996475,1,j,change,0.599763887636982,0.26706135451594154,0.4999360168212661,0.035329939926668885,0.35330741720554215,1.0010484261265447,4.70871393168818
36,23,female,458,15,15,same,valid,clock,5,1,2,0.21389592775085475,1,f,same,1.3910982239622172,0.10181264573085952,0.4991650114961885,0.035348862270438985,0.3533135108418719,1.0010558026333456,5.473268020244177
36,23,female,459,135,135,same,valid,anti,4,2,2,0.25326049620798585,1,f,same,0.5698284192440042,0.26625914702430387,0.49964031511171925,0.03530781040535658,0.35330741720645165,1.0010804978946908,4.6604571445795955
36,23,female,460,15,65,change,valid,clock,5,1,2,0.7079810917684881,1,f,same,0.5282646895911967,0.10068311117301304,0.5005732828694818,0.035267399976874,0.3533725228971889,1.001029503781865,5.156752053475429
36,23,female,461,75,75,same,valid,anti,3,0,1,0.4442183741093686,0,j,change,0.24841830053628655,0.06674727097744645,0.4999559013176622,0.03534341006889008,0.3533180008898853,1.0010554819155004,4.472861670932616
36,23,female,462,45,95,change,catch,clock,1,0,1,0.26665238403893454,0,j,change,0.2243904519782518,0,0.4999013793103586,0.03536265313050535,0.35328849486268155,1.0010259758873872,5.650624581664488
36,23,female,463,105,105,same,valid,clock,3,1,1,0.2643066548598654,0,j,change,0.9436306589432206,0.09953566184472536,0.49975962209191493,0.03532256341895845,0.3533093415117037,1.0010307866532457,5.026565046196993
36,23,female,464,45,45,same,valid,clock,4,0,2,0.4296125698247124,1,f,same,0.805520641871226,0.0682958107259718,0.49928944996008795,0.035314866194312344,0.3533054929002901,1.001050029714861,5.0963474424524975
36,23,female,465,75,75,same,catch,anti,2,2,1,0.6461566635362033,0,j,change,0.20050403991990606,0,0.4993856652663453,0.03531967696017091,0.35330613433507096,1.0009756232102518,6.121075097008543
36,23,female,466,15,65,change,valid,clock,3,2,2,0.3663102744794742,1,f,same,1.1953722361749897,0.2654753761946703,0.5003343481912452,0.035328657055288204,0.35325930955241347,1.0010333523950976,5.615074629402443
36,23,female,467,45,95,change,catch,clock,1,0,2,0.7892031672799931,1,f,same,2.7810261490749326,0,0.5000723218381609,0.03532224270111328,0.353309020794768,1.00109204373166,9.077366407451336
36,23,female,468,105,55,change,valid,anti,2,2,1,0.7223890132381712,0,j,change,0.683241570656719,0.2647054994785468,0.5002185691055274,0.03531679050047387,0.35329073988577875,1.001042332490215,5.215389510030036
36,23,female,469,135,135,same,valid,clock,5,2,2,0.4604867788939373,1,f,same,0.3500649613679343,0.26753033820513666,0.49964833305330103,0.03534501365811593,0.3533077379233873,1.0010481054086995,4.837677400980283
36,23,female,470,45,95,change,catch,clock,1,1,1,0.3326172776387466,0,j,change,0.8016486172100485,0,0.4994626375118969,0.035321280548487266,0.3533080586412325,1.0010695934943215,6.486196471015319
36,23,female,471,75,75,same,valid,anti,5,0,2,0.5054703212654204,1,j,change,0.5739076275322077,0.0667125761918744,0.5002756568537734,0.03532352557249396,0.3532955506516373,1.0010413703366794,4.920932505924611
36,23,female,472,135,185,change,catch,clock,2,1,1,0.3340983519283327,0,j,change,0.012750452452564787,0,0.49931382450358797,0.03531807337185455,0.35331832160773047,1.001077932152839,5.661291331289249
36,23,female,473,15,15,same,valid,clock,4,0,1,0.25878229266254493,0,j,change,0.3367898147762389,0.06519140684800925,0.5001297303051615,0.03529562313360657,0.3533244152431507,1.0010375217252658,4.4253245743193474
36,23,female,474,105,155,change,valid,clock,3,2,2,0.10820597901147266,1,j,change,0.9980372077416177,0.26675185457391626,0.5005809800941279,0.03531454547737667,0.3533176801720401,1.0010368802895755,4.920767015597448
36,23,female,475,45,95,change,valid,clock,3,0,2,1.0109781665014452,1,j,change,0.7556737364602668,0.06667908515810428,0.4997031757784498,0.03533635428084381,0.3532766283078672,1.0010744042592705,5.49714384861818
36,23,female,476,75,125,change,valid,clock,5,1,1,0.6759895022687488,0,j,change,0.28068570724826714,0.10148656489371408,0.5001284474346903,0.035329939926668885,0.3532609131407298,1.0010728006709542,4.8147637256752205
36,23,female,477,75,125,change,catch,clock,3,0,1,0.0893044819977149,0,j,change,0.8964290330332005,0,0.49986994897699333,0.03529915102808445,0.35331832160773047,1.0010166750744247,6.250795780765657
36,23,female,478,15,65,change,valid,clock,5,2,2,0.5600673763719897,1,f,same,0.9323016272892346,0.26599342611780175,0.500544738994904,0.035283756578792236,0.35333435749180353,1.0010830636365426,5.426913089034315
36,23,female,479,75,75,same,valid,anti,1,1,2,0.336783400422064,1,f,same,1.2437932307402662,0.10330409816402823,0.4999728993552708,0.03530332035825268,0.35331832160773047,1.0010567647859716,5.450225416428111
36,23,female,480,135,135,same,valid,anti,4,0,1,0.9225312836051671,0,j,change,0.2190581996765104,0.06518481821404376,0.4996233170741107,0.03534084432703821,0.3532833633798873,1.0010561233511908,4.920133598160646
