subject,age,gender,ntrial,memory_ori,test_ori,type,trial_type,which_change,trial,quest,pas,pas_rt,vis,test_key,test,test_rt,contrast,fix_dur,target_dur,mask_dur,retention_dur,trial_dur
37,26,female,1,105,155,change,catch,clock,1,2,1,1.1734329012087983,0,f,same,3.1005972725533866,0,0.5056967479540617,0.03533827858609584,0.3533170387372593,1.0010506711496419,9.530751534553929
37,26,female,2,165,115,change,valid,anti,4,2,1,0.5158471421009381,0,f,same,5.331816124851684,0.2,0.5000171583960764,0.035342768634109234,0.35329843711042486,1.001034955983414,9.572606155149515
37,26,female,3,75,75,same,valid,anti,2,1,1,0.8915852337731849,0,j,change,2.226201544768628,0.2,0.49930933445648407,0.03532993992575939,0.3533215287843632,1.001012505745166,6.898183679511021
37,26,female,4,45,45,same,valid,anti,2,2,1,0.855475949861102,0,j,change,2.537196356518507,0.3670372117912738,0.49988887132076343,0.035348220834748645,0.35326732749490475,1.0010705556469475,7.110575762017106
37,26,female,5,75,125,change,valid,clock,5,2,1,0.4495426084677092,0,f,same,4.105826895192877,0.4895303947352734,0.5001441626009182,0.03531711121831904,0.35330517218244495,1.0010484261256352,8.335584557699804
37,26,female,6,45,45,same,valid,anti,2,0,1,0.5428445157440365,0,j,change,1.8072092205056833,0.2,0.5002464715444148,0.03534084432794771,0.353318321606821,1.001072479953109,6.062629108914734
37,26,female,7,105,105,same,catch,clock,2,2,1,0.8829085374081842,0,j,change,6.866194014317443,0,0.5004895755528196,0.03530139605209115,0.3533282638554738,1.0010564440681264,12.964947801592643
37,26,female,8,15,15,same,catch,clock,1,0,1,0.6206772467157862,0,j,change,1.1980364380196988,0,0.49995878777735925,0.03532352557249396,0.353322170219144,1.0010474639730091,7.098917353296201
37,26,female,9,165,165,same,catch,anti,2,2,1,1.1066517810895675,0,f,same,1.4735175386067567,0,0.5005883566009288,0.035316469783538196,0.3532811183549711,1.001076970000213,7.83011648145748
37,26,female,10,135,135,same,valid,clock,2,1,1,1.212035123718124,0,f,same,1.167077880197212,0.33948538693435915,0.5000537202122359,0.03530813112320175,0.3533289052911641,1.0010516333031774,6.144932003039685
37,26,female,11,75,75,same,valid,anti,1,2,1,1.453566011878138,0,j,change,0.5692559381677711,0.5890718826496524,0.500408754694945,0.0352863223206441,0.3533536005534188,1.001031107371091,5.733723497092797
37,26,female,12,165,165,same,valid,clock,4,2,1,1.4981852189557685,0,f,same,1.8183079768577954,0.6758845662617424,0.499316710963285,0.035362011695724505,0.35328400481375866,1.0010804978946908,7.016398616166953
37,26,female,13,105,55,change,valid,anti,3,2,1,0.6399039514662945,0,j,change,0.8827234833015609,0.7550828364566777,0.4997753372590523,0.03536040810740815,0.3533115865357104,1.001059330526914,5.2147618655117185
37,26,female,14,75,75,same,valid,clock,4,0,1,1.1475246848385723,0,j,change,0.8326062128789999,0.3150270229513009,0.49962556209811737,0.03533667499777948,0.3533292260090093,1.0010282209113939,5.673476999891136
37,26,female,15,165,165,same,valid,anti,4,0,1,0.4796820533119899,0,j,change,2.5633585812984165,0.3996559747928428,0.5002291527889611,0.03534341006889008,0.35329298490978545,1.0010359181369495,6.710657480884947
37,26,female,16,105,55,change,catch,anti,1,0,1,1.004287995505365,0,f,same,1.992157490345562,0,0.5001592363332747,0.035338599304850504,0.35326828964753076,1.001056444069036,8.253801226232099
37,26,female,17,105,105,same,catch,clock,1,2,1,0.5836619353322021,0,j,change,3.0162209385671304,0,0.4999045864869913,0.03535912523602747,0.3533045307467546,1.001057406221662,8.79498474506363
37,26,female,18,45,45,same,catch,clock,3,0,1,0.5533265319800194,0,f,same,2.653726563154123,0,0.5003179915884175,0.03535174872922653,0.35328079763803544,1.0010272587587679,8.477060827637615
37,26,female,19,75,75,same,valid,anti,4,0,1,0.5975913460106312,0,f,same,2.4673873406954954,0.46690619962159796,0.5005514740660146,0.0352930573917547,0.35332313237267954,1.0010355974181948,6.804864774197085
37,26,female,20,165,165,same,catch,anti,3,1,1,0.6199274087584854,0,j,change,3.8395664281697464,0,0.49977854443568503,0.03529337810959987,0.35333082959732565,1.0010365595708208,9.654163701364268
37,26,female,21,135,185,change,valid,clock,4,0,1,0.5807587988101659,0,j,change,2.2935519387865497,0.5261480498876727,0.5002403779080851,0.03532705346697185,0.3532888155805267,1.001077290718058,6.581522427627533
37,26,female,22,75,75,same,valid,anti,4,1,1,0.5555747629814505,0,f,same,1.6351560467956006,0.43994886294822894,0.4992217785274988,0.03535463518801407,0.35330292715843825,1.0010763285645226,5.897237562327973
37,26,female,23,165,115,change,valid,anti,1,2,1,0.5423108415088791,0,f,same,1.083286535276784,0.8277920650611539,0.5000133097837534,0.03532801561959786,0.3533369232336554,1.0010282209113939,5.344793324709826
37,26,female,24,15,15,same,valid,clock,1,0,1,0.5173500251921723,0,j,change,1.6905985137300377,0.5793366454280041,0.4996229963562655,0.0353543144701689,0.3533256981145314,1.0010574062207525,5.885725721590461
37,26,female,25,105,155,change,catch,clock,3,0,1,0.35056656383403606,0,f,same,1.0434550018644586,0,0.5000386464816984,0.03533731643346982,0.3532589888345683,1.001065103446308,6.639720821665833
37,26,female,26,165,115,change,valid,anti,3,2,1,0.7391869229286385,0,j,change,3.198622068520308,0.8941448639260581,0.5001371068119624,0.035321601266332436,0.3533138315597171,1.0010452189490024,7.6176740462733505
37,26,female,27,105,105,same,valid,clock,2,1,1,0.4890854959594435,0,j,change,3.356056288520449,0.5219745890327315,0.49924487020143715,0.03533667499777948,0.35329747495688935,1.0010474639720996,7.569139196929427
37,26,female,28,45,45,same,valid,anti,5,1,1,0.7080122013830987,0,f,same,0.34181995101425855,0.5923157676589426,0.5004732189499919,0.035286963756334444,0.35336097706021974,1.0010234101464448,4.767762548320206
37,26,female,29,135,135,same,valid,anti,3,1,1,0.33363683917377784,0,j,change,1.3770972932388759,0.655190058817081,0.4995248567429371,0.03531743193616421,0.3533003614165864,1.0010314280880266,5.414178672465823
37,26,female,30,165,215,change,valid,clock,3,0,1,0.7229416098170987,0,f,same,1.4896050586157799,0.6269063766957922,0.5002455093917888,0.03530652753488539,0.3533157558658786,1.0010634998570822,5.933588346659235
37,26,female,31,45,45,same,valid,clock,4,1,1,5.7076202843672945,0,j,change,1.8544669720113234,0.7151214254916749,0.4999940667230476,0.03533282638545643,0.3533157558658786,1.0010253344526063,11.27993426570265
37,26,female,32,165,165,same,valid,anti,1,0,1,1.1235988245052795,0,f,same,5.390017405349681,0.6716318026819171,0.5000322321275235,0.03534597581165144,0.3532981163925797,1.0010612548330755,10.208707036257692
37,26,female,33,45,45,same,valid,clock,5,1,2,1.5515205706724373,1,f,same,1.4928237813446685,0.7705518255581851,0.49928720493608125,0.035380613321649435,0.35330196500490274,1.001031428088936,6.804362209578358
37,26,female,34,45,95,change,valid,clock,4,0,1,0.6436441611576811,0,f,same,3.319232445597663,0.7121782405476902,0.4993847031128098,0.03533026064360456,0.35331639730065945,1.0010593305278235,7.722409539170258
37,26,female,35,165,165,same,valid,anti,5,0,2,0.8734088794535637,1,f,same,1.6971389095660925,0.7502722747458377,0.5003821351265287,0.03528151155569503,0.35335327983557363,1.0010420117723697,6.32271159109041
37,26,female,36,135,135,same,catch,anti,2,0,1,0.5470292401523693,0,j,change,2.4317113463821443,0,0.4994068326332126,0.03531807337185455,0.35332281165483437,1.0010400874662082,8.205667273998188
37,26,female,37,165,115,change,valid,anti,2,0,2,1.3151404086011098,1,j,change,1.612099010681959,0.7141719218556044,0.5003234437899664,0.03532673275003617,0.35329522993379214,1.0010182786636506,6.675999765234337
37,26,female,38,135,185,change,catch,clock,4,2,1,0.4160827733876431,0,j,change,2.5893713516352364,0,0.4989725808827643,0.03531999767801608,0.3533013235701219,1.0010795357420648,8.20524039875454
37,26,female,39,75,75,same,valid,clock,1,1,2,0.9548628338552589,1,f,same,2.339627204172757,0.7412442738509866,0.5002503201567379,0.035278945813843166,0.35335648701220634,1.0010410496188342,7.075975134115652
37,26,female,40,15,65,change,valid,clock,1,1,2,0.6592663197998263,1,f,same,1.7184223768581433,0.7187058044665973,0.49943633866132586,0.03530588609919505,0.3533247359609959,1.0010301452175554,6.1092566501611145
37,26,female,41,45,45,same,valid,clock,1,0,2,0.8155546154957847,1,f,same,1.3790366731054746,0.6866573462517978,0.4996730283164652,0.0352529676811173,0.3532647617530529,1.00109877880368,5.897217998548513
37,26,female,42,105,55,change,valid,anti,2,0,2,0.8227986659421731,1,j,change,1.5071951409991016,0.6651397672830983,0.5003442904389885,0.0353376371504055,0.35325930955241347,1.001050029714861,6.039720885809402
37,26,female,43,135,85,change,valid,anti,5,0,2,0.6786540248303936,1,j,change,2.3398052024904246,0.6472394000608737,0.49994756265732576,0.035316469783538196,0.3533404511272238,1.0010404081840534,6.769856834830534
37,26,female,44,75,75,same,catch,clock,5,1,2,0.7332651915148745,1,j,change,1.2441258149838177,0,0.49961690271993575,0.03532095983155159,0.35330837935907766,1.0010487468434803,7.180810049496358
37,26,female,45,135,185,change,valid,clock,5,2,2,0.638936346198534,1,j,change,1.250993022145849,0.9539979878836427,0.5004716153616755,0.035328977773133374,0.35330966222954885,1.001038804595737,5.615743646501869
37,26,female,46,75,25,change,catch,anti,1,0,1,0.36199277294781496,0,j,change,0.8847837737375812,0,0.49996905074294773,0.035334109255927615,0.3533154351489429,1.0010349559825045,6.463693955786766
37,26,female,47,75,75,same,valid,anti,5,0,2,0.4227238745770592,1,f,same,2.1386799324054664,0.6317405969057177,0.4992208163739633,0.035358483800337126,0.35328400481466815,1.0010372010065112,6.250460630781163
37,26,female,48,45,355,change,valid,anti,4,1,2,0.573892233083825,1,j,change,2.4702276165517105,0.7005881256347122,0.49934076478984935,0.035353673035388056,0.35329202275715943,1.001024693016916,6.74509325989311
37,26,female,49,105,55,change,valid,anti,4,0,1,0.8058577161627909,0,j,change,1.549655276591693,0.6178868880782533,0.4999068315119075,0.0353709917908418,0.35323718003201066,1.001084667224859,6.039456935151065
37,26,female,50,75,125,change,valid,clock,3,1,1,0.6819846780335865,0,j,change,2.128971487234594,0.6851131432514577,0.49975481132696586,0.03535880451909179,0.35331832160773047,1.0010317488058718,6.498833068688327
37,26,female,51,15,15,same,valid,clock,4,2,2,0.4770043813250595,1,f,same,1.746476194569368,0.9355472942046963,0.5091495945962379,0.03531903552448057,0.3532878534269912,1.001077932152839,5.954631275683823
37,26,female,52,165,215,change,catch,clock,1,1,1,0.9957636400431511,0,f,same,1.8016781232372523,0,0.4989449991617221,0.035334429973772785,0.3533003614174959,1.0010333523941881,8.005189853647607
37,26,female,53,45,95,change,valid,clock,5,2,2,0.5442559942939624,1,j,change,1.006965026056605,0.9215203689362041,0.4995085001419284,0.03534629652858712,0.3533170387363498,1.0010641412927725,5.2733954734549116
37,26,female,54,45,355,change,valid,anti,3,0,2,0.7081873132419787,1,j,change,1.2671831718143949,0.6299592362840697,0.49995301485887467,0.035315828347847855,0.3533359610801199,1.0010301452175554,5.650812842946834
37,26,female,55,75,75,same,valid,clock,3,0,2,1.188179179841427,1,f,same,1.2765253573834343,0.6179770296265763,0.49914224054009537,0.03532192198417761,0.3533289052911641,1.0010333523950976,6.180122110053162
37,26,female,56,165,165,same,valid,anti,5,2,2,0.7796685510966199,1,f,same,1.313329315809824,0.9091709015123608,0.4996432015705068,0.035328977773133374,0.35330870007692283,1.0010487468434803,5.791705085973263
37,26,female,57,105,105,same,valid,anti,2,0,2,0.4480685899679884,1,f,same,1.3270903497013933,0.6071885533607684,0.49970285506151413,0.03535752164771111,0.35328528768513934,1.001077290718058,5.485597370371579
37,26,female,58,165,165,same,catch,clock,1,0,1,0.5095723005106265,0,j,change,1.5080280448373742,0,0.4999382618452728,0.03535046585875534,0.35332281165574386,1.00103591813604,7.2288455413981865
37,26,female,59,75,125,change,valid,clock,4,2,2,0.4705643701254303,1,j,change,2.5334949536672866,0.8986220300901344,0.499764432856864,0.035320959830642096,0.35327823189618357,1.0010750456949609,6.710640803564274
37,26,female,60,45,355,change,valid,anti,2,0,2,0.7369418991047496,1,j,change,1.253102382387624,0.5973264752291658,0.49940522904580575,0.035317111219228536,0.3533247359609959,1.0010509918683965,5.708473393420718
37,26,female,61,165,165,same,catch,clock,5,2,1,0.4701512857409398,0,j,change,0.6857858240855421,0,0.4999895766750342,0.035317111219228536,0.3533054929002901,1.00105484047981,6.321252967039982
37,26,female,62,15,15,same,valid,anti,2,1,2,0.49710985254387197,1,f,same,1.2089231999798358,0.7089175998284258,0.5003968881410401,0.03530460322872386,0.3533093415126132,1.0010638205749274,5.509472557308982
37,26,female,63,105,55,change,catch,anti,5,1,1,0.41504877955776465,0,j,change,0.6543779407811599,0,0.49964801233636535,0.03532833633835253,0.3532913813214691,1.001053878327184,6.262153035577285
37,26,female,64,45,45,same,valid,anti,5,0,2,0.5813915748103682,1,f,same,1.281942279154464,0.588200708682189,0.5002830333605743,0.03531390404168633,0.35327598687308637,1.0010843465070138,5.580465342123716
37,26,female,65,75,125,change,valid,clock,3,0,2,0.7330721194657599,1,j,change,1.1254990768138668,0.5796752084198613,0.49981606840538007,0.0352997924628653,0.3533366025158102,1.0010590098099783,5.532789054033856
37,26,female,66,45,45,same,catch,clock,1,1,1,0.5569025342147143,0,j,change,1.1358694832952096,0,0.49940843622243847,0.035342447916264064,0.3533135108418719,1.0010465018203831,6.898302024338591
37,26,female,67,105,105,same,valid,anti,5,0,2,0.8054600262285021,1,f,same,1.7918269586944007,0.5716521875286471,0.5004052268004671,0.03532544987865549,0.3532933056276306,1.0010551611976553,6.32201723729213
37,26,female,68,45,45,same,catch,anti,4,1,1,0.4772619176283115,0,j,change,0.6019835747638353,0,0.49982536921834253,0.03532320485464879,0.3533013235701219,1.0010538783262746,6.251241578354893
37,26,female,69,45,355,change,valid,anti,5,2,2,0.6736424902182989,1,j,change,0.9203484790123184,0.889280112759667,0.4994748247836469,0.03535976667080831,0.35330068213443155,1.0010320695246264,5.3673439475915075
37,26,female,70,15,65,change,valid,clock,1,2,2,0.47569328741155914,1,j,change,1.8221777564967852,0.8808002007978575,0.4996451258766683,0.03531775265400938,0.3532766283078672,1.001043615360686,6.003277093348515
37,26,female,71,105,105,same,valid,clock,1,2,2,1.570941630343441,1,f,same,1.1416407981123484,0.8729386268045647,0.499906831510998,0.03531807337185455,0.3533147937132526,1.0010288623470842,6.451324836666572
37,26,female,72,45,95,change,valid,clock,4,2,2,0.6472628188448653,1,j,change,1.5198057605384747,0.8655282816313004,0.5000925270533116,0.03533250566761126,0.3533234530905247,1.0010266173230775,5.862824874991929
37,26,female,73,135,135,same,valid,anti,5,1,2,1.7117158492592353,1,f,same,1.699633131034716,0.6963231939386465,0.4998622517523472,0.03532256341895845,0.35330517218244495,1.00104810540779,7.193722785099453
37,26,female,74,45,45,same,valid,anti,4,0,2,0.830155929733337,1,f,same,1.2262486902691307,0.5640047630831522,0.4995604564073801,0.0353286570561977,0.35332409452621505,1.0010333523941881,5.779727242434092
37,26,female,75,15,15,same,valid,anti,5,1,2,0.547274909902626,1,f,same,1.6117330717988807,0.6852942482503164,0.49997771012021985,0.03536265313050535,0.3532442358209664,1.0010750456940514,5.90974715579523
37,26,female,76,45,45,same,valid,clock,1,1,2,0.4846198228551657,1,f,same,1.3757412988488795,0.6754065910273335,0.49975160414942366,0.03536040810740815,0.353321208066518,1.0010413703375889,5.626488330525717
37,26,female,77,75,125,change,catch,clock,1,2,1,0.3836030515649327,0,j,change,0.4798613345001286,0,0.5003609677587519,0.035311017582898785,0.3533003614174959,1.001077932152839,6.050741707764246
37,26,female,78,135,135,same,valid,clock,3,2,3,2.050158001569798,1,f,same,1.2157923314480286,0.8589899644560735,0.5010550008382779,0.03529979246377479,0.35330421002890944,1.001077932152839,7.018170581400227
37,26,female,79,15,15,same,catch,clock,3,2,1,0.4748850788346317,0,j,change,0.4775736552228409,0,0.4996909885066998,0.03530364107518835,0.3533180008898853,1.0010538783262746,6.191736580450197
37,26,female,80,105,155,change,catch,clock,2,2,1,0.7363517785561271,0,j,change,0.5125254689937719,0,0.49989753069894505,0.03529466098098055,0.3533513555294121,1.0010307866532457,6.451351776951924
37,26,female,81,15,15,same,valid,anti,1,0,1,0.5324753921340744,0,j,change,0.3682579930064094,0.556666780005981,0.4998779669194846,0.035353673035388056,0.3533180008889758,1.0010112228746948,4.602590372632221
37,26,female,82,105,105,same,valid,anti,4,1,2,0.660703455764633,1,f,same,2.961152107741327,0.6663773842238501,0.4992140813019432,0.03534950370521983,0.35326508247089805,1.0010872329667109,7.334212206707889
37,26,female,83,105,105,same,valid,clock,3,1,2,0.5854008666437949,1,f,same,1.2994954790028714,0.658012162360468,0.4995271017678533,0.03533731643346982,0.3533176801720401,1.0010442567963764,5.614486753878737
37,26,female,84,135,135,same,catch,clock,2,1,1,0.3349569131823955,0,j,change,0.39230765036700177,0,0.5003580812999644,0.0352818322735402,0.3533516762472573,1.0010214858402833,5.92174873244403
37,26,female,85,165,215,change,valid,clock,2,0,2,1.0063399472810488,1,j,change,1.3905494759956127,0.5634273990799333,0.5003888701985488,0.035362332413569675,0.35323814218554617,1.001091081579034,6.122044305865529
37,26,female,86,75,125,change,valid,clock,1,1,2,0.39729833833007433,1,j,change,1.2207092543412728,0.6501830859357851,0.4996040740124954,0.035353993753233226,0.3532721382598538,1.0010394460305179,5.285271008051495
37,26,female,87,105,105,same,catch,clock,2,1,1,0.4302617024277424,0,j,change,0.49692864704957174,0,0.499963919259244,0.03533603356208914,0.3533045307467546,1.0010295037827746,6.156807216917514
37,26,female,88,105,155,change,valid,clock,3,1,2,0.668320500883965,1,j,change,4.69346605058945,0.6427776721739364,0.5002682803469725,0.0353565594941756,0.35325193304561253,1.0010641412927725,9.112892947321598
37,26,female,89,45,355,change,valid,anti,1,1,2,0.5948732635943088,1,j,change,2.0791046973272387,0.6356794744932984,0.5001047143259711,0.035305244664414204,0.35332281165483437,1.00102373086429,6.35734910152587
37,26,female,90,75,125,change,valid,clock,1,2,2,0.6375880490322743,1,j,change,1.4175965608801562,0.8526824645499114,0.4993924003374559,0.03532737418481702,0.3532791940488096,1.0011048724391003,5.779130386815268
37,26,female,91,105,105,same,valid,anti,3,2,1,0.3336717974007115,0,j,change,1.9944143807242654,0.8465042264209073,0.4998766840490134,0.03530107533424598,0.35332184950220835,1.0010615755509207,6.004124108765609
37,26,female,92,165,215,change,valid,clock,4,0,2,0.2359959422801694,1,j,change,1.3234784270853197,0.5566355065830637,0.4995784165976147,0.03526900356519036,0.35339625600590807,1.0010500297139515,5.2736735356911595
37,26,female,93,15,65,change,valid,clock,4,2,1,0.40715848296713375,0,j,change,3.987195987693667,0.8666513374308484,0.49920029044187686,0.03531807337185455,0.3533032478762834,1.0010564440681264,8.064301010228519
37,26,female,94,15,325,change,catch,anti,4,1,1,0.1664845524719567,0,j,change,0.50985805997243,0,0.4996496159246817,0.03535976667080831,0.3533058136172258,1.0010169957931794,5.8735349215057795
37,26,female,95,135,185,change,valid,clock,1,1,2,0.47885716741529905,1,j,change,1.5879345363882749,0.629177756835991,0.5001589156145201,0.03530492394747853,0.3533147937132526,1.001043294642841,5.792376989532386
37,26,female,96,75,75,same,valid,anti,1,1,2,0.4457372930846759,1,f,same,1.3528163984237835,0.6228928761690545,0.49902100925373816,0.035356559495085094,0.3533147937132526,1.0010612548330755,5.5670535697963714
37,26,female,97,75,75,same,valid,anti,1,0,2,0.44787263146008627,1,f,same,1.4225856452540029,0.5502999975748784,0.49977501654120715,0.03531486619522184,0.35330741720645165,1.000986206894595,5.603306214515214
37,26,female,98,165,165,same,valid,clock,1,0,2,0.42470109913119813,1,f,same,1.3951880159338543,0.544137851440971,0.49968713989437674,0.03530364107518835,0.35330388931106427,1.001076328565432,5.638424160048089
37,26,female,99,45,45,same,valid,clock,5,0,2,0.5746574654895085,1,f,same,1.2593105146979724,0.5380901895908028,0.5001271645633096,0.035348862270438985,0.3532567438105616,1.0010779321537484,5.544754068864677
37,26,female,100,15,325,change,valid,anti,4,1,2,0.5438380991445229,1,j,change,1.0867403440724956,0.6167165171744442,0.5000402500700147,0.03530684825273056,0.35332537739577674,1.001063179139237,5.332774750024328
37,26,female,101,135,135,same,catch,anti,3,1,1,0.33307333819266205,0,j,change,0.33422599756795535,0,0.5060835334879812,0.03533699571562465,0.353284646249449,1.001047143255164,5.868064760598827
37,26,female,102,75,75,same,valid,anti,2,0,2,0.38646000474000175,1,f,same,1.187068534483842,0.5323897888109961,0.5004145276134295,0.035323846290339134,0.35330068213443155,1.001053557609339,5.297481371914728
37,26,female,103,75,75,same,valid,clock,1,2,3,0.4239227173002291,1,f,same,1.5175167983907158,0.8847350739101669,0.49978720381295716,0.0353309020792949,0.3533080586412325,1.0010365595717303,5.650283338041845
37,26,female,104,75,125,change,valid,clock,4,1,2,0.37889395373440493,1,j,change,1.2970993971475764,0.6109828747865471,0.49958771741057717,0.035316149065693025,0.35328175979066145,1.0010705556469475,5.391177441230866
37,26,female,105,15,65,change,valid,clock,3,2,1,0.7441541984990181,0,j,change,3.3019521765027093,0.8798488120725998,0.5000097818892755,0.03534052361010254,0.35330196500490274,1.0010644620106177,7.699829410260463
37,26,female,106,45,355,change,valid,anti,1,0,2,0.43162892193595326,1,j,change,0.9865359506893583,0.5267075304328781,0.499989255957189,0.03531711121831904,0.35329202275624993,1.0011603565999394,5.132719714869381
37,26,female,107,15,325,change,catch,anti,1,1,1,0.8789271480145544,0,j,change,0.5882645548899745,0,0.4996919506593258,0.03535463518801407,0.3532900984500884,1.0010782528715936,6.709775827956946
37,26,female,108,135,135,same,valid,clock,5,0,2,0.3416980782913015,1,f,same,1.7406497163083259,0.5213130318718594,0.5008455721881546,0.03528600160279893,0.3533327539034872,1.0010586890921331,5.828011611263719
37,26,female,109,105,155,change,valid,clock,2,0,2,2.667119413137698,1,j,change,1.1299406960915803,0.515888347728573,0.49956590860711003,0.03532320485464879,0.35323942505510786,1.0010962130618282,7.487243934988328
37,26,female,110,15,325,change,valid,anti,2,0,2,1.591226062032547,1,j,change,0.7530210804534363,0.5106908699733783,0.499681046258047,0.03534437222242559,0.353275345437396,1.0010541990441197,6.0392051717653885
37,26,female,111,135,135,same,valid,anti,3,0,1,1.8354987657176025,0,j,change,1.9415136014767995,0.5054238174711301,0.4994902192329391,0.035352390164007375,0.3532711761072278,1.0010792150242196,7.46355444359142
37,26,female,112,45,95,change,catch,clock,5,1,1,0.3043857823276994,0,j,change,0.5875329978407535,0,0.5001576327449584,0.035305565382259374,0.3533237738083699,1.00103591813604,6.121627052152689
37,26,female,113,75,75,same,valid,clock,3,2,1,0.15073795536682155,0,j,change,0.3300614783738638,0.8955468502030379,0.5004097168484805,0.035334109255927615,0.35320478754510987,1.0011122489468107,4.213847820097726
37,26,female,114,135,85,change,valid,anti,4,1,1,0.07484877359183884,0,j,change,1.3457801730401115,0.605278495177604,0.5003356310617164,0.03534180648057372,0.35327310041338933,1.001006091390991,5.132710414056419
37,26,female,115,135,135,same,valid,anti,2,0,2,0.33126160396659543,1,f,same,3.787920937958006,0.5105039338483146,0.49951106588287075,0.03535110729444568,0.3532676482118404,1.0010214858402833,7.782217936008237
37,26,female,116,105,105,same,catch,anti,4,0,1,0.27865780929914763,0,j,change,0.37915758367398666,0,0.4995405719100745,0.035320318394951755,0.3532888155796172,1.0010907608611888,5.838707225480903
37,26,female,117,135,135,same,valid,anti,5,2,2,0.7205538666203211,1,f,same,1.485633932188648,0.9109385830230188,0.49995109055180365,0.03531775265400938,0.3533369232327459,1.001042332490215,5.897810684838078
37,26,female,118,105,105,same,valid,anti,5,1,2,0.2914432199795556,1,f,same,1.0141487815772052,0.6150099367456547,0.4996130541085222,0.03534597581074195,0.35324519797450193,1.0010702349291023,5.014198172101715
37,26,female,119,75,75,same,valid,anti,5,2,2,0.25644554357950256,1,f,same,1.144734761660402,0.9068385088392044,0.5001342203531749,0.035324487726029474,0.3532900984500884,1.001034955983414,5.155788617536928
37,26,female,120,105,105,same,valid,anti,2,1,2,0.2435642383106824,1,f,same,0.9499016519202996,0.6100170247911333,0.5002843162310455,0.03532673274912668,0.353284646249449,1.0010692727755668,4.920650274358195
37,26,female,121,75,25,change,valid,anti,3,0,2,0.2669827232593889,1,j,change,1.2880689491721569,0.5055342396659689,0.5000088197366495,0.035342768634109234,0.3532657239065884,1.0010343145477236,5.238635448862624
37,26,female,122,135,135,same,valid,anti,4,1,1,0.19155152634357364,0,j,change,3.332321896647045,0.6050543476963421,0.49982408634696185,0.03534116504579288,0.35327277969554416,1.0010513125853322,7.181825762418157
37,26,female,123,105,155,change,valid,clock,3,2,1,0.716931681038659,0,j,change,2.759225043432707,0.9030982212078427,0.49946327894667775,0.03529562313360657,0.3533170387372593,1.0010644620106177,7.1335106046899455
37,26,female,124,15,15,same,catch,anti,1,2,1,0.1926400421816652,0,j,change,1.3718772921292839,0,0.5005299859813022,0.03531390404168633,0.35331639730156894,1.0010513125853322,6.757844674499211
37,26,female,125,135,135,same,valid,clock,4,0,2,0.23301262633503939,1,f,same,1.3364148957971338,0.5007429114594155,0.5004972727774657,0.03531165901767963,0.3533224909369892,1.0010525954558034,5.297859498070466
37,26,female,126,15,15,same,valid,anti,5,0,2,0.1879126634421482,1,f,same,1.132458650670742,0.49584316321406596,0.4993914381848299,0.03537387825053884,0.35332281165483437,1.0010179579458054,5.0371987619009815
37,26,female,127,135,85,change,valid,anti,2,2,1,0.18001017957976728,0,j,change,1.654064599598314,0.9158672488801385,0.4999401861505248,0.03529337810959987,0.3533356403631842,1.0010474639730091,5.591203611794299
37,26,female,128,45,355,change,catch,anti,5,1,1,0.12191858453206805,0,j,change,0.24953952957730507,0,0.5004312049331929,0.035296906004077755,0.353333395338268,1.0010509918683965,5.603676643445397
37,26,female,129,105,155,change,valid,clock,3,0,1,0.06785712796681764,0,j,change,0.7760912659914538,0.49110542956909753,0.500460390243461,0.0353376371504055,0.35327855261402874,1.001065744881089,4.602880942858974
37,26,female,130,75,75,same,catch,anti,2,1,1,0.14058275045590563,0,j,change,0.2990981097864278,0,0.4999796344272909,0.03535303160060721,0.35329266419284977,1.001002242778668,5.7207466179525
37,26,female,131,15,15,same,valid,clock,3,2,2,0.21509669478018623,1,f,same,1.8129154296320849,0.9288870729259404,0.5002362085779168,0.03534244791535457,0.3533048514645998,1.0010487468434803,5.804404865030847
37,26,female,132,15,15,same,valid,anti,4,2,2,0.17021514063344512,1,f,same,0.4522924419352421,0.9254720785205302,0.49890972021512425,0.03532609131434583,0.3533176801720401,1.0010413703366794,4.33001305000289
37,26,female,133,135,135,same,valid,clock,3,0,1,0.20221667238092778,0,j,change,3.2482184934160614,0.49557214763105606,0.5004610316782419,0.03530043389855564,0.3532878534269912,1.0010391253126727,7.1227511676524955
37,26,female,134,15,325,change,valid,anti,5,1,2,0.17473148713270348,1,j,change,0.8592495141929248,0.6136301369707032,0.4998792497899558,0.03530043389946513,0.3533247359609959,1.0010538783262746,4.720101333961793
37,26,female,135,165,165,same,valid,clock,2,2,3,1.0879658063622628,1,f,same,1.209888239506654,0.9222956471611554,0.4998667417994511,0.03532641203128151,0.35329651280426333,1.0010227687107545,6.015587200414302
37,26,female,136,75,125,change,valid,clock,5,1,2,0.17920774392041494,1,j,change,1.1752648406500157,0.6089729205731271,0.49993986543267965,0.0353520694470717,0.3533157558658786,1.0010372010074207,5.061713780630271
37,26,female,137,165,165,same,valid,clock,3,1,2,0.18893126282273442,1,f,same,0.9672630625909733,0.6045922894306373,0.5000088197366495,0.03536104954309849,0.35329170203931426,1.0010516333031774,4.908728556414644
37,26,female,138,15,325,change,catch,anti,4,1,1,0.36920378947161225,0,j,change,0.32005123785802425,0,0.4999671264367862,0.035334750691617955,0.35329202275624993,1.0010230894285996,5.87470938968363
37,26,female,139,165,165,same,valid,clock,3,0,1,0.5933617211248929,0,f,same,3.3823221051143264,0.5000653237810218,0.49981959629985795,0.03532448772511998,0.35330966222954885,1.0010301452175554,7.758975845788882
37,26,female,140,165,115,change,valid,anti,3,0,1,0.12987270394205552,0,f,same,1.7508469352378597,0.5041959991832321,0.49917367087346065,0.035310696865053615,0.35330645505291614,1.001053557609339,5.591286677675271
37,26,female,141,105,155,change,valid,clock,5,1,1,0.49012526270780654,0,j,change,1.446882255235323,0.6002046568296715,0.4990508359987871,0.035320318394951755,0.35330645505291614,1.0010448982311573,5.708172880946222
37,26,female,142,165,165,same,valid,clock,2,1,2,0.21749951170750137,1,f,same,0.9128818504905212,0.6073627470015049,0.5000774533218646,0.035277983660307655,0.3533516762472573,1.0010352767003496,4.920373174274573
37,26,female,143,45,45,same,catch,anti,5,2,1,0.1843042687205525,0,j,change,0.2870372003653756,0,0.4998154269696897,0.03533635427993431,0.35326379960042686,1.0010532368914937,5.697388107210827
37,26,female,144,45,45,same,catch,clock,4,2,1,0.1428906349474346,0,j,change,0.46013078225951176,0,0.5002669974765013,0.035316790501383366,0.353275345437396,1.0010615755518302,5.850864991643903
37,26,female,145,105,105,same,valid,anti,5,2,1,0.6454071462958382,0,j,change,5.788952045329097,0.919034889902766,0.5005617370325126,0.03530460322963336,0.3533077379233873,1.0010599719626043,10.221156655517916
37,26,female,146,45,355,change,valid,anti,2,2,2,0.17577670608170592,1,j,change,1.1231584791185014,0.9300119962893552,0.4990585332234332,0.03527124858919706,0.35333307462133234,1.0010628584223014,5.0251898087462905
37,26,female,147,75,125,change,catch,clock,4,0,1,0.04788026454025385,0,j,change,3.5454355939546076,0,0.4997567356331274,0.03532833633835253,0.3532702139546018,1.0010974959322994,8.818264679969616
37,26,female,148,15,15,same,valid,anti,2,2,2,0.6532041140380898,1,f,same,1.1256068379580029,0.9270355940087653,0.5000703975329088,0.03532673274912668,0.3533138315597171,1.0010634998570822,5.568635349439319
37,26,female,149,105,105,same,valid,anti,1,0,1,0.11273162632460298,0,j,change,0.3049794307717093,0.5080324206356674,0.49938726885466167,0.035328336337443034,0.3533138315597171,1.0010169957931794,4.107458706796024
37,26,female,150,15,15,same,valid,clock,5,1,2,0.20150948987611628,1,f,same,0.7109573519237529,0.6034477946952894,0.4991842545568943,0.03535174872922653,0.35329651280426333,1.0010702349291023,4.660143482679814
37,26,female,151,75,25,change,valid,anti,3,1,1,0.41327681432449026,0,j,change,1.2723598760367167,0.5994702611961432,0.504092838789802,0.03534276863319974,0.35330741720645165,1.0010615755509207,5.431010257514572
37,26,female,152,165,165,same,valid,clock,4,1,2,0.2312073064622382,1,f,same,1.3506592512458155,0.6060250326954894,0.49993216820803354,0.035330581362359226,0.35330517218244495,1.0010487468425708,5.320675354481864
37,26,female,153,105,155,change,catch,clock,4,2,1,0.13082202830264578,0,j,change,0.2880362359665014,0,0.49948316344307386,0.03534212719932839,0.35326508247089805,1.0010019220608228,5.5911157351474685
37,26,female,154,75,25,change,valid,anti,5,1,2,0.2726674443001684,1,j,change,1.5510863189210795,0.6024776118553198,0.50041452761252,0.035349824423974496,0.35323493500800396,1.0010990995197062,5.498032878052982
37,26,female,155,135,85,change,valid,anti,2,1,1,0.4637629100889171,0,j,change,1.2079883079150022,0.5988413824497758,0.4999982360513968,0.03533603356117965,0.3533013235701219,1.0010282209113939,5.355811901641573
37,26,female,156,165,215,change,catch,clock,3,0,1,0.057294611589895794,0,j,change,1.586488741046196,0,0.49973364395918907,0.03529049165081233,0.3533112658187747,1.0011000616741512,6.875118304737043
37,26,female,157,105,105,same,valid,clock,4,2,2,0.4908943437258131,1,f,same,1.2006467592909758,0.9242680109192793,0.5000537202122359,0.03533282638636592,0.35327181754291814,1.0010644620106177,5.426699811770959
37,26,female,158,135,85,change,valid,anti,1,1,1,2.549392608803828,0,j,change,0.8281229003005137,0.604894221309128,0.5000796983458713,0.03529979246377479,0.3532968335221085,1.0010814600482263,7.099614914270205
37,26,female,159,105,55,change,catch,anti,4,1,1,0.2022375190299499,0,j,change,0.8663755405304983,0,0.49911786599477637,0.03530941399367293,0.35329202275534044,1.0010708763657021,6.33219104382988
37,26,female,160,15,15,same,valid,clock,5,0,2,0.14955675211786001,1,f,same,1.5667424736384419,0.5120068634838624,0.5008545522814529,0.035338920022695675,0.35330517218244495,1.0010262966043229,5.474956598878634
37,26,female,161,45,45,same,catch,clock,3,0,1,0.10830283575342037,0,j,change,0.34766118228799314,0,0.4997788651544397,0.035307168971485225,0.35332762242069293,1.0010644620106177,5.720649119773952
37,26,female,162,45,355,change,valid,anti,2,1,2,0.3777685553613992,1,j,change,0.6758544801214157,0.610479051376333,0.500060455284256,0.03529722672101343,0.3533048514655093,1.0010814600482263,4.814315683062887
37,26,female,163,165,115,change,catch,anti,1,1,1,0.16215197720885044,0,j,change,0.40145195312288706,0,0.4996486537711462,0.03532961920791422,0.3532647617539624,1.0010881951202464,5.77918843671614
37,26,female,164,45,355,change,catch,anti,4,0,1,0.042430629566297284,0,j,change,0.24603825456324557,0,0.5003167087179463,0.035352069447981194,0.3533013235701219,1.0010355974191043,5.556471489640899
37,26,female,165,45,45,same,valid,clock,4,2,2,0.2662566184098978,1,f,same,0.6771347851354221,0.9214264837591486,0.49996873002601205,0.03530909327673726,0.35331864232466614,1.0010166750744247,4.720369453949388
37,26,female,166,165,215,change,valid,clock,1,2,2,0.31217633571759507,1,j,change,0.7429643358736939,0.9186999553111863,0.4991868202978367,0.03535559734154958,0.35328175979157095,1.0010404081840534,4.790072632933516
37,26,female,167,165,215,change,valid,clock,3,2,2,0.1940912897243834,1,j,change,0.6151554502612271,0.9161609360294403,0.49944692234385,0.035330581360540236,0.35328047692019027,1.0010821014839166,4.531160449607341
37,26,female,168,15,15,same,valid,clock,2,1,2,0.3248174234377075,1,f,same,0.6391810537952551,0.6071788914779108,0.5001367860950268,0.035366501742828405,0.35324712228066346,1.0010715177995735,4.708765246517942
37,26,female,169,135,185,change,valid,clock,3,2,2,0.2773608269653778,1,j,change,0.839811135767377,0.9137659804576854,0.4998025982622494,0.03535591806030425,0.3533131901258457,1.0010481054086995,4.825686087298891
37,26,female,170,165,115,change,valid,anti,4,0,2,0.20135971471427183,1,j,change,0.8186302981357585,0.5079546919291642,0.499942431175441,0.03533763715131499,0.3532971542390442,1.0010465018185641,4.732287002561861
37,26,female,171,105,55,change,valid,anti,4,2,2,1.219423497124808,1,j,change,0.6424716172859917,0.9112769895588517,0.4997022136267333,0.035330581362359226,0.3532888155805267,1.0010577269385976,5.544731297908584
37,26,female,172,15,325,change,catch,anti,4,0,1,0.13255165880036657,0,j,change,0.2361341716041352,0,0.49962780712303356,0.03532224270202278,0.35331190725446504,1.0010590098099783,5.543773955607321
37,26,female,173,75,75,same,valid,anti,4,2,2,1.7307639142582047,1,f,same,1.746975231293618,0.9088646932098721,0.5003917566573364,0.03538061332073994,0.35327181754291814,1.001076970000213,7.240723000300932
37,26,female,174,15,325,change,catch,anti,3,1,1,0.10209149626643921,0,j,change,0.2641636147709505,0,0.5002230591526313,0.03530460322872386,0.35330934151352267,1.001043615360686,5.579700430434968
37,26,female,175,135,185,change,valid,clock,4,2,2,0.13597115080301592,1,j,change,0.7070654427643603,0.9066015248491994,0.4999356961034209,0.035330581360540236,0.3532743832838605,1.0010785735903482,4.555115495249993
37,26,female,176,45,355,change,catch,anti,2,1,1,0.08251392636339006,0,j,change,0.21183788233975065,0,0.49948893636246794,0.03533699571562465,0.3532814390728163,1.001061254833985,5.5200863885165745
37,26,female,177,105,105,same,valid,clock,1,1,2,0.4610647121699003,1,f,same,1.4326484834691655,0.6040745844634465,0.5005598127263511,0.03531807337276405,0.35330966223045834,1.0010307866523362,5.674765322850362
37,26,female,178,15,325,change,valid,anti,2,2,2,0.1720419485900493,1,j,change,0.6969112000060704,0.9044592381497438,0.4994126055516972,0.03528151155478554,0.35334301686998515,1.000983320434898,4.543148235394256
37,26,female,179,135,85,change,catch,anti,1,2,1,0.09543949067483481,0,j,change,0.2227499809978326,0,0.499208949819149,0.035334750691617955,0.35330164428887656,1.001053557609339,5.496144813016144
37,26,female,180,135,135,same,valid,anti,4,2,2,0.2123372397818457,1,f,same,1.3080092507825611,0.9022304845764315,0.500879888979398,0.035319676961080404,0.3533045307467546,1.0010577269404166,5.2389879176025715
37,26,female,181,45,45,same,catch,anti,1,2,1,0.05941872484618216,0,j,change,0.2917992166148906,0,0.5001890630792332,0.03531294188906031,0.35333628179796506,1.0010346352646593,5.52061749700988
37,26,female,182,135,135,same,catch,clock,5,2,1,0.012744038100208854,0,j,change,0.19376672342150414,0,0.5004190176605334,0.03531743193707371,0.3532965128051728,1.00104265320806,5.427476910732366
37,26,female,183,105,55,change,catch,anti,3,1,1,0.030554132816178026,0,j,change,0.31321225385363505,0,0.5001136944210884,0.035343730785825755,0.3533022857227479,1.001062216986611,5.580012809465188
37,26,female,184,105,105,same,valid,clock,3,0,2,0.10920148671903007,1,f,same,1.1964514511982998,0.5040919941938014,0.4997102315664961,0.03529883030932979,0.3533138315597171,1.0010365595717303,5.002354709275096
37,26,female,185,45,45,same,catch,clock,2,2,1,0.026727650067186914,0,j,change,0.19475004385822103,0,0.4996252413802722,0.03533154351498524,0.35328721199039137,1.0010625377035467,5.4031087807052245
37,26,female,186,45,355,change,valid,anti,3,1,2,0.20053194235879346,1,j,change,0.6451630801348074,0.6009159303735256,0.4994847670313902,0.03534822083383915,0.3533180008907948,1.0010500297139515,4.6023604180500115
37,26,female,187,15,15,same,catch,anti,5,2,1,0.1781012678929983,0,j,change,0.836254697311233,0,0.49952229100199474,0.03531775265582837,0.3533260188305576,1.0010644620087987,6.250712714883775
37,26,female,188,15,15,same,valid,anti,1,1,3,0.857819434017074,1,f,same,0.776326672774303,0.5978276775509678,0.49986321390497324,0.035307168971485225,0.3532968335221085,1.0010634998561727,5.403503904897661
37,26,female,189,105,155,change,valid,clock,1,2,1,0.22701616770063993,0,j,change,0.8260982095289364,0.9000516438753858,0.4990742483896611,0.035311338300743955,0.3533022857227479,1.0010410496197437,4.743059909742442
37,26,female,190,135,135,same,valid,anti,1,0,2,0.12417034342615807,1,f,same,1.2112246701180993,0.5001824192895332,0.4997230602748459,0.035319676959261415,0.3533292260090093,1.0010304659354006,5.049702903168509
37,26,female,191,165,165,same,valid,clock,2,0,1,0.22204023275116924,0,f,same,1.6270778096386493,0.49633280526249646,0.5000354393032467,0.03530684825273056,0.35328753270914603,1.0010606133982947,5.544714299870975
37,26,female,192,75,75,same,valid,anti,3,2,2,0.1416055191657506,1,f,same,1.4185644868666714,0.9074725330394064,0.5001239573866769,0.03489697104669176,0.3533192837603565,1.001052595454894,5.226462929686022
37,26,female,193,75,75,same,valid,clock,4,2,2,0.07563132475297607,1,f,same,0.4975011281258048,0.9055226526009419,0.49964801233545586,0.035311338298924966,0.35333435749089404,1.0010314280880266,4.260491076511244
37,26,female,194,75,75,same,valid,clock,1,0,1,0.01574980428267736,0,j,change,0.23462519487657119,0.5000231353964066,0.49964448444188747,0.03533571284606296,0.35322370988797047,1.0011019859794033,3.942253176468512
37,26,female,195,165,215,change,valid,clock,5,0,2,0.4361144795384462,1,j,change,1.1062903322545026,0.5034909547341191,0.5003144636939396,0.035325129159900825,0.3533035685941286,1.0010150714861084,5.27369245803493
37,26,female,196,45,45,same,valid,clock,4,0,2,0.16624818353557202,1,f,same,1.1721224487300788,0.49986996805933787,0.5003545534054865,0.03530396179485251,0.3533103036661487,1.0010683106229408,5.050660245469771
37,26,female,197,45,45,same,valid,clock,3,2,2,0.061186520748378825,1,f,same,0.4575377797427791,0.9036542313872191,0.4996432015705068,0.03533924073963135,0.35332505667793157,1.0010218065581284,4.225726882588788
37,26,female,198,75,75,same,valid,clock,5,2,2,1.0096077398156922,1,f,same,0.38912516873642744,0.9016885214497969,0.4995437790876167,0.03532063911188743,0.35332184950129886,1.0010474639730091,5.108718165161918
37,26,female,199,15,65,change,valid,clock,2,1,2,0.731017281230379,1,j,change,0.8505458775434818,0.5949177090986617,0.4993077308681677,0.035353352317542885,0.35329266419284977,1.0010561233502813,5.261306982312817
37,26,female,200,165,165,same,valid,anti,4,1,2,0.1378656301931187,1,f,same,0.8371632905236766,0.5919697156719734,0.49991196299379226,0.035325129159900825,0.3533234530896152,1.0010413703366794,4.7316673759869445
37,26,female,201,165,115,change,valid,anti,2,1,1,0.39601193967791914,0,f,same,1.9307564094633562,0.5890499120479251,0.5036540969922498,0.03534341006889008,0.3532913813214691,1.0010423324911244,6.102277833244443
37,26,female,202,45,355,change,catch,anti,4,2,1,0.2660661121026351,0,f,same,1.4316122446180088,0,0.4989283218419587,0.03532320485464879,0.3533292260090093,1.0010323902406526,6.9681841637939215
37,26,female,203,135,135,same,valid,clock,2,0,2,0.6124303120559489,1,f,same,1.0392465443474066,0.4963263802946938,0.5000970171004155,0.03529658528714208,0.3533205666299182,1.00105548191641,5.48534913488038
37,26,female,204,105,155,change,valid,clock,1,0,2,0.17406567720900057,1,j,change,0.8348762526820792,0.4929275904652376,0.499988293804563,0.03532224270202278,0.35331286940709106,1.001033031676343,4.696222619128093
37,26,female,205,45,355,change,valid,anti,5,0,2,0.17945790371959447,1,j,change,0.6808416401891009,0.4894250951106785,0.49978592094339547,0.03533442997468228,0.35332537739668624,1.0010333523950976,4.531067120760781
37,26,female,206,15,65,change,valid,clock,2,0,2,0.28310680508548103,1,j,change,0.7272254359904764,0.48600934199390733,0.5005396075121098,0.035311979734615306,0.35330966222863935,1.0010500297157705,4.72067092857651
37,26,female,207,135,135,same,valid,clock,4,2,2,1.0066003700430883,1,f,same,1.0292680548827775,0.8997518608463324,0.5001204294912895,0.0353475793999678,0.353283684096823,1.0010317488067813,5.756811963537984
37,26,female,208,105,105,same,catch,anti,5,0,1,0.05186806828714907,0,j,change,0.25287435210884723,0,0.4994780319611891,0.03532833633835253,0.35331511443109775,1.0010465018185641,5.485271521198229
37,26,female,209,45,45,same,catch,anti,2,2,1,0.11106197003391571,0,j,change,0.19363105983939022,0,0.5002823919257935,0.03533571284424397,0.3532971542390442,1.0010461811016285,5.521012941921072
37,26,female,210,165,165,same,catch,clock,1,1,1,0.1181293050340173,0,j,change,0.1025337659593788,0,0.5005963745425106,0.03533186423192092,0.353282721942378,1.0010413703366794,5.426966328170238
37,26,female,211,105,155,change,valid,clock,5,2,2,0.17703295727005752,1,j,change,1.1588040052502038,0.8978953737500412,0.500177517240445,0.0352953024157614,0.35329971998180554,1.0010753664118965,5.014407280035812
37,26,female,212,105,55,change,valid,anti,3,1,2,0.14338069157747668,1,j,change,0.7155545192817954,0.5939407892196439,0.49986866610743164,0.03528054940215952,0.3533478276349342,1.0010580476573523,4.543133803099408
37,26,female,213,135,85,change,valid,anti,2,0,2,0.18228727517271182,1,j,change,0.6692576379718957,0.4827129366481009,0.4996720661638392,0.03533250566761126,0.35331415227847174,1.0010481054086995,4.543078318938569
37,26,female,214,165,165,same,valid,clock,5,1,2,0.9435921728199901,1,f,same,1.7760617599651596,0.5911820739938995,0.49995461844628153,0.03533378853899194,0.353287532710965,1.0010618962696753,6.380542763374251
37,26,female,215,165,215,change,valid,clock,4,1,2,0.299627614689598,1,j,change,0.578538149529777,0.5884511090690365,0.5002432643668726,0.035343730787644745,0.3532544987865549,1.0010792150242196,4.578676058135898
37,26,female,216,75,75,same,catch,anti,4,1,1,0.035264513517176965,0,j,change,0.23784648334731173,0,0.5005049700030213,0.03534084432794771,0.3533180008907948,1.001013467897792,5.473820296105259
37,26,female,217,45,45,same,valid,anti,3,1,2,0.12614532295810932,1,f,same,0.7672731331276736,0.5858642025158729,0.5010370406489528,0.03532288413771312,0.3533035685923096,1.0010570855029073,4.533042421007849
37,26,female,218,45,45,same,valid,anti,3,0,2,1.019825484676403,1,f,same,0.8807324678873556,0.4792988204856833,0.4991233181954158,0.03536072882343433,0.35330292715843825,1.0010590098081593,5.591099699262486
37,26,female,219,135,185,change,valid,clock,1,0,2,0.38329965263073973,1,j,change,0.7317106728751241,0.47596459998970486,0.499705420803366,0.035343730787644745,0.3532987578291795,1.0010461811016285,4.77862589788856
37,26,female,220,15,325,change,valid,anti,5,2,2,0.2089418016075797,1,j,change,0.5822985644354048,0.896136623461697,0.4997176080760255,0.035349182988284156,0.3532689310832211,1.0010404081840534,4.484257732583501
37,26,female,221,45,45,same,valid,clock,5,2,2,0.16757178543775808,1,f,same,0.9319039373549458,0.894450247989534,0.5002067025507131,0.03533795786825067,0.3532737418481702,1.0010304659354006,4.826701158784999
37,26,female,222,45,95,change,valid,clock,3,1,1,0.29815006829630875,0,j,change,1.2055697758223687,0.5833782446788358,0.49953319540327357,0.035362011696634,0.3532968335221085,1.0010676691872504,5.155592979746871
37,26,female,223,105,105,same,valid,anti,3,0,2,0.21740137209417298,1,f,same,0.8087088964202849,0.47273937522969145,0.49964672946589417,0.0353241670090938,0.3532913813214691,1.0010926851664408,4.731382899397431
37,26,female,224,165,165,same,catch,clock,5,1,1,0.05623047029621375,0,j,change,0.1886018857549061,0,0.5003183123062627,0.03530139605209115,0.3533147937123431,1.0010676691872504,5.438749816790732
37,26,female,225,15,15,same,catch,clock,3,0,1,0.006254957093915436,0,j,change,0.14404810508676746,0,0.5004728982330562,0.035321601266332436,0.35330196500399325,1.001054519761965,5.344987038193722
37,26,female,226,75,125,change,catch,clock,2,0,1,0.027128547179017914,0,j,change,0.28100834924407536,0,0.4995293467909505,0.035329939926668885,0.3533192837603565,1.0010532368924032,5.555402216865332
37,26,female,227,105,105,same,valid,clock,2,0,2,0.15947943670471432,1,f,same,1.0164906621448608,0.4693930197601519,0.500743263244658,0.035319035523571074,0.35329843711042486,1.0010692727755668,4.9088940467408975
37,26,female,228,105,55,change,valid,anti,3,0,2,0.8021348252259486,1,j,change,1.0329893422313035,0.4661113854349074,0.4998503851966234,0.03532128054939676,0.3533224909369892,1.0010314280880266,5.497063669195995
37,26,female,229,165,215,change,valid,clock,2,2,2,0.1685839704659884,1,j,change,0.7383697342575033,0.8926784382051831,0.4997374925715121,0.035344372223335085,0.3533045307467546,1.001053557609339,4.578163551268517
37,26,female,230,135,135,same,valid,clock,4,1,2,0.15033513394882903,1,f,same,0.792639657320251,0.5875863513555614,0.5005598127263511,0.03530845184104692,0.35331062438126537,1.0010548404789006,4.614721198509869
37,26,female,231,75,25,change,valid,anti,4,0,2,1.7166998021493782,1,j,change,1.4948443027860776,0.46293883191772495,0.5000627003082627,0.03530813112229225,0.35326412031645305,1.0010577269385976,6.863745976195787
37,26,female,232,75,25,change,catch,anti,2,0,1,0.07982374638595502,0,j,change,0.2128119019616861,0,0.49996969217863807,0.03533122279623058,0.35332730170193827,1.00103591813604,5.449737604822076
37,26,female,233,75,125,change,valid,clock,2,1,2,0.254578645910442,1,j,change,0.8654146703338483,0.5851753134870099,0.5008317813280883,0.0353164697826287,0.3533087000778323,1.0010484261256352,4.838853472745541
37,26,female,234,165,115,change,valid,anti,2,2,2,1.5769489933791192,1,j,change,1.936769224699674,0.8909360426661539,0.49940298402179906,0.03532352557158447,0.3532759868721769,1.0010737628235802,7.1932279177053715
37,26,female,235,105,155,change,valid,clock,2,1,1,0.2035316149067512,0,j,change,0.11814758594118757,0.582840268137386,0.4993770058899827,0.03532224270202278,0.35330292715843825,1.0010413703384984,4.0124576372018055
37,26,female,236,45,45,same,valid,clock,2,2,2,0.2316014685020491,1,f,same,1.0842958338434983,0.8892113477475772,0.5003240852238378,0.035302999640407506,0.3533247359609959,1.0010538783280936,5.038528136723471
37,26,female,237,135,135,same,catch,clock,5,2,1,0.15395122589507082,0,j,change,0.22297704912125482,0,0.4998725147179357,0.0353398821735027,0.3532993992630509,1.0010237308651995,5.520640267966883
37,26,female,238,15,65,change,valid,clock,3,0,1,0.24549752454004192,0,j,change,1.9448840236727847,0.4596515430148706,0.5004953484713042,0.03530139605209115,0.3532945884999208,1.0010849879436137,5.921857135021128
37,26,female,239,15,325,change,valid,anti,4,2,2,0.18822728749546513,1,j,change,1.3079605016919231,0.8875669788841074,0.499633259321854,0.035331222798049566,0.3532666860592144,1.0010586890912236,5.202178506975542
37,26,female,240,45,45,same,valid,anti,4,1,2,2.6031670230368036,1,f,same,0.5536735485202371,0.5868191523435202,0.5002798261848511,0.03532224270202278,0.35330388931106427,1.001067989906005,6.828538550425947
37,26,female,241,75,125,change,catch,clock,3,0,1,0.08074965835476178,0,j,change,0.21083531884323747,0,0.4999972738987708,0.03533154351498524,0.35326219601302,1.0010750456949609,5.4855983325251145
37,26,female,242,135,185,change,valid,clock,2,2,2,0.23173424562628497,1,j,change,0.6115146630527306,0.8859990296477387,0.5002131169039785,0.035329939926668885,0.3532737418481702,1.0010551611976553,4.543759844027591
37,26,female,243,135,185,change,valid,clock,5,0,1,0.07556397403823212,0,j,change,0.2185302983616566,0.4627192198584853,0.4994350557899452,0.035324487724210485,0.35329619208641816,1.0010814600482263,3.9421187957559596
37,26,female,244,105,55,change,valid,anti,1,1,1,0.060892422628967324,0,j,change,1.1092197676262003,0.5845591358995437,0.49967591477434325,0.03530460322872386,0.35328079763712594,1.0010721592352638,4.84914498267608
37,26,female,245,15,15,same,valid,clock,4,0,1,0.0508452995782136,0,j,change,0.19941905197811138,0.4655698985533867,0.5003324238841742,0.03541364724333107,0.35321056046450394,1.0010484261274541,3.884667032498328
37,26,female,246,45,45,same,valid,anti,2,1,1,0.2612829284844338,0,f,same,1.7676323369378224,0.5883472667687079,0.49928367704160337,0.0353421271975094,0.3533125486883364,1.0010391253126727,5.767335993794404
37,26,female,247,15,15,same,valid,anti,2,0,2,0.47824780380506127,1,f,same,0.47114069981398643,0.4685351574285236,0.5003474976165307,0.03532320485464879,0.3533013235701219,1.0010695934925025,4.602700378800364
37,26,female,248,165,215,change,valid,clock,5,2,2,0.2564965376914188,1,j,change,1.0065779198066593,0.884487885307045,0.4999818794512976,0.03533795787006966,0.35328721199221036,1.001008657132843,5.002550988499934
37,26,female,249,135,185,change,valid,clock,3,1,2,0.13517801595662604,1,j,change,0.6668211456872086,0.5923410543720313,0.5000771326049289,0.035302999640407506,0.3533401304102881,1.001038804595737,4.520504925101704
37,26,female,250,45,355,change,valid,anti,3,2,2,0.16912694551319873,1,j,change,0.9197012707172689,0.8828938174804806,0.49962588281596254,0.03530460322872386,0.35329170203840476,1.001083705072233,4.813735825480762
37,26,female,251,45,95,change,catch,clock,4,0,1,0.11626978387175768,0,j,change,1.9892319035843684,0,0.5063795559144637,0.03533250566761126,0.3532945884981018,1.001056444069036,7.305200725975737
37,26,female,252,135,135,same,catch,anti,1,2,2,0.23787855511545786,1,f,same,2.626286919818085,0,0.5004626352656487,0.035325770597410155,0.35327855261493823,1.001067989904186,8.088651180063607
37,26,female,253,165,165,same,valid,clock,5,2,2,0.9361287514748255,1,f,same,1.000944192875977,0.8813223337787299,0.5000357600238203,0.03531358332475065,0.3532756661552412,1.0010840257891687,5.6624035802360595
37,26,female,254,165,115,change,valid,anti,3,1,2,0.2543377869260439,1,j,change,0.944926679125274,0.5900874895675217,0.499470334736543,0.03532705346697185,0.35331543514803343,1.0010705556451285,4.8721936801302945
37,26,female,255,15,325,change,valid,anti,1,0,2,0.3907803927322675,1,j,change,0.6691367274033837,0.46558754890951476,0.5000713596855348,0.03532544987865549,0.3533058136163163,1.0010558026315266,4.72017926836088
37,26,female,256,15,325,change,valid,anti,1,1,2,0.9069957187384716,1,j,change,1.02235658868085,0.5878855475059934,0.5001310131756327,0.035338920020876685,0.35326155457732966,1.0010647827293724,5.615717668370053
37,26,female,257,165,115,change,valid,anti,5,1,2,0.17239441733181593,1,j,change,1.02810288751607,0.5857999037595978,0.49964576731144916,0.0353822169090563,0.3532698932358471,1.0010432946419314,4.884687558431324
37,26,female,258,165,165,same,catch,clock,1,2,1,0.16001246950327186,0,f,same,1.8062012048067118,0,0.4996685382684518,0.03532288413771312,0.3532990785461152,1.0010365595717303,7.169339581341774
37,26,female,259,45,95,change,valid,clock,5,0,2,0.21546391653464525,1,j,change,0.8434855983323359,0.46272001911982774,0.5000373636103177,0.035330581362359226,0.3532945884981018,1.0010420117705507,4.779486062730939
37,26,female,260,15,65,change,catch,clock,2,1,1,0.03484533549635671,0,j,change,0.22493984138054657,0,0.4990986229349801,0.03534469294027076,0.3532833633780683,1.0010442567963764,5.4372007503516215
37,26,female,261,135,135,same,valid,clock,5,2,1,0.4727279316557542,0,j,change,1.751296260719755,0.8797554264496366,0.5007204922894744,0.03532256342077744,0.35329747495779884,1.0010577269404166,5.945902943771216
37,26,female,262,45,45,same,catch,anti,3,2,1,0.09179004408906621,0,j,change,0.05099475402130338,0,0.4994238306717307,0.0353097347124276,0.35331286940709106,1.0010580476573523,5.367289104866359
37,26,female,263,15,15,same,valid,anti,1,2,2,0.24778392094594892,1,f,same,1.0072369946574327,0.8851708817701394,0.499704458648921,0.03533218494885659,0.3532500087403605,1.0010830636365426,4.990305345689194
37,26,female,264,165,215,change,valid,clock,5,1,1,0.13184351414201956,0,j,change,0.29314687234546,0.5837855551500369,0.5004244698611728,0.035316149065693025,0.35330837935907766,1.0010474639730091,4.04858039125611
37,26,female,265,75,75,same,valid,anti,3,0,2,0.08334554733119148,1,f,same,0.980340326368605,0.45974118505484673,0.5002237005865027,0.03540145997249056,0.35330837935907766,1.0010384838788013,4.756237558158318
37,26,female,266,75,25,change,catch,anti,2,2,1,0.16168597440628218,0,j,change,0.6932101178736048,0,0.49969483711902285,0.035287284474179614,0.35333211246688734,1.0010628584223014,6.038803312500022
37,26,female,267,15,325,change,valid,anti,2,1,2,0.24291157781226502,1,j,change,1.0650639976120146,0.5871957332376987,0.500415489766965,0.0353241670090938,0.3532734211294155,1.001066065598934,5.0269563217789255
37,26,female,268,15,15,same,valid,clock,1,2,2,0.2690882348870218,1,f,same,0.9927270849602792,0.8838027870868066,0.49918810317103635,0.035332826384546934,0.3533237738083699,1.0010102607193403,4.955036983561513
37,26,female,269,135,135,same,catch,clock,2,0,1,0.39346800696876016,0,j,change,0.10314312957052607,0,0.4999289610332198,0.03532705346697185,0.3533067757707613,1.0010695934925025,5.6977168428420555
37,26,female,270,45,45,same,valid,clock,1,2,2,0.24653472554746259,1,f,same,0.8392155630190246,0.8823485450678727,0.4996720661620202,0.03534886226952949,0.3532926641910308,1.0010676691872504,4.825458057021024
37,26,female,271,75,75,same,catch,clock,1,0,1,0.2129385854495922,0,j,change,0.5254385253156215,0,0.4997445483604679,0.03528536016710859,0.3533369232336554,1.001037842441292,5.956011003181629
37,26,female,272,75,25,change,valid,anti,1,0,2,1.1386244482455368,1,j,change,2.213782393690053,0.45680244477872994,0.5006993249207881,0.035310055429363274,0.35330068213443155,1.0010728006709542,7.123934936644218
37,26,female,273,15,15,same,valid,anti,4,0,2,0.20760825745492184,1,f,same,0.7322735324196401,0.45398125654377247,0.4990004833216517,0.03533250566761126,0.3532923434740951,1.0010487468443898,4.648122983688154
37,26,female,274,75,25,change,valid,anti,2,2,2,0.2750991258199065,1,j,change,1.1143288004168426,0.8809061304232548,0.49990747294759785,0.035256816294349846,0.3533725228971889,1.0010551611976553,5.073192908161218
37,26,female,275,135,185,change,catch,clock,4,0,1,0.2162753322882054,0,j,change,0.23671306703181472,0,0.5001380689645885,0.03533859930394101,0.3533058136181353,1.0010288623470842,5.685634124618446
37,26,female,276,15,15,same,valid,clock,4,1,2,0.359579051619221,1,f,same,1.215322800750073,0.5852278658080505,0.5006355021014315,0.035316790501383366,0.35330388931106427,1.0010567647859716,5.250819513876195
37,26,female,277,105,155,change,catch,clock,1,0,1,0.23544334570215142,0,j,change,0.38388496241350367,0,0.4999026621826488,0.03531230045518896,0.3532833633798873,1.001106155310481,5.826685764337526
37,26,female,278,75,75,same,valid,clock,3,1,2,0.6306397002954327,1,f,same,0.5177987092392868,0.5833151037084442,0.5002695632174436,0.035321601266332436,0.3532824012254423,1.0010609341152303,4.88543771710647
37,26,female,279,45,45,same,valid,anti,5,2,2,0.21102967376282322,1,f,same,0.88471963019947,0.8794645168394366,0.4993423683772562,0.0353655395883834,0.35329843711042486,1.0010205236867478,4.83713121875553
37,26,female,280,135,85,change,valid,anti,5,2,1,0.16956023511193052,0,j,change,3.1189856212640734,0.8780765805180857,0.5000681525089021,0.035332826384546934,0.35326636534045974,1.0010702349300118,7.0046327670206665
37,26,female,281,45,45,same,valid,clock,2,1,2,0.1881573710397788,1,f,same,0.6858874915942579,0.5813247822964891,0.5001290888703807,0.03529017093205766,0.35331094510002004,1.0010766492832772,4.626381852254781
37,26,female,282,15,325,change,catch,anti,3,1,1,0.20817624848132255,0,j,change,0.4617395021887205,0,0.49976282926945714,0.03536842604808044,0.3533183216059115,1.0010599719626043,5.909764474550684
37,26,female,283,105,55,change,valid,anti,5,1,1,0.2039950519665581,0,j,change,1.9676514517141186,0.5793212394333943,0.49986545892897993,0.035386386240134016,0.3533045307467546,1.0010381631600467,5.932906180132704
37,26,female,284,135,135,same,valid,anti,1,2,2,0.2148965669421159,1,f,same,0.8627190381539549,0.8831197745517079,0.49970381721504964,0.035319035523571074,0.35330164428705757,1.0010240515821351,4.7551224227518105
37,26,female,285,105,105,same,valid,clock,4,1,1,0.3249665571638616,0,f,same,1.2355039613448753,0.582701710920397,0.5001611606403458,0.03533731643256033,0.3532766283060482,1.001041691055434,5.238738078523966
37,26,female,286,15,65,change,valid,clock,1,0,2,0.31662693508951634,1,f,same,1.5530199258682842,0.451094785589805,0.4998500644815067,0.035315507630002685,0.3533269809850026,1.0010481054086995,5.544734184368281
37,26,female,287,165,165,same,valid,anti,1,1,1,0.33437865918858733,0,j,change,0.2849470831861254,0.5858289084225198,0.4994424322976556,0.03533186423192092,0.35332633954931225,1.0010490675613255,4.319387993675264
37,26,female,288,165,215,change,catch,clock,4,0,1,0.24817295150387508,0,j,change,0.23903153520950582,0,0.4998737975893164,0.035328657055288204,0.35331639730247844,1.0010471432542545,5.708717459581749
37,26,female,289,75,125,change,catch,clock,5,2,1,0.1947057848174154,0,j,change,0.3482596414960426,0,0.5007791836269462,0.0353219219850871,0.35328304266295163,1.0010346352664783,5.768853309180486
37,26,female,290,75,75,same,catch,anti,5,0,1,0.22552675474980788,0,j,change,0.2851488146116026,0,0.50000881973574,0.03534052360919304,0.3532769490248029,1.0010372010074207,5.780411974701565
37,26,female,291,45,95,change,valid,clock,1,0,2,0.5698790926380752,1,j,change,0.6900654809305706,0.448175852708098,0.4994523745463084,0.03533795786825067,0.3532670067779691,1.0010782528715936,4.955395866654726
37,26,female,292,105,105,same,valid,clock,2,2,1,0.3498221780773747,0,f,same,1.2709067041869275,0.8817796456651208,0.49928367704160337,0.035338278585186345,0.35327726974355755,1.0010814600482263,5.379200880563076
37,26,female,293,45,45,same,valid,clock,3,1,2,0.24098983741896518,1,f,same,1.0173989346385497,0.5891199595924906,0.49953319540327357,0.035334750691617955,0.3533103036661487,1.0010663863176887,4.955386886558699
37,26,female,294,105,105,same,valid,anti,2,2,2,0.13891565990707022,1,f,same,0.8145459583647607,0.88636459498811,0.49990843510022387,0.0353398821735027,0.35328977773315273,1.0010484261256352,4.6136714895110345
37,26,female,295,45,45,same,valid,anti,1,2,2,0.042975528918759665,1,f,same,0.5707402196330804,0.88515765964571,0.49990619007621717,0.035334109257746604,0.35332056663173717,1.0010452189490024,4.272141467290567
37,26,female,296,165,165,same,valid,clock,1,1,2,0.194017524656374,1,f,same,0.7265035004729725,0.5872971775162201,0.5004988763648726,0.035343730787644745,0.35327310041247983,1.0010830636365426,4.614764495398049
37,26,female,297,75,25,change,valid,anti,3,2,2,0.3383517099227902,1,f,same,0.7937092508145724,0.8839810648495166,0.5000572481076233,0.03532673275003617,0.3532891362992814,1.0010705556469475,4.778745846304446
37,26,female,298,15,15,same,valid,anti,3,2,2,0.23077658260626777,1,f,same,0.3620036773481843,0.8827277141384486,0.49981606840628956,0.03529434026313538,0.3533545627051353,1.00104265320806,4.272105226191343
37,26,female,299,135,185,change,valid,clock,1,2,2,1.1403168754914077,1,j,change,0.6377525772077206,0.8814837092194723,0.5000508337543579,0.035297547439768096,0.3533423754342948,1.0010625377035467,5.474405926606778
37,26,female,300,15,15,same,valid,anti,4,1,2,0.1921612106707471,1,f,same,0.6132558393874206,0.5855557734009569,0.49912235604278976,0.03531807337094506,0.353308058640323,1.0010455396659381,4.4951294208131
37,26,female,301,15,325,change,valid,anti,4,0,2,0.1148608710627741,1,j,change,0.9801376327886828,0.4453804740827396,0.5079671084768052,0.035356238775420934,0.3532737418481702,1.0010493882782612,4.834512238106981
37,26,female,302,105,55,change,catch,anti,2,2,1,0.1052210594771168,0,j,change,1.9435979457393842,0,0.499680084105421,0.03536618102589273,0.35329747495779884,1.0010606133982947,7.322725381951386
37,26,female,303,165,215,change,valid,clock,1,1,2,1.9069488939567236,1,j,change,1.34338120472421,0.5838644112334265,0.4997413411838352,0.03529434026313538,0.3533349989265844,1.0010448982302478,6.957582840577743
37,26,female,304,135,135,same,valid,clock,1,1,2,0.5587319079149893,1,f,same,1.0266955782972218,0.5821101900804274,0.4995995839653915,0.035335392127308296,0.35329971998180554,1.0010112228737853,5.308287633735745
37,26,female,305,105,105,same,catch,anti,4,0,1,0.2607104474100197,0,j,change,0.4925312868126639,0,0.49989881356850674,0.03529850959239411,0.3533269809850026,1.0010532368924032,5.96820180326722
37,26,female,306,135,135,same,valid,clock,1,0,2,0.06646938252379186,1,j,change,1.0517096337498515,0.4426529956939006,0.49995109055271314,0.03530909327673726,0.35329394706423045,1.001078894305465,4.8143599421036924
37,26,female,307,165,165,same,valid,clock,3,2,2,3.2824557481762895,1,f,same,1.1422758191365574,0.8802379269139033,0.4995492312882561,0.03531037614811794,0.35330934151352267,1.0009541351246298,8.111308601935889
37,26,female,308,165,165,same,valid,anti,3,0,2,0.13630277289303194,1,f,same,0.8696693111978675,0.43981688478349146,0.5001836108767748,0.0352808701190952,0.35335552485776134,1.001067027753379,4.684606545142742
37,26,female,309,75,125,change,valid,clock,1,0,2,0.16549545911766472,1,j,change,0.9794529005230288,0.4370183641212704,0.5004392228765937,0.03525168481064611,0.3533738057667506,1.0010692727773858,4.838637950459088
37,26,female,310,15,65,change,catch,clock,5,2,1,0.19914964911913557,0,j,change,0.24977172918443102,0,0.4997564149161917,0.03535174872922653,0.3533202459129825,1.0010493882782612,5.614739158700104
37,26,female,311,105,55,change,catch,anti,4,2,1,0.24654595066567708,0,j,change,0.08652738752607547,0,0.5004273563208699,0.035319676961080404,0.3532945884999208,1.0010711970826378,5.579810115885266
37,26,female,312,15,325,change,catch,anti,5,0,1,0.17066157965746243,0,j,change,0.2346874141094304,0,0.5002605831214169,0.035279587249533506,0.3533292260090093,1.0010285416301485,5.662363169805758
37,26,female,313,75,125,change,catch,clock,4,0,1,0.14131077961064875,0,j,change,0.19778659893927397,0,0.5000187619843928,0.03533859930394101,0.35327277969554416,1.001085629377485,5.591475901112062
37,26,female,314,135,135,same,valid,clock,3,1,2,0.20631287870855886,1,f,same,1.3386333000526065,0.5803462996242219,0.4999491662456421,0.03529498169700673,0.35331992519422784,1.0010702349281928,5.203403007113593
37,26,female,315,75,25,change,valid,anti,2,0,1,0.18839662643586053,0,j,change,0.3722178943153267,0.4343377020510857,0.4991566728349426,0.03528696375542495,0.35330837935907766,1.0010920437307504,4.283198851060661
37,26,female,316,165,165,same,valid,anti,1,2,2,0.14103592454921454,1,f,same,0.6794763449852326,0.8790012161567669,0.5004289599091862,0.03531358332475065,0.35334173399860447,1.0010179579458054,4.4967025410787755
37,26,female,317,75,75,same,valid,clock,2,1,2,0.1607671182264312,1,f,same,0.6346948547579814,0.578591985951685,0.5002612245589262,0.035349182988284156,0.35330196500581224,1.0010304659354006,4.4617658010392915
37,26,female,318,15,65,change,catch,clock,1,0,1,0.1417726130821393,0,j,change,0.2913104428553197,0,0.4994802769851958,0.03531037614811794,0.3532900984519074,1.001033031676343,5.614570461195399
37,26,female,319,15,15,same,valid,clock,1,1,2,0.4953831085058482,1,f,same,0.7858853427842405,0.5769276712053709,0.500368664983398,0.035324487726029474,0.3533058136181353,1.0010420117723697,5.014870717095619
37,26,female,320,45,45,same,valid,anti,4,2,2,0.01742651636050141,1,f,same,0.36102484696311876,0.8778200313355575,0.499494709280043,0.03531518691306701,0.35330966223045834,1.0010676691872504,4.037036478750451
37,26,female,321,165,215,change,valid,clock,2,1,2,0.649993729968628,1,j,change,0.7457879344074172,0.5753283254483227,0.4993847031128098,0.03532609131434583,0.353331471033016,1.0010728006691352,5.0845219398161134
37,26,female,322,105,55,change,valid,anti,5,0,2,0.11855746314904536,1,f,same,0.8378165924568748,0.4367845093252496,0.5000995828413579,0.03534405150458042,0.35329298490978545,1.001033993828969,4.6615988995527005
37,26,female,323,75,75,same,valid,clock,5,1,2,0.0252600459207315,1,f,same,0.411396446512299,0.5737678151045684,0.4998109369225858,0.03534501365720644,0.3533077379233873,1.0010673484703148,4.060646752877801
37,26,female,324,165,115,change,valid,anti,5,0,2,0.20900594514205295,1,j,change,0.645893033595712,0.43418281311830426,0.49949342641048133,0.03531422476044099,0.35332762242069293,1.0010404081840534,4.543306028499501
37,26,female,325,105,105,same,valid,clock,5,2,2,0.06595591350560426,1,f,same,0.7712718412749382,0.8766858532213693,0.4995492312882561,0.03534276863501873,0.35330421002799994,1.0010721592352638,4.519503003040882
37,26,female,326,75,75,same,valid,clock,5,0,1,0.01834890043573978,0,j,change,0.21041100933871348,0.43152646677600603,0.49958996243549336,0.0353475793999678,0.3532811183558806,1.001016354357489,3.9192217977706605
37,26,female,327,165,165,same,valid,clock,5,0,2,0.044226327907381346,1,f,same,1.1574990049739426,0.43395697814325196,0.49949086066771997,0.03534341006889008,0.3532958713694825,1.0010715177995735,4.872426521171292
37,26,female,328,45,45,same,valid,anti,1,1,2,0.49983178357251745,1,f,same,0.9364767301685788,0.5721437565994467,0.500391115221646,0.03530396179303352,0.35332730170375726,1.0010500297139515,5.1567119637638825
37,26,female,329,75,75,same,valid,clock,2,0,1,0.4933295531409385,0,f,same,1.120093059444116,0.43136920408656143,0.4997121558735671,0.03529434026313538,0.35332762242069293,1.0010558026333456,5.36778461369795
37,26,female,330,45,45,same,catch,clock,1,0,1,0.14897593238310947,0,j,change,0.5059902046414209,0,0.49974583123184857,0.03531775265400938,0.3532955506507278,1.0010420117723697,5.8735368458110315
37,26,female,331,75,25,change,catch,anti,3,0,1,0.6223212455897738,0,f,same,1.4998086918985791,0,0.500815424724351,0.035321601266332436,0.3533224909369892,1.0010269380418322,7.418029209044107
37,26,female,332,75,25,change,valid,anti,1,1,1,0.49917687805100286,0,j,change,3.1183233392366674,0.5705073870636812,0.4996922713780805,0.03536425671882171,0.3533000406987412,1.0010728006691352,7.3934910986408795
37,26,female,333,15,15,same,valid,anti,3,1,2,0.08757517221783928,1,f,same,0.8446295983303571,0.5732469765207645,0.49921953350349213,0.03531935624232574,0.3533221702200535,1.001038804595737,4.61303678920558
37,26,female,334,105,155,change,valid,clock,4,2,2,0.07335775705359993,1,j,change,0.7660723660992517,0.8755885561587826,0.49981606840447057,0.035307810407175566,0.3533212080674275,1.0010333523932786,4.508099564882286
37,26,female,335,135,85,change,catch,anti,1,1,1,0.07996614504190802,0,j,change,0.21383787785089226,0,0.4998167098401609,0.035334109255927615,0.3532788733300549,1.0010711970826378,5.473579437120861
37,26,female,336,165,115,change,valid,anti,5,2,2,0.9068754496056499,1,j,change,0.7848468589072581,0.8745189557255495,0.500062379589508,0.03532801561959786,0.3533167180194141,1.001032069523717,5.450587827415802
37,26,female,337,105,105,same,valid,anti,4,0,1,0.5331495407172042,0,f,same,1.2801254134446935,0.43374152887370565,0.4994302450249961,0.035332826384546934,0.3532445565379021,1.0011048724391003,5.532288093003444
37,26,female,338,15,325,change,valid,anti,3,1,2,0.26685956766596064,1,j,change,1.2812463217687764,0.5716770187796423,0.4996945164002682,0.035338920020876685,0.35328945701439807,1.001065103446308,5.249384622933576
37,26,female,339,105,155,change,valid,clock,4,1,2,0.11729992909022258,1,j,change,0.7390894247510005,0.5700872181638948,0.5003843801496259,0.03534148576181906,0.35327502471955086,1.0010740835405159,4.520576124428771
37,26,female,340,105,155,change,catch,clock,4,2,1,0.0411352508199343,0,j,change,0.2204279849283921,0,0.49976411213901883,0.03531422476044099,0.35332762241887394,1.0010432946437504,5.414663918330916
37,26,female,341,45,355,change,valid,anti,1,2,2,0.1395942985363945,1,j,change,0.6523160467568232,0.8733810397808235,0.4998612895997212,0.035334109255927615,0.3532657239065884,1.0010756871288322,4.508371212765269
37,26,female,342,165,115,change,valid,anti,4,1,2,0.21731189185811672,1,j,change,0.595963062301962,0.5685112810621776,0.4987067059191759,0.03542262733753887,0.3532990785461152,1.001040728900989,4.51877016312028
37,26,female,343,105,105,same,valid,clock,3,2,2,0.0918859386783879,1,f,same,0.8260738349854364,0.872253781381104,0.49944884665092104,0.035326412033100496,0.3533144729954074,1.0010022427795775,4.625113734509796
37,26,female,344,135,135,same,valid,anti,1,1,1,0.3672172641054203,0,j,change,3.398363762493318,0.5670140906935115,0.5000886784400791,0.03532833633653354,0.3532977956747345,1.0010516333022679,7.499492464257855
37,26,female,345,15,15,same,valid,clock,2,0,2,0.033797230089476216,1,f,same,0.9147981386831816,0.43600165200980423,0.4999908595455054,0.035340202892257366,0.3533138315597171,1.0010558026333456,4.614492206079376
37,26,female,346,105,55,change,valid,anti,1,2,2,0.05753547057429387,1,j,change,0.7355522293582908,0.8711278937709177,0.4995793787511502,0.03534597581165144,0.3532843255325133,1.0010833843534783,4.448538762100725
37,26,female,347,45,95,change,catch,clock,1,1,1,0.044546083443492535,0,j,change,0.18379689333596616,0,0.4998577617043338,0.03526419280024129,0.3533471861992439,1.0010689520586311,5.415146598450519
37,26,female,348,75,125,change,valid,clock,3,2,2,1.7377401654321147,1,j,change,1.2056829891662346,0.8699944114207709,0.49941549201139424,0.03532224270202278,0.3533157558667881,1.001038804595737,6.639402990434974
37,26,female,349,105,105,same,valid,clock,5,1,2,0.5186656091536861,1,f,same,1.8904120484658051,0.569690819223164,0.49954217549930036,0.03533795786825067,0.3533157558649691,1.0010558026333456,6.133363395270862
37,26,female,350,75,75,same,catch,clock,2,1,1,0.26792306752395234,0,j,change,0.44473601245772443,0,0.49919131034766906,0.03535046585784585,0.3532833633798873,1.001081780765162,5.991298929091499
37,26,female,351,75,25,change,catch,anti,1,2,1,0.01728251411805104,0,j,change,0.4554928837569605,0,0.5081765371269285,0.03533186423192092,0.3533269809850026,1.0010080156971526,5.717961826256214
37,26,female,352,15,15,same,valid,anti,3,0,2,0.18923305816861102,1,f,same,0.8917449511809536,0.4336098705996406,0.49930708943247737,0.035343089351954404,0.35331511443109775,1.00106029267954,4.802262791583416
37,26,female,353,75,125,change,valid,clock,2,2,2,0.21565570571146964,1,j,change,0.7513405197605607,0.8688724105132424,0.4991807266615069,0.035362332413569675,0.3533032478753739,1.0010548404789006,4.637186510486572
37,26,female,354,105,55,change,valid,anti,5,2,2,0.14077421891670383,1,j,change,0.6784734607717837,0.8677995577652127,0.49911818671353103,0.03532673275003617,0.3533058136181353,1.0010558026333456,4.496012035893727
37,26,female,355,15,325,change,valid,anti,3,2,2,0.08353252574488579,1,j,change,0.6109107516440417,0.8667666745972464,0.499586434538287,0.03533026064360456,0.3533103036643297,1.0010532368924032,4.354696766236884
37,26,female,356,75,25,change,valid,anti,1,2,2,0.12183102860217332,1,f,same,2.0771771840136353,0.8657654547891209,0.4998003532382427,0.03533154351498524,0.3533157558667881,1.0010513125853322,5.921525833649866
37,26,female,357,75,75,same,catch,anti,3,2,1,0.21917558235145407,0,j,change,0.2449943184856238,0,0.4996422394178808,0.03532256341895845,0.3533202459148015,1.0010689520586311,5.673598872614093
37,26,female,358,165,165,same,valid,anti,4,2,2,0.04847744087965111,1,f,same,0.8040661871509656,0.8647883041685416,0.4999061900743982,0.0353543144701689,0.3532942677811661,1.0010647827293724,4.567380701839284
37,26,female,359,105,55,change,valid,anti,1,0,2,0.08425798915777705,1,j,change,0.5558925942114001,0.4311501121459381,0.4991941968055471,0.03530877255980158,0.353309982947394,1.0010513125853322,4.295205879911009
37,26,female,360,105,155,change,valid,clock,1,1,2,0.10689809227369551,1,j,change,0.720761691682128,0.5681851102873716,0.500179441545697,0.03531582834875735,0.3533189630434208,1.001034955983414,4.472668919601347
37,26,female,361,15,15,same,catch,clock,3,2,1,0.09966013546545582,0,j,change,0.26826912191063457,0,0.5003247266613471,0.03530684825273056,0.35333050888038997,1.001033031676343,5.532634147390127
37,26,female,362,135,185,change,valid,clock,2,1,2,1.0864991643702524,1,j,change,0.7734767753881897,0.5667505137102924,0.5007576955413242,0.03529658528532309,0.3533269809850026,1.001056444067217,5.544903844025612
37,26,female,363,135,85,change,valid,anti,4,2,2,0.374172347914282,1,j,change,0.9272746982278477,0.8637482925913136,0.49989656854450004,0.03531871480845439,0.3533058136181353,1.0010715177995735,4.932140627010085
37,26,female,364,45,355,change,valid,anti,4,2,2,0.09916911668187822,1,j,change,1.1552956744471885,0.862718269275834,0.4992746969455766,0.035356880212930264,0.35331415227847174,1.0010224479938188,4.931025812320513
37,26,female,365,135,85,change,valid,anti,3,1,2,0.05973431105303462,1,j,change,1.1960604963351216,0.5653654973708911,0.5004440336415428,0.03532063911370642,0.3532977956747345,1.001067027753379,4.885652277238478
37,26,female,366,135,135,same,valid,clock,1,2,2,0.1315901471680263,1,f,same,2.5366001423335547,0.8616904176338638,0.4998276142432587,0.03530460322872386,0.353307096487697,1.0010830636365426,6.403688317570413
37,26,female,367,15,15,same,valid,clock,3,1,2,0.024913350098358933,1,f,same,0.7301346661515709,0.5640105256503449,0.5004937448829878,0.03532128054939676,0.35328753270914603,1.0010724799521995,4.426684417321667
37,26,female,368,15,65,change,valid,clock,4,0,1,0.025964341966755455,0,j,change,0.7395538239652524,0.42865551903953236,0.4994658446885296,0.03531518691306701,0.3533013235701219,1.0010448982320668,4.472514333674553
37,26,female,369,15,65,change,valid,clock,5,2,1,0.058152210691332584,0,j,change,1.1981185417480447,0.8606572111373021,0.4996887434826931,0.035348541552593815,0.35329490921685647,1.0010580476555333,4.87260644379603
37,26,female,370,45,355,change,catch,anti,5,0,1,0.30733446076192195,0,j,change,1.5368400391671457,0,0.499870269695748,0.03532641203128151,0.35331094510002004,1.001044577513312,7.064203512050881
37,26,female,371,135,135,same,valid,anti,4,0,2,0.09823230031179264,1,j,change,1.0202363240368868,0.43100919227659246,0.4996297314282856,0.035323846290339134,0.353309982947394,1.0010452189490024,4.801768565625025
37,26,female,372,75,25,change,valid,anti,4,1,2,0.559345761570512,1,j,change,1.5888036813266808,0.5625996000510194,0.49996456069493433,0.03533218494885659,0.3533237738083699,1.0010327109594073,5.7682038558596105
37,26,female,373,75,125,change,valid,clock,2,0,1,0.15868918831802148,0,j,change,1.0226089935003984,0.42857557444633976,0.49965250238346925,0.035315507630002685,0.35328528768513934,1.0010760078475869,4.826160428761796
37,26,female,374,45,45,same,valid,anti,1,0,2,0.16381586058014364,1,f,same,1.214504329207557,0.43087363565160886,0.49967270759771054,0.03535431447198789,0.3533022857227479,1.0010506711496419,5.190670194133418
37,26,female,375,45,355,change,valid,anti,4,0,2,0.09870952823439438,1,j,change,0.9945494028725079,0.4284985471785403,0.5003507047931635,0.035292736674819025,0.3533026064396836,1.001088515837182,4.7207504665657325
37,26,female,376,45,95,change,valid,clock,5,1,2,0.08879646517925721,1,j,change,0.6344953683546919,0.5611799827468695,0.49975962209282443,0.03529658528714208,0.35334878978756024,1.001040728900989,4.3666425380069995
37,26,female,377,45,95,change,valid,clock,3,2,2,0.09343372224611812,1,j,change,0.844950636737849,0.8642437508679459,0.4999915009811957,0.03532224270202278,0.3533022857227479,1.001034955983414,4.590623433494329
37,26,female,378,165,215,change,catch,clock,2,1,1,0.05377441423297569,0,j,change,0.3038614089055045,0,0.5000915649015951,0.0353097347124276,0.3533199251960468,1.0010009599081968,5.591780582917636
37,26,female,379,75,75,same,valid,clock,2,2,3,1.2978492351048772,1,f,same,1.7487151247569273,0.8632664177797345,0.4999635985423083,0.03527124858919706,0.3533366025167197,1.001031107371091,6.781677847418905
37,26,female,380,75,25,change,valid,anti,2,1,2,0.6366214059180493,1,j,change,1.1811997214881558,0.5597321349421456,0.4988978536603099,0.03531230045336997,0.3533122279714007,1.0010667070346244,5.532113622581164
37,26,female,381,45,95,change,valid,clock,1,1,2,0.07838212037313497,1,j,change,0.8725176049956644,0.5583159759748626,0.4994706554534787,0.03532480844296515,0.3532766283078672,1.0010692727755668,4.578501266994863
37,26,female,382,135,135,same,catch,clock,3,0,1,0.06754186247781035,0,j,change,0.2555542691206938,0,0.4997932974492869,0.03530877255798259,0.3533269809850026,1.0010708763657021,5.496677525099585
37,26,female,383,135,85,change,valid,anti,3,0,1,0.6508215023241064,0,j,change,1.2853207192929403,0.42623419837291343,0.5008895105111151,0.035342447916264064,0.3533138315597171,1.0010541990450292,5.639974188639826
37,26,female,384,135,85,change,valid,anti,4,0,1,0.14410904145006498,0,j,change,0.3800334636835032,0.42842430514874785,0.49925609532147064,0.035385744804443675,0.3532577059631876,1.0010997409572155,4.178200369658953
37,26,female,385,165,165,same,valid,anti,2,0,2,0.2084995319128211,1,f,same,0.8537078332410601,0.43061734408807406,0.4996364664984867,0.03530909327673726,0.3532971542390442,1.0010744042592705,4.778769258697139
37,26,female,386,45,45,same,valid,clock,2,0,1,0.7796448179888102,0,j,change,1.4041260972153395,0.42835272111431466,0.4999305646197172,0.035273493613203755,0.35336290136547177,1.00104265320806,5.838673870841376
37,26,female,387,15,15,same,valid,clock,2,2,2,0.4355407155908324,1,f,same,0.868171559590337,0.8622942184758164,0.5001095250918297,0.03531582834875735,0.3533067757707613,1.001067989904186,5.026515655674302
37,26,female,388,75,25,change,valid,anti,5,2,2,0.21821599502618483,1,j,change,1.3592525610110897,0.8613202923107124,0.5000495508829772,0.035357521646801615,0.3532868912734557,1.001062216986611,5.27377552391772
37,26,female,389,135,135,same,valid,anti,3,2,2,0.3005416601044999,1,f,same,1.023077562045728,0.8603379719036266,0.500056606671933,0.03533122279623058,0.3532881741448364,1.0009955077075574,5.03769042211934
37,26,female,390,135,135,same,valid,clock,2,2,2,0.19912014309193182,1,f,same,0.384899071746986,0.8593466909030163,0.5005097807679704,0.03532641203128151,0.35331415227665275,1.0010596512456686,4.22566787053438
37,26,female,391,165,215,change,valid,clock,3,1,3,0.8018461793053575,1,j,change,1.0832034693958121,0.5569659024929519,0.500080019064626,0.03530684825273056,0.3533103036661487,1.001038804595737,5.521327245256543
37,26,female,392,15,15,same,catch,clock,5,2,1,0.12748464002834226,0,j,change,0.21721054506815562,0,0.499776620128614,0.03533282638636592,0.3533147937123431,1.0010506711496419,5.532697328773793
37,26,female,393,75,75,same,catch,clock,3,0,1,0.08201136174466228,0,j,change,0.33098193814112165,0,0.5000338357167493,0.03533250566761126,0.35330517218062596,1.001067989906005,5.6618144218409725
37,26,female,394,105,105,same,valid,anti,1,1,3,0.4749678239986679,1,f,same,1.0607641355527448,0.5556628820993053,0.5001303717399423,0.035333467820237274,0.35331832160773047,1.0010365595699113,5.285265876567792
37,26,female,395,45,45,same,catch,anti,1,0,1,0.07653510720047052,0,j,change,0.5007855979802116,0,0.5004523723000602,0.03529049165081233,0.3533311503142613,1.0010189200984314,5.768755490285912
37,26,female,396,105,55,change,valid,anti,2,1,2,0.4085455869717407,1,j,change,0.6316355287199258,0.554389594644233,0.5002192105403083,0.035339561456567026,0.3532734211312345,1.0010804978956003,4.755851414060089
37,26,female,397,15,65,change,valid,clock,3,1,2,0.427259784855778,1,j,change,0.9563108742204349,0.5530666028353793,0.49957328511482046,0.035328657055288204,0.35326732749308576,1.0010930058851955,5.026330922284615
37,26,female,398,15,325,change,valid,anti,3,0,2,0.10498629412904847,1,j,change,0.6565835163291922,0.4304960323397144,0.49966789683276147,0.0353187148066354,0.35326059242288466,1.0010965337787638,4.389657239384178
37,26,female,399,15,15,same,catch,anti,1,1,1,0.06372051121252298,0,j,change,0.22483913602445682,0,0.5003144636957586,0.035316790501383366,0.35332184950129886,1.0010692727755668,5.473616319655775
37,26,female,400,105,105,same,valid,anti,4,2,2,0.217521320510059,1,f,same,1.3497022296614887,0.8583909807508991,0.5008019545821298,0.035323846290339134,0.35330517218244495,1.0010455396677571,5.297836406396527
37,26,female,401,165,115,change,valid,anti,1,1,1,1.091803834948223,0,j,change,1.4597815206961968,0.5517392863082893,0.504658584795834,0.035377406144107226,0.3532734211312345,1.0010420117723697,6.267724222556353
37,26,female,402,135,85,change,valid,anti,3,2,2,0.18057624630091595,1,j,change,0.9207718263623974,0.8574716938405353,0.4994395458379586,0.035316149065693025,0.35330068213443155,1.0010577269385976,4.802114940730462
37,26,female,403,45,95,change,valid,clock,4,1,2,0.29746758105284243,1,j,change,1.233858679599507,0.5539465057046207,0.49945333669893444,0.03528985021512199,0.35331511443109775,1.0010590098099783,5.214172707117541
37,26,female,404,135,85,change,valid,anti,1,0,2,0.13160618305118987,1,j,change,0.7620268331666011,0.42828367300982506,0.4995036893760698,0.03531454547737667,0.3533054928993806,1.0010699142112571,4.590045500217457
37,26,female,405,165,215,change,valid,clock,1,0,2,0.13220528369674867,1,j,change,0.7492962652104325,0.42618155378394884,0.50008386767513,0.03531743193525472,0.35326732749490475,1.001081780765162,4.578662908710612
37,26,female,406,135,185,change,valid,clock,3,0,2,0.07591644277817977,1,j,change,1.0270961546902981,0.4241454240485938,0.5004552587597573,0.03532737418390752,0.35326636534045974,1.0010785735885293,4.790847807589671
37,26,female,407,15,65,change,valid,clock,5,1,2,0.14123637310694903,1,j,change,0.723446098741988,0.5526613448635279,0.5002570552278485,0.035291453803438344,0.3533311503142613,1.0010468225373188,4.567394171981505
37,26,female,408,105,105,same,valid,clock,4,0,1,0.04595659984079248,0,j,change,1.2589551594974182,0.4220620933755539,0.49995558060072653,0.03531807337094506,0.3533013235701219,1.0010343145477236,5.03772153173486
37,26,female,409,105,105,same,valid,clock,5,0,1,0.0021882567925786134,0,j,change,0.23580639812462323,0.4239604752702057,0.5003324238841742,0.03529177452037402,0.3533180008889758,1.0010702349300118,3.9665969319503347
37,26,female,410,105,105,same,catch,clock,4,1,2,0.12255488842674822,1,j,change,0.5726411133764486,0,0.5001877802060335,0.03533731643437932,0.353283684096823,1.0010689520568121,5.885674727478545
37,26,female,411,105,105,same,catch,anti,4,1,1,0.15732677957385022,0,f,same,3.58251120026398,0,0.5004892548349744,0.03531005543118226,0.35328753270914603,1.001078894305465,9.054637465535052
37,26,female,412,135,185,change,valid,clock,4,1,2,0.0753346608908032,1,j,change,0.9401374018725619,0.5513664156929248,0.49962941070953093,0.03536072882525332,0.3532580266819423,1.0010391253126727,4.7432603583001764
37,26,female,413,135,85,change,valid,anti,5,1,2,0.07736801103965263,1,j,change,1.2345937645422964,0.5500453822678013,0.49944211157890095,0.03536265313050535,0.35330164428705757,1.0010516333022679,5.002026935795584
37,26,female,414,105,105,same,valid,anti,3,1,2,0.14347017181171395,1,f,same,1.428375561696157,0.5487252440862315,0.49960247042508854,0.035338920020876685,0.3532971542390442,1.0010740835405159,5.3560046529728425
37,26,female,415,15,15,same,valid,clock,3,0,1,0.5402598518849118,0,f,same,1.169478772819275,0.42578853076291845,0.4998513473510684,0.035325129161719815,0.3533147937123431,1.0010474639730091,5.473742682424927
37,26,female,416,165,165,same,valid,clock,4,0,2,1.7234964514191233,1,f,same,0.9967389425364672,0.4277336719351038,0.4997333232422534,0.035301075335155474,0.35326283744689135,1.0010872329658014,6.45144125718798
37,26,female,417,135,185,change,valid,clock,5,1,2,0.12116842585601262,1,j,change,0.6814859620262723,0.5474684699989408,0.4997333232404344,0.03534661724734178,0.3533048514655093,1.0010474639730091,4.484675948449876
37,26,female,418,135,85,change,valid,anti,1,2,2,3.292488438928558,1,j,change,2.688791269551075,0.8565822162868193,0.49950785870532854,0.035455340543194325,0.35333531964352005,1.0010497089970158,9.689747970418466
37,26,female,419,105,105,same,valid,anti,1,2,2,0.142364978655678,1,f,same,1.0813134800537227,0.8557164818889762,0.49989624782756437,0.035325129161719815,0.35328175979157095,1.001041691055434,4.93247641842936
37,26,female,420,105,55,change,valid,anti,2,2,2,0.5714554200803832,1,j,change,1.4202399160749337,0.8548688759215017,0.4995838687973446,0.03532128054757777,0.3533176801720401,1.0010497089970158,5.685682873707265
37,26,female,421,165,165,same,catch,clock,3,0,1,0.010970469276799122,0,j,change,0.31220103097984975,0,0.4994825220073835,0.035361049542188994,0.35329073988759774,1.0010484261256352,5.56737011815494
37,26,female,422,75,75,same,valid,anti,3,1,1,0.02895920374794514,0,j,change,0.26500165009201737,0.5462590838211332,0.5003048421622225,0.03530781040535658,0.35333852682197175,1.001056444069036,4.084688392296812
37,26,female,423,105,155,change,valid,clock,2,2,1,0.045468467516911915,0,j,change,0.9444045507279952,0.8539646343143921,0.4991922725002951,0.03533795786825067,0.35330164428705757,1.0010570855029073,4.659987934599485
37,26,female,424,75,75,same,valid,anti,2,2,1,0.4376022888991429,0,f,same,1.3145611924537661,0.857039537568173,0.5004700117733591,0.03532673275003617,0.3532676482136594,1.0010917230138148,5.509628426105337
37,26,female,425,45,355,change,catch,anti,3,2,1,0.10083588651286846,0,j,change,1.7345057275379077,0,0.4999748236605228,0.03534116504670237,0.35327053467153746,1.0010766492832772,7.004652010082282
37,26,female,426,165,165,same,catch,anti,3,2,1,0.005446427798233344,0,j,change,0.3432782543459325,0,0.5001169015977212,0.03532641203128151,0.35330645505200664,1.0010785735885293,5.615488034505688
37,26,female,427,165,115,change,catch,anti,3,2,1,0.036364575193147175,0,j,change,0.10649815731630952,0,0.4996550681244116,0.03535495590585924,0.3532933056285401,1.0010516333022679,5.355487335338694
37,26,female,428,165,165,same,valid,anti,5,1,2,0.14697401256489684,1,f,same,2.165354664051847,0.5484451043066031,0.49996103279954696,0.035279587249533506,0.3533391682576621,1.0010561233502813,6.062307429072462
37,26,female,429,135,85,change,catch,anti,5,2,2,2.2558862119294645,1,j,change,0.7975819169096212,0,0.4999212638085737,0.035292095239128685,0.3533356403622747,1.0010458603846928,8.27721939046387
37,26,female,430,15,65,change,valid,clock,4,1,2,0.12905519455125614,1,f,same,1.85042560841066,0.5472338798268188,0.4992269100093836,0.03533250566761126,0.3532933056285401,1.0010618962678564,5.69733583022753
37,26,female,431,45,95,change,valid,clock,2,2,2,0.4371430211667757,1,j,change,2.816668147313976,0.8603711085144403,0.49943441435607383,0.03533154351316625,0.3533237738083699,1.001059330526914,7.004601336688211
37,26,female,432,75,125,change,valid,clock,5,0,2,0.09843146599814645,1,j,change,3.2958572575371363,0.4257793900430268,0.4993189559882012,0.035325129161719815,0.35330421002799994,1.0010792150242196,7.1342450481988635
37,26,female,433,105,155,change,valid,clock,4,0,1,0.06724904722796055,0,j,change,0.21525545003532898,0.4238766970171879,0.4994106812446262,0.03530877255980158,0.35330870007601334,1.0010538783262746,3.965411559371205
37,26,female,434,135,85,change,catch,anti,4,0,1,0.0431900890525867,0,j,change,0.17597266458869854,0,0.5002570552278485,0.03529369882744504,0.3533292260090093,1.0010567647859716,5.462502810289152
37,26,female,435,75,125,change,valid,clock,4,0,2,0.26421589175333793,1,j,change,1.216035756173369,0.42562711362344285,0.4999706543312641,0.0353331471033016,0.3533279431376286,1.001030145216646,5.22677819517412
37,26,female,436,135,135,same,valid,anti,5,0,1,0.03551306972622115,0,j,change,0.3541643748721981,0.4237647130339786,0.4992432666131208,0.03528985021512199,0.3533388475407264,1.0010404081840534,4.083079672367603
37,26,female,437,75,75,same,catch,anti,5,2,1,0.024083653435809538,0,j,change,0.21979745395037753,0,0.4997676400344062,0.03528888806249597,0.35331319012402673,1.0010644620087987,5.462039693946281
37,26,female,438,75,75,same,catch,clock,3,1,1,0.16849737668962916,0,j,change,0.3985404779396049,0,0.5000662282018311,0.03530620681704022,0.35332313237267954,1.0010500297139515,5.826887175044249
37,26,female,439,45,95,change,valid,clock,1,2,2,0.36409443596494384,1,j,change,0.6233186776044022,0.859467145827522,0.5006900241096446,0.035302999640407506,0.35329394706241146,1.0010804978937813,4.708941320528538
37,26,female,440,75,75,same,valid,anti,5,1,2,0.9238718835458712,1,f,same,0.9010897024909355,0.5460655339908809,0.49946520325465826,0.03532609131434583,0.35325642309180694,1.00107985645991,5.508967747668066
37,26,female,441,45,45,same,catch,clock,2,2,1,0.14208050206434564,0,j,change,0.6755331209969881,0,0.4992022147471289,0.03535495590585924,0.35329073988577875,1.001078894305465,6.038198759657462
37,26,female,442,15,325,change,valid,anti,1,2,2,0.08867042312704143,1,j,change,0.8663963871804299,0.8585929930345435,0.5005229301932559,0.035339561456567026,0.35329170204022375,1.0010352767003496,4.732918174975566
37,26,female,443,135,135,same,valid,anti,2,2,1,1.1028907247473398,0,j,change,2.511088653745901,0.8577521897526723,0.49959252817643574,0.03532352557340346,0.3532798354844999,1.0010663863176887,7.310750424871003
37,26,female,444,135,135,same,catch,clock,3,1,1,0.069285283836507,0,j,change,0.2508432469840045,0,0.49941196411600686,0.03534950370521983,0.35326604462352407,1.0010647827275534,5.497098948142593
37,26,female,445,75,75,same,valid,clock,4,1,1,0.08860820389600121,0,j,change,0.2246220101496874,0.5449260502640472,0.4997669985987159,0.035323846290339134,0.353308058642142,1.0010628584223014,4.001590759738974
37,26,female,446,105,155,change,valid,clock,5,0,1,0.05326768028317019,0,j,change,0.22408897735112987,0.42548068414167395,0.4997346061118151,0.03530877255798259,0.3532859291208297,1.0010429739249957,3.954419602006965
37,26,female,447,165,215,change,valid,clock,4,2,2,0.13497660524990351,1,j,change,1.9418689566755347,0.8609587616277468,0.4994748247827374,0.035349182988284156,0.35330613433507096,1.0010657448819984,5.803196721495624
37,26,female,448,45,45,same,valid,anti,3,2,2,0.20749825128768862,1,f,same,0.5516350668858649,0.8601013744318902,0.499941469020996,0.035347900116903475,0.35331735945510445,1.001030145216646,4.425664214351855
37,26,female,449,165,165,same,valid,clock,1,2,2,0.07508546324606868,1,f,same,0.7973420200778492,0.8592409387515898,0.5000761704523029,0.035343089351954404,0.35324038720864337,1.0010801771768456,4.684672612986105
37,26,female,450,165,165,same,valid,anti,2,2,2,0.09894814219478576,1,f,same,0.5526023514394183,0.858414533422444,0.5001589156145201,0.03533667499686999,0.35329651280335383,1.001081780765162,4.39058347206992
37,26,female,451,45,45,same,valid,clock,3,0,1,0.2704294762643258,0,f,same,2.5551584714212368,0.42730401528038253,0.5004183762248431,0.035358804518182296,0.3532734211312345,1.0010586890912236,6.581136283530213
37,26,female,452,165,165,same,catch,clock,4,1,2,0.1230417378792481,1,f,same,1.9449751074953383,0,0.49996071208443027,0.03533699571562465,0.3532756661534222,1.0011542629636097,7.311386087330902
37,26,female,453,75,25,change,valid,anti,5,0,2,0.3312988072175358,1,j,change,1.1713450290517358,0.42913033223070063,0.49969034707100946,0.03533507140855363,0.35330517218244495,1.0010439360794408,5.179636864188069
37,26,female,454,45,95,change,valid,clock,2,0,2,0.17731198166075046,1,j,change,0.627622388275995,0.4272624079106791,0.49899438968532195,0.03531037614629895,0.35328528768513934,1.0010644620106177,4.495070408756874
37,26,female,455,45,95,change,valid,clock,2,1,2,1.2985192143569293,1,j,change,1.4119208199335844,0.5468563476423205,0.5000527580596099,0.0353074896884209,0.3533045307467546,1.0010468225373188,6.380414155581093
37,26,female,456,15,325,change,valid,anti,5,0,2,0.047913939897625824,1,j,change,0.8300404713663738,0.4254732936041931,0.5003558362768672,0.035334750691617955,0.3533077379233873,1.0010487468443898,4.567647538957317
37,26,female,457,135,135,same,valid,anti,2,1,2,0.13272099774076196,1,f,same,1.0028252021256776,0.5457283034177749,0.49981510625366354,0.03535174872922653,0.35331639730065945,1.0010481054068805,4.884701670009235
37,26,female,458,105,105,same,valid,clock,1,0,2,0.12457156125674373,1,f,same,1.6421079234260105,0.42372398794514465,0.5001861766195361,0.03530748968660191,0.3533292260090093,1.0010298244997102,5.497648337544888
37,26,female,459,165,165,same,valid,anti,3,1,2,0.05159738255861157,1,f,same,0.8365260244772799,0.5446243037518119,0.5001162601620308,0.03532352557158447,0.3532878534260817,1.0010025634965132,4.649736514382312
37,26,female,460,75,25,change,catch,anti,3,1,1,0.06797996284149121,0,j,change,1.6854702378805086,0,0.49955564564152155,0.03535720092986594,0.35332088734867284,1.0010295037827746,7.039449237927329
37,26,female,461,135,185,change,valid,clock,2,0,2,0.3925898819343274,1,j,change,1.5076544087296497,0.42192271775699286,0.5007455082686647,0.035301075335155474,0.35332986744469963,1.0010567647859716,5.615946660800546
37,26,female,462,165,165,same,valid,anti,3,2,2,0.17922987344172725,1,f,same,1.0732281871078158,0.8576183317464878,0.5000242141868512,0.035339561458386015,0.3532977956765535,1.0010185993814957,4.955702152048616
37,26,female,463,135,135,same,catch,anti,3,0,1,0.14604264839545067,0,j,change,0.2516671707289788,0,0.49953095037926687,0.03534757939814881,0.3532759868721769,1.001059330528733,5.591162880646152
37,26,female,464,105,155,change,catch,clock,5,1,2,0.2376886902438855,1,f,same,2.5869047118867456,0,0.5002532066155254,0.035281832271721214,0.35332409452530555,1.0010599719626043,8.076903291108465
37,26,female,465,105,105,same,catch,clock,4,1,1,0.06915186527839978,0,j,change,3.43507086417776,0,0.49970157219104294,0.03531711121831904,0.35329266419284977,1.0010307866523362,8.735447996106814
37,26,female,466,45,355,change,valid,anti,5,1,2,1.6161544858623529,1,j,change,0.8865457967222028,0.5434774797904817,0.5001027900198096,0.03528471873141825,0.3533289052920736,1.0010529161736486,6.1693232247380365
37,26,female,467,165,115,change,valid,anti,1,0,1,0.13981815948500298,0,j,change,0.9565591097125434,0.42008482935332875,0.49915603140107123,0.03528632231973461,0.35332633954931225,1.0010570855047263,4.778245526709725
37,26,female,468,45,95,change,valid,clock,3,0,2,0.17489537387154996,1,j,change,0.6161467886377068,0.42179880119371604,0.49955436277014087,0.035333467822056264,0.3532849669663847,1.0010705556469475,4.413258212698565
37,26,female,469,165,165,same,valid,anti,2,1,2,0.22790359354621614,1,f,same,0.9315495443079271,0.5423290415004098,0.5001521805425,0.03534148576363805,0.3532766283078672,1.0010792150242196,4.849525353854915
37,26,female,470,105,55,change,catch,anti,1,0,1,0.07972849323414266,0,j,change,0.17043002148602682,0,0.500245830109634,0.03532801561959786,0.353309020794768,1.0010872329658014,5.403615835371966
37,26,female,471,165,215,change,catch,clock,5,0,1,0.07162491937924642,0,j,change,0.10548180296063947,0,0.5002609038401715,0.03532224270202278,0.35331286940709106,1.0010394460296084,5.356002728665771
37,26,female,472,15,15,same,valid,clock,5,2,2,0.20271250192854495,1,f,same,0.9558477578775637,0.8568473434045183,0.5006547451630468,0.03529658528532309,0.35332537739668624,1.0010596512438497,4.908919062721907
37,26,female,473,135,135,same,valid,clock,5,1,2,0.520735521120514,1,f,same,0.9333747486780339,0.5411658498403566,0.5004129240242037,0.035272210741823073,0.35338535160553874,1.0010147507691727,5.167733427155326
37,26,female,474,105,55,change,valid,anti,4,1,2,0.17071738453341823,1,j,change,0.6999413407338579,0.539974449790401,0.49985519596339145,0.035302999640407506,0.35332986744288064,1.0010214858411928,4.567096866683642
37,26,female,475,45,95,change,catch,clock,2,1,1,0.20663840716224513,0,j,change,0.07935485712550872,0,0.49941068124644517,0.03536329456619569,0.3533269809850026,1.0010365595717303,5.449275450631831
37,26,female,476,75,25,change,valid,anti,4,2,2,0.3196320598381135,1,j,change,1.6548586965964205,0.8560969666415221,0.5006191454976943,0.03530941399367293,0.35333980969335244,1.0010230894295091,5.68679351906394
37,26,female,477,15,65,change,valid,clock,5,0,2,0.2641302601314237,1,j,change,0.8448800788446533,0.4199897049324177,0.49973171965393703,0.03534052360919304,0.35332537739668624,1.0010481054086995,4.719676062304643
37,26,female,478,15,15,same,valid,anti,5,2,2,0.197152540067691,1,f,same,0.8991612270274345,0.8553629253578101,0.49952646033307246,0.03532833633835253,0.3533032478753739,1.0010503504308872,4.778909733044202
37,26,female,479,15,65,change,valid,clock,2,2,2,0.190361663715521,1,j,change,0.7624485769283638,0.8546412136430841,0.49909220858171466,0.03536265313050535,0.3533026064415026,1.0010695934943215,4.613095801259988
37,26,female,480,45,45,same,catch,clock,1,1,1,0.1527754748476582,0,j,change,1.5292117689277802,0,0.5002047782454611,0.03534405150639941,0.3533026064415026,1.001061254833985,6.875745628538425
