subject,age,gender,ntrial,memory_ori,test_ori,type,trial_type,which_change,trial,quest,pas,pas_rt,vis,test_key,test,test_rt,contrast,fix_dur,target_dur,mask_dur,retention_dur,trial_dur
3,23,female,1,45,355,change,valid,anti,2,1,1,2.681674849293813,0,j,change,5.479528785871025,0.5,0.5041664688894798,0.035303214765463053,0.3533355484371441,1.0010487532342722,11.420300527134941
3,23,female,2,135,85,change,valid,anti,4,2,2,0.9401918801484044,1,j,change,3.982176005808924,0.5,0.5050394677593886,0.03533143809409012,0.35330828726728214,1.0010731279273841,8.147479720896854
3,23,female,3,45,95,change,valid,clock,4,2,2,2.227583621232725,1,j,change,3.004867562030313,0.4139776645540254,0.5045724999583854,0.03532438226193335,0.3533204746136107,1.0010368866076078,8.53538692259258
3,23,female,4,165,165,same,valid,anti,5,2,2,1.7502812711275055,1,f,same,4.017721043185702,0.3561435161598371,0.5051135539970346,0.03532277866361255,0.35332336109058815,1.0010433010006636,8.959743270339686
3,23,female,5,135,85,change,catch,anti,1,1,2,1.2517957092843517,1,f,same,2.3959367386917165,0,0.5055141328318769,0.035292631017227905,0.3533272097261033,1.0010660720952274,6.934822712595405
3,23,female,6,45,95,change,valid,clock,2,1,2,1.2025341341916373,1,j,change,2.308048010447692,0.6394853869343591,0.505402843115462,0.03529840397072803,0.35327781890123333,1.00119371851315,6.746151364277239
3,23,female,7,165,165,same,valid,anti,3,2,1,1.155096812431566,0,j,change,1.6651949911288284,0.31213294259403945,0.5050599938165306,0.03534554975840365,0.35329128912621854,1.0010330379718653,6.085619316046177
3,23,female,8,165,165,same,valid,clock,5,1,2,2.35202252221643,1,f,same,2.373090916321871,0.5778838192010031,0.5052937984366963,0.03532309938327671,0.3533102115852671,1.0010509982719213,7.959315430334982
3,23,female,9,75,125,change,valid,clock,1,0,3,3.877077140771462,1,j,change,1.3830681837132488,0.5,0.5050147723466125,0.03534875695481787,0.3533153430994389,1.0010692792916416,8.44190837168071
3,23,female,10,15,65,change,valid,clock,1,2,3,2.117247083696384,1,f,same,2.984423929790637,0.40452473464041455,0.5050856513878443,0.03531315707436988,0.3533246439692448,1.0010795423202126,8.299952725924413
3,23,female,11,135,135,same,valid,anti,5,2,3,1.1087563518524348,1,j,change,1.240570842479201,0.38278292005740333,0.5057681427895204,0.03534041824400447,0.3532698009100841,1.0010917296667685,5.556799769594818
3,23,female,12,75,125,change,valid,clock,3,0,3,0.9176436856073451,1,j,change,1.2583290891434444,0.3723357464867447,0.5053403027850436,0.03530513908322064,0.3533217574924947,1.0010397730845852,5.367702826309824
3,23,female,13,15,65,change,valid,clock,5,1,1,1.6722559548018125,0,j,change,4.8408043905235445,0.5361351957338891,0.5055689758908102,0.0353096291582915,0.35331983317450977,1.0010708828899624,9.784815400187654
3,23,female,14,135,135,same,valid,anti,1,1,3,0.5115257018305783,1,j,change,5.243648468178662,0.5903552996008501,0.5048313207105366,0.035351643431567936,0.35332336109058815,1.0010070596808873,8.947502363703734
3,23,female,15,15,15,same,valid,clock,4,0,3,2.071187894244531,1,f,same,4.078330962146083,0.2848258012196979,0.5056244603890718,0.03535998214238134,0.35329321344397613,1.0010631856184773,9.301913285105456
3,23,female,16,135,85,change,catch,anti,1,0,3,1.0029272081867475,1,f,same,2.7243719347220576,0,0.5048835980126114,0.03532406154226919,0.3533037971922113,1.001067996412985,6.886335354722405
3,23,female,17,75,25,change,valid,anti,5,2,2,2.070773845184931,1,j,change,2.425544614026876,0.36474381007388085,0.5061818711296837,0.035325665140362617,0.35330828726728214,1.0010599784218357,7.712185229705938
3,23,female,18,135,135,same,valid,clock,3,0,3,0.6516987878080727,1,f,same,4.712340458013159,0.21287243135623224,0.5052963641937822,0.035302252606470574,0.35331149446369636,1.001083390955955,8.536478972978784
3,23,female,19,165,165,same,valid,anti,3,1,3,1.021261788050424,1,f,same,2.3076872008487044,0.5636651264528469,0.5045176568992247,0.035342663281653586,0.35331085302436804,1.001055167627328,6.568387691036605
3,23,female,20,45,45,same,valid,clock,3,2,1,0.65831844125114,0,j,change,2.408858533131024,0.3488292577228411,0.5054538375388802,0.03529070669947032,0.35337082759770055,1.0010250199809434,6.286835933942029
3,23,female,21,75,75,same,valid,clock,2,1,3,0.3449496919167814,1,f,same,2.45224195859646,0.5418342510339075,0.5048880880874549,0.03532277866361255,0.353297703519047,1.001060619861164,5.991432295441882
3,23,female,22,15,15,same,valid,anti,5,2,2,0.7516975690734853,1,f,same,3.597395820638212,0.3922160663115549,0.505645307165878,0.0353137985136982,0.3532967413600545,1.0010776180022276,7.5347589535304
3,23,female,23,45,45,same,catch,clock,2,0,2,0.3582531427316553,1,f,same,6.167359848722981,0,0.5057649355931062,0.03532983449576932,0.35332271965125983,1.0010519604309138,9.702759920820654
3,23,female,24,45,355,change,valid,anti,4,2,2,0.9343733843747941,1,j,change,2.6518289999833087,0.38117512306288476,0.504941006828858,0.0353307966547618,0.3532993071173678,1.0010477910755071,6.886723425491027
3,23,female,25,45,45,same,valid,anti,4,1,3,1.753504503545173,1,f,same,1.8231920712971714,0.5235800767477136,0.5049894354949629,0.03532662729958247,0.3532858368923826,1.0010779387218918,6.804305532927174
3,23,female,26,105,155,change,valid,clock,3,1,3,2.2637957554679815,1,j,change,2.227302029385555,0.5075254017401715,0.5055372246461047,0.0352801229510078,0.3533236818102523,1.001042659561108,7.699826298241078
3,23,female,27,15,15,same,valid,anti,2,0,4,1.06879500498394,1,f,same,4.749338034655693,0.15097368806025213,0.5056488350821837,0.03535645422630296,0.35329193056554686,1.0010631856184773,9.007945187730002
3,23,female,28,15,15,same,valid,anti,4,1,4,0.9665422060636502,1,f,same,4.049924502595786,0.49360674975120544,0.5045571054154152,0.035352605590560415,0.3533070043888529,1.0010362451685069,8.240533959720324
3,23,female,29,45,355,change,catch,anti,5,0,3,3.0794024864753737,1,j,change,2.212919998409234,0,0.5056433828481204,0.03532277866383993,0.3533028350332188,1.0010667135345557,8.465770875320914
3,23,female,30,165,165,same,catch,anti,2,2,3,0.8948889476162094,1,f,same,6.249430081193395,0,0.5051408151666692,0.03529455533498549,0.35332432324958063,1.001072165768619,10.313786005590828
3,23,female,31,75,75,same,valid,clock,4,0,4,0.4739899576265998,1,f,same,2.8349451633553144,0.09619230816308971,0.505746654573386,0.03532149578518329,0.3533262475673382,1.001066072095,6.451724317091703
3,23,female,32,165,165,same,valid,clock,2,2,3,1.1098949065872148,1,j,change,1.2590625749683113,0.3713431917722101,0.5055134913925485,0.03531957146719833,0.3533323412407299,1.0010333586917568,5.627757387135489
3,23,female,33,105,155,change,catch,clock,3,2,3,0.8905303676601761,1,f,same,2.3219226629480545,0,0.5049810967841495,0.03534041824400447,0.3533400385119876,1.0010535640292346,6.403908225432588
3,23,female,34,75,25,change,valid,anti,4,0,2,0.4092312093569035,1,j,change,2.3568403727019813,0.04735519087898238,0.5057437680966359,0.03528685806372778,0.3533281718850958,1.0010394523646937,5.956970649021287
3,23,female,35,105,105,same,valid,anti,4,1,3,0.3077936797703842,1,j,change,1.5553090646917553,0.48052503900666493,0.5057992525951249,0.03535805782439638,0.3532842332940618,1.0010638270575782,5.026962900434455
3,23,female,36,45,45,same,valid,clock,1,1,4,0.3267767547533822,1,f,same,1.7972067243365473,0.4685467737496549,0.5053659603565848,0.03533464529050434,0.353317588137088,1.0010436217201004,5.285822780587978
3,23,female,37,105,105,same,valid,anti,1,1,3,0.46712495365591167,1,j,change,1.3971609255711428,0.4573504697612119,0.5050170173842616,0.03533111737442596,0.35330155215478953,1.001077618002455,5.120633562412877
3,23,female,38,15,15,same,catch,anti,1,1,3,1.1760398051565062,1,j,change,2.1592828452194226,0,0.5052139392455501,0.035291668858235425,0.3532957792012894,1.0010461874771863,6.54589979178877
3,23,female,39,135,135,same,valid,clock,4,1,3,2.1051206739730333,1,j,change,2.381146431609068,0.4466599185902885,0.5053800720208983,0.03535228487066888,0.3532948170422969,1.0010744108060408,7.688193796768928
3,23,female,40,165,165,same,valid,anti,1,1,3,0.882765103650172,1,j,change,1.5221889885399378,0.43622703984590877,0.5052646129490768,0.035363510058459724,0.35328519545305426,1.001034641570186,5.591731270293394
3,23,female,41,105,105,same,catch,anti,5,2,3,0.2518877558220538,1,j,change,1.1570089429465042,0,0.5047950793909877,0.035326948019019255,0.35328615761181936,1.0010340001308577,4.708180724236399
3,23,female,42,15,325,change,valid,anti,5,0,3,1.0062857842942776,1,j,change,0.9761763034366595,0.0022205664396340863,0.5048710899463913,0.035351322711903777,0.35328198825641266,1.0010272650183651,5.24954842674174
3,23,female,43,105,105,same,valid,anti,3,2,3,0.5810108954876796,1,j,change,2.964610832369999,0.36237696619113047,0.5054249727709248,0.035328872337004213,0.35330155215478953,1.0010397730845852,6.804680133470811
3,23,female,44,15,15,same,valid,anti,5,0,4,0.5287913231225048,1,f,same,1.6856485656774112,0,0.5051754528881247,0.03533560744949682,0.3533387556335583,1.0010583748237423,5.368373771804045
3,23,female,45,135,135,same,valid,anti,2,1,4,0.5174170009634054,1,f,same,7.242198494670447,0.4257970706250119,0.5048961060786041,0.035333041692410916,0.35330475935120376,1.0010679964132123,10.879007873025785
3,23,female,46,75,25,change,valid,anti,2,0,4,0.39537996939043296,1,f,same,2.016270428237476,0,0.5055336967300263,0.03532309938327671,0.3533281718850958,1.0010721657683916,5.568607704712349
3,23,female,47,15,65,change,catch,clock,1,0,4,1.1156229594212164,1,j,change,1.1648752336443522,0,0.5052546706401699,0.03532502370126167,0.3532967413600545,1.0010452253184212,5.508885537725064
3,23,female,48,135,135,same,catch,anti,4,1,4,0.16532969337913528,1,f,same,1.505471477119272,0,0.50580021475389,0.03532534442069846,0.3533169466977597,1.0010801837595409,4.849855419584628
3,23,female,49,75,25,change,valid,anti,5,0,4,2.085124445636211,1,j,change,1.1036854535682323,0,0.5059955330168577,0.03531347779403404,0.3533358691565809,1.001058054104078,6.417020206620464
3,23,female,50,135,135,same,valid,clock,1,1,4,0.2160386762232065,1,j,change,0.9882504358579354,0.415072064720913,0.5046655086548526,0.03533528672983266,0.35329128912621854,1.0010808251988692,4.425207216961553
3,23,female,51,75,25,change,valid,anti,3,0,4,0.7612707297141696,1,f,same,5.271975389257477,0,0.5075625691952155,0.03533464529050434,0.353297703519047,1.0010644684969066,9.315088448063307
3,23,female,52,165,115,change,catch,anti,2,1,3,0.2796899795637273,1,j,change,1.7826114147969747,0,0.5054907202977574,0.035346511917168755,0.3532964206406177,1.0010660720952274,5.2624173024398715
3,23,female,53,135,135,same,valid,anti,3,1,3,0.37452581600700796,1,j,change,1.413042320881459,0.4036653443494474,0.5048698070677347,0.035328872337004213,0.35325665140453566,1.0010715243290633,4.943473483541311
3,23,female,54,15,65,change,catch,clock,4,2,4,0.61044814797242,1,f,same,1.7148231487740304,0,0.505394504404876,0.03531893002787001,0.353333303399495,1.0010583748237423,5.509766875305559
3,23,female,55,165,165,same,valid,anti,2,0,3,0.3403172173850635,1,j,change,1.3572075966937973,0,0.5051129125577063,0.03531411923336236,0.35329802423871115,1.0010824287969626,4.95588693734544
3,23,female,56,105,155,change,valid,clock,2,0,3,0.3719940551407035,1,f,same,2.303618551450427,0,0.5050551830217955,0.03533368313151186,0.35332496468890895,1.0010285478970218,5.932783577101645
3,23,female,57,15,325,change,valid,anti,2,2,3,0.28076888044461157,1,f,same,1.5555271540492868,0.3540436871428301,0.5057565968822928,0.03533272097251938,0.3533236818102523,1.0010420181217796,4.97993225118239
3,23,female,58,45,95,change,catch,clock,2,0,3,0.6051553116944888,1,j,change,3.673288992773678,0,0.5053220217653234,0.035342663281653586,0.35327621530291253,1.001065430655899,7.487945752196765
3,23,female,59,165,215,change,valid,clock,1,2,4,0.46162813968498995,1,j,change,1.503011557453192,0.346184380280975,0.5055850118728813,0.03523393932255203,0.3532993071173678,1.0010635063381415,5.155956020356825
3,23,female,60,75,125,change,valid,clock,1,1,2,0.36992637559865216,1,j,change,9.56149991597158,0.3901718854066942,0.5050474857505378,0.035317005710112426,0.35328359185473346,1.0010817873576343,13.128486703605176
3,23,female,61,105,105,same,valid,clock,1,1,3,0.249210067517879,1,j,change,1.6554403031698257,0.37377352507002826,0.505463779847787,0.03534522903873949,0.3532999485566961,1.001058054104078,5.132478701008495
3,23,female,62,15,15,same,catch,anti,5,2,3,0.5173111634810539,1,f,same,2.7488973658655596,0,0.5053701297117641,0.035342342561989426,0.3532986656778121,1.0010429802809995,6.486709377970556
3,23,female,63,105,105,same,valid,clock,1,0,4,0.32161605496889933,1,j,change,1.2192792275018292,0,0.505896751366663,0.03528942382058631,0.35332945476375244,1.001068317132649,4.685056517215571
3,23,female,64,165,165,same,valid,anti,1,2,3,0.18782336558047064,1,j,change,2.4834248881011263,0.33924673633091823,0.5057998940342259,0.035351643431567936,0.3532893648082336,1.0010888431900185,5.945882088064536
3,23,female,65,105,155,change,catch,clock,5,2,2,0.3423399961770883,1,j,change,2.563679847388812,0,0.5050577487791088,0.035328230897675894,0.35334452858705845,1.0010227749432943,6.168823613176073
3,23,female,66,15,325,change,catch,anti,1,0,3,1.3642999908915954,1,j,change,1.0610384004044136,0,0.50550130404622,0.03534041824400447,0.3532537649277856,1.0010942954238544,5.662115761831046
3,23,female,67,135,85,change,valid,anti,2,2,3,0.2933010005169763,1,j,change,2.0816629185230795,0.33253652841404235,0.5061148407241944,0.035318609308433224,0.35333779347433847,1.0010686378523133,5.616105963204518
3,23,female,68,105,55,change,valid,anti,4,2,3,0.2414505764616024,1,j,change,6.8081362083496515,0.3259621196552204,0.5049887940556346,0.03531476067246331,0.3533204746138381,1.0010647892165707,10.25552086794437
3,23,female,69,15,15,same,valid,anti,4,0,2,0.16452629067202906,1,j,change,2.216922579560787,0,0.5050131687487465,0.03532085434585497,0.3536867364466616,1.0007046210569115,5.626789134531691
3,23,female,70,75,125,change,valid,clock,4,0,4,0.24897369714062734,1,j,change,1.567278001070008,0,0.5052812903707036,0.03531860930820585,0.3532957792012894,1.0010930125454252,5.002661010882775
3,23,female,71,135,85,change,valid,anti,1,0,1,0.1768653375188478,0,j,change,2.2059180471510444,0,0.505558392142575,0.03533368313151186,0.3533070043886255,1.001037207327272,5.603832343164868
3,23,female,72,75,125,change,valid,clock,1,2,2,0.48706730109279306,1,j,change,1.8713064322248556,0.3200133026445864,0.5051828294399456,0.035327910178011734,0.35329385488330445,1.0010628648985858,5.544631024878754
3,23,female,73,45,95,change,valid,clock,1,1,3,0.26643527813439505,1,j,change,2.000381977095458,0.35077299453031613,0.5050243939360826,0.03533560744949682,0.35330411791187544,1.0010356037289512,5.473525876302347
3,23,female,74,75,75,same,catch,anti,3,0,2,0.31076899590357243,1,j,change,1.6328943536664156,0,0.5050651253309297,0.03534105968356016,0.3532954584813979,1.001049394673828,5.20234555104139
3,23,female,75,45,45,same,catch,clock,1,0,2,0.721776029927014,1,f,same,2.3773000409237284,0,0.5058329281573606,0.03530385620479137,0.3533384349136668,1.001070241450634,6.345776507158007
3,23,female,76,105,155,change,valid,clock,3,2,4,0.4658321327726753,1,j,change,1.5733867481208108,0.3140729766788959,0.5059554430613389,0.03533400385117602,0.3533272097261033,1.0010638270578056,5.262143407864187
3,23,female,77,165,165,same,valid,anti,2,2,2,0.16058817416887905,1,j,change,2.8615094092729123,0.30813646155149754,0.5060109275596005,0.03531027059761982,0.35332271965125983,1.0010641477772424,6.227954693860283
3,23,female,78,45,45,same,valid,anti,4,2,2,0.7253998411795237,1,f,same,2.3696903259408373,0.3026399889904212,0.5058008561932184,0.03533592816916098,0.35331983317450977,1.0010503568328204,6.322775135760594
3,23,female,79,45,95,change,valid,clock,4,0,4,0.2353575446729792,1,j,change,2.325078223521132,0,0.5049968120467838,0.03534105968356016,0.3533086079869463,1.0010224542238575,5.744779004922293
3,23,female,80,15,15,same,valid,clock,2,0,3,0.25507763339692247,1,f,same,2.0240116382744873,0,0.5050519758253813,0.035361906460138925,0.35325921716184894,1.0010619027398207,5.485728938020202
3,23,female,81,75,75,same,valid,clock,5,2,2,0.46855792902329085,1,j,change,1.414360157896681,0.29702531283312145,0.5052809696510394,0.035362547899467245,0.3532399739833636,1.001088522470127,5.0379061753926635
3,23,female,82,135,185,change,catch,clock,4,0,2,0.3455603421180058,1,f,same,1.9815169269413673,0,0.5056369684552919,0.035307704840533916,0.3533063629492972,1.0010869188720335,5.485764858620314
3,23,female,83,75,75,same,valid,clock,4,1,3,0.39940243516025475,1,f,same,1.9096439755380743,0.31344461898271936,0.5059881564650368,0.03530513908322064,0.3533002692761329,1.0011016719756753,5.510095612940177
3,23,female,84,15,65,change,valid,clock,1,0,4,0.13369519061666324,1,j,change,1.727089712981524,0,0.5052905912402821,0.03533432457084018,0.35329321344397613,1.001059657702399,5.037777246095857
3,23,female,85,15,15,same,valid,clock,1,1,2,2.0183836499691097,1,f,same,4.529232954071631,0.25587403375338014,0.505721317721509,0.03537120732994481,0.35329128912599117,1.0010782594417833,9.690958400096406
3,23,female,86,45,355,change,catch,anti,2,1,4,0.3450722068205323,1,f,same,2.6722286936319506,0,0.5051029702487995,0.03535549206731048,0.35327749818156917,1.0010413766826787,6.156793740065723
3,23,female,87,135,85,change,valid,anti,1,2,3,0.10222200983457697,1,j,change,1.763228723138127,0.2917863028129286,0.505328756877816,0.03528461302607866,0.35337499695310726,1.0010253407006076,5.073672509323387
3,23,female,88,165,165,same,valid,anti,3,0,3,0.36732982936428016,1,f,same,2.7206849416995738,0,0.5052530670420765,0.03535100199246699,0.3532797432189909,1.0010612613007197,6.26282205063012
3,23,female,89,75,75,same,valid,clock,3,2,2,0.3541777582211125,1,j,change,1.2585234452471923,0.28633444502520494,0.5051247791845981,0.03530642196187728,0.35330475935120376,1.0010586955434064,4.861301903663616
3,23,female,90,75,25,change,valid,anti,3,2,1,0.1638264804098526,0,j,change,1.5980844057128252,0.281202035077292,0.505354093729693,0.03533464529050434,0.3533272097263307,1.0010333586915294,4.967737848894785
3,23,female,91,165,115,change,catch,anti,3,2,1,0.05574684700513899,0,j,change,6.6147393768030724,0,0.5052046383759716,0.03533432457084018,0.3532967413602819,1.001048432514608,9.913932317892204
3,23,female,92,135,185,change,catch,clock,1,1,2,0.17016454200575026,1,j,change,1.6260732882872162,0,0.5056090658461017,0.035291348138571266,0.3533195124548456,1.0010718450487275,4.980023014841663
3,23,female,93,45,95,change,valid,clock,4,1,3,0.1611240966931291,1,j,change,1.2503210403631329,0.20287162510302337,0.5046039304834267,0.03532823089744852,0.3533313790817374,1.0010413766826787,4.601408664818564
3,23,female,94,165,115,change,valid,anti,2,2,3,0.19668292501455653,1,j,change,1.3777965149322426,0.2989171219019393,0.5056619845875048,0.035327910178011734,0.3533108530245954,1.0010548469076639,4.743708122032558
3,23,female,95,15,65,change,catch,clock,1,2,2,0.28296196136739127,1,j,change,1.4480466249387973,0,0.5056616638678406,0.035347153356497074,0.3533137395011181,1.0010561297863205,4.93264534693526
3,23,female,96,135,135,same,valid,clock,3,1,2,0.24144512422753905,1,j,change,2.5854852552351986,0.15696088969924016,0.5055442804782615,0.035342342561989426,0.35329225128498365,1.0010442631594287,5.992055453709327
3,23,female,97,75,25,change,valid,anti,1,0,1,0.3420019576728919,0,j,change,2.7110226209979373,0,0.5056369684552919,0.03533047593509764,0.3533281718850958,1.001055167627328,6.239707144479098
3,23,female,98,105,55,change,valid,anti,5,0,3,0.17709304846584928,1,j,change,1.3116721424198658,0,0.5055195850654854,0.03532245794440314,0.3533159845387672,1.0010391316454843,4.672796688120798
3,23,female,99,15,15,same,valid,clock,3,1,3,0.21774618760537123,1,j,change,1.7478819674738588,0.11821535472105632,0.505940689957697,0.03530738412064238,0.35333169980140156,1.001055167627328,5.097803776024648
3,23,female,100,105,155,change,catch,clock,5,1,4,0.20777276884973617,1,j,change,1.3831717761581785,0,0.5052039969364159,0.03534779479559802,0.3533018728744537,1.0010452253186486,4.766708531270524
3,23,female,101,165,165,same,valid,clock,3,0,3,0.7302651581726423,1,j,change,1.7034629382792446,0,0.5040606314073557,0.03534458759941117,0.35331566381910307,1.0010545261879997,5.614001400903362
3,23,female,102,165,215,change,valid,clock,4,1,3,0.27735770631579726,1,f,same,5.328991003172632,0.08273617449212678,0.5049618536058915,0.035300328288485616,0.3533143809404464,1.001067996412985,8.735386088721498
3,23,female,103,45,355,change,valid,anti,4,1,2,0.16545156684378526,1,j,change,1.3087346712045473,0.04861678661606489,0.5057200348428523,0.035298724690619565,0.3533339448385959,1.0010641477774698,4.661588819456483
3,23,female,104,105,105,same,valid,anti,3,0,3,0.2564240144606629,1,j,change,1.4908081750154452,0,0.5055208679441421,0.0353128363549331,0.3533105323044765,1.0010227749435217,4.967737848894558
3,23,female,105,165,215,change,valid,clock,2,0,3,0.16101344841581522,1,j,change,2.8622768913801337,0,0.5050032264398396,0.03533881464591104,0.35330540079075945,1.0010420181215522,6.274466739448599
3,23,female,106,15,15,same,catch,anti,5,2,2,0.3616636754213687,1,j,change,2.3204467111486338,0,0.5052354274616846,0.035269859922209434,0.3533403592318791,1.0010590162628432,5.956586106168288
3,23,female,107,135,85,change,catch,anti,5,1,4,0.26652956970929154,1,j,change,4.256688928886433,0,0.5057450509748378,0.035317647149440745,0.3532714045081775,1.0010538847486714,7.677062580100028
3,23,female,108,105,105,same,catch,clock,3,2,4,0.18777782339157056,1,j,change,1.4395273490467844,0,0.5054435745100818,0.035333041692410916,0.3533118151835879,1.0010564505059847,4.8031464521350244
3,23,female,109,45,355,change,catch,anti,4,0,2,0.9187129648994414,1,j,change,1.1039987966596527,0,0.5053091929794391,0.035354529908545373,0.3532848747331627,1.0010878810312533,5.21510185414445
3,23,female,110,165,165,same,valid,anti,5,1,2,0.22678438788079802,1,j,change,1.228941548203693,0.01685583308604993,0.5055032283639775,0.03533400385094865,0.35328872336913264,1.001045546037858,4.6380948226869805
3,23,female,111,45,95,change,valid,clock,1,2,4,0.24497207814783906,1,j,change,2.047488636903381,0.2948449240022212,0.5053322847938944,0.03536767941341168,0.3532813468173117,1.0010708828899624,5.497878439557553
3,23,female,112,45,45,same,valid,anti,5,2,4,0.20880227890529568,1,j,change,1.1892640382197897,0.2906957086317603,0.5051818672809532,0.03534490831907533,0.35331566381910307,1.0010522811508054,4.61389203550516
3,23,female,113,105,105,same,valid,anti,4,2,4,0.11164250792489838,1,j,change,1.6100527006515222,0.2867024098509371,0.5054772500725448,0.035322137224284234,0.3533111737442596,1.0010609405808282,5.0146633021036
3,23,female,114,135,135,same,catch,anti,5,1,4,0.15033829508001872,1,j,change,1.174277450714726,0,0.5055503741514258,0.03536671725487395,0.3532781396206701,1.0010837116756193,4.496783502694598
3,23,female,115,105,105,same,valid,clock,1,2,4,0.19052639073652244,1,j,change,0.9630470033880556,0.28295701846364313,0.5055259994587686,0.035338173206582724,0.3533288133244241,1.001050998271694,4.379008835184777
3,23,female,116,105,105,same,valid,clock,4,1,4,0.160844429163717,1,j,change,1.013242193363567,0,0.5053441514210135,0.03529198957767221,0.353307966547618,1.001094616143746,4.413798577801117
3,23,female,117,75,75,same,valid,clock,5,1,2,1.9060467840158708,1,j,change,16.69483205195138,0,0.5049846247002279,0.03532726873891079,0.3533086079869463,1.001058374823515,21.90273054290128
3,23,female,118,45,45,same,valid,anti,1,0,4,0.09931821418194886,1,j,change,1.9810733716740287,0,0.5053803927403351,0.03529583821364213,0.35330732510828966,1.0010898053487836,5.297553742991113
3,23,female,119,105,155,change,valid,clock,1,2,4,0.10372426064532192,1,j,change,1.3036711494719384,0.27904137535643725,0.5051642277003339,0.03532598586025415,0.3532896855281251,1.0010619027398207,4.6017085376852265
3,23,female,120,75,75,same,valid,anti,3,0,3,1.184225211899502,1,f,same,2.6443106900987914,0,0.5060715435724887,0.035321175065291754,0.35331502237977475,1.001037848766373,7.01796158291836
3,23,female,121,45,355,change,valid,anti,5,0,3,0.20733177933971092,1,f,same,1.9042417738619406,0,0.504741519210711,0.03534458759941117,0.3533188710152899,1.0010602991419546,5.308564048354583
3,23,female,122,45,45,same,valid,clock,1,2,4,0.16682905771267542,1,j,change,1.0329892225367985,0.27528548669089725,0.5053236253634168,0.035317967869104905,0.35330732510828966,1.001079863040104,4.390725365203707
3,23,female,123,165,215,change,catch,clock,1,1,4,0.1185399045793929,1,j,change,1.1486788916440673,0,0.5051809051219607,0.03530866699929902,0.35331053230493126,1.0010712036096265,4.448834953822825
3,23,female,124,105,155,change,valid,clock,4,2,4,0.10089230619269074,1,j,change,0.9362120700911873,0.27171967360202437,0.5058127228198828,0.035379866760195,0.35330540079075945,1.0010243785413877,4.24983739514073
3,23,female,125,135,185,change,catch,clock,2,0,4,0.7256718114372234,1,f,same,1.7547800055676817,0,0.5053207388868941,0.03532823089744852,0.3532791017796626,1.001083390955955,5.614856760193106
3,23,female,126,45,45,same,catch,anti,4,2,3,0.24352050104107548,1,j,change,1.2705748065741318,0,0.5062354313104152,0.03534394616008285,0.35331021158481235,1.0010615820206112,4.72123305157038
3,23,female,127,75,75,same,valid,anti,5,1,4,0.20573138831832694,1,j,change,1.0664373948843604,0,0.5057450509752925,0.03527114280086607,0.3533432457084018,1.0010859567132684,4.473199383705378
3,23,female,128,75,25,change,valid,anti,5,1,4,0.2176817229574226,1,f,same,1.70955115927336,0,0.5054952103728283,0.035321495784955914,0.3532948170422969,1.0010561297863205,5.108747050982856
3,23,female,129,165,115,change,valid,anti,4,0,4,0.263363746108098,1,j,change,1.8946782348102715,0,0.5058589064487933,0.03528782022249288,0.3533044386313122,1.0010869188722609,5.356928891323605
3,23,female,130,75,75,same,catch,clock,2,2,4,0.17700613344277372,1,f,same,1.576805940241229,0,0.5053354919900812,0.03534490831907533,0.35329385488330445,1.00106992073097,4.967960107607723
3,23,female,131,135,135,same,valid,anti,3,0,4,0.159420113226588,1,j,change,1.2191660134676567,0,0.5054066917509772,0.03532309938327671,0.35328711977081184,1.0010715243292907,4.626171749217519
3,23,female,132,105,55,change,valid,anti,5,1,4,0.2478678558095453,1,f,same,1.7424448073566055,0,0.5054211241354096,0.03534843623492634,0.3532916098461101,1.0010644684966792,5.155856917986966
3,23,female,133,105,55,change,valid,anti,1,1,3,0.2841726780220597,1,j,change,2.2530850022512823,0,0.5057190726838598,0.03531347779380667,0.35323195599221435,1.001118670116739,5.7329264897744
3,23,female,134,75,75,same,catch,clock,2,1,2,0.14899159329661416,1,j,change,2.693119088335152,0,0.5056167631178141,0.03533143809409012,0.3533297754834166,1.0010493946733732,6.063474266097273
3,23,female,135,105,105,same,valid,clock,3,2,2,0.9723119524514914,1,j,change,2.1161197541491674,0.26791817389561967,0.5051090639217364,0.03532309938327671,0.35331053230493126,1.001071524328836,6.285958765717169
3,23,female,136,105,55,change,valid,anti,5,2,4,0.20161431025371712,1,j,change,1.208044418387999,0.2642776456935786,0.5056177252768066,0.035301290447478095,0.3533410006707527,1.0010465081968505,4.5905391553783375
3,23,female,137,165,215,change,valid,clock,5,2,4,0.24656701693538707,1,f,same,2.4045015567730843,0.26046878436130394,0.5059361998823988,0.035348756955045246,0.35332015389394655,1.001049715393492,5.851922778406788
3,23,female,138,105,155,change,valid,clock,2,2,4,0.27899786657280856,1,f,same,1.718120788149463,0.2566599546571322,0.5050773126772583,0.03531027059761982,0.35330379719243865,1.0011061620502915,5.225943140255822
3,23,female,139,135,135,same,valid,anti,4,1,4,0.6007867894295487,1,f,same,1.0272983731815657,0,0.5057723121449271,0.03533047593509764,0.3533054007903047,1.0010586955436338,4.826666747915624
3,23,female,140,135,185,change,valid,clock,4,1,4,0.24143101256322552,1,j,change,1.2323543259303733,0,0.5053871278532824,0.03532855161711268,0.35330732510828966,1.0010542054683356,4.767754718748165
3,23,female,141,45,95,change,catch,clock,3,2,4,0.1902948311540058,1,j,change,1.3065431938803158,0,0.5049284987626379,0.03535645422653033,0.353260820759715,1.0010885224705817,4.719698408076056
3,23,female,142,135,185,change,valid,clock,3,0,2,0.4154724136205914,1,f,same,1.3783792625245042,0,0.5058701316365841,0.03533336241162033,0.353287440490476,1.0010724864882832,4.992092336468431
3,23,female,143,135,185,change,valid,clock,5,2,4,0.19296450146657662,1,j,change,1.0684742853404714,0.2530124614123226,0.5050077165146831,0.03534971911358298,0.3533066836694161,1.0010635063376867,4.46084943239066
3,23,female,144,105,105,same,valid,anti,2,1,4,0.1777213382474656,1,j,change,1.2336048118208964,0,0.5054272178081192,0.03532566514058999,0.35327621530268516,1.0010824287969626,4.637819965952531
3,23,female,145,135,185,change,catch,clock,3,1,4,0.21786485387383436,1,f,same,2.295826026270788,0,0.5054291421261041,0.035301931886806415,0.35332432324958063,1.001062544179149,5.697745148474041
3,23,female,146,105,105,same,valid,anti,3,1,4,0.16095828463767248,1,j,change,1.1168888398547097,0,0.5052726309399986,0.03530513908344801,0.35333458627792425,1.0010554883469922,4.437575128576555
3,23,female,147,75,125,change,valid,clock,2,1,3,0.42144453410310234,1,f,same,4.901716427388692,0,0.5054268970889098,0.03531027059761982,0.3533095701459388,1.0010663928146641,8.476981309742314
3,23,female,148,135,85,change,valid,anti,2,0,4,0.20660182143137718,1,j,change,1.1017871139974886,0,0.5056946979912027,0.035317967869104905,0.35331855029562576,1.0010564505059847,4.531791334668469
3,23,female,149,75,75,same,valid,anti,3,2,3,0.9821772886875806,1,j,change,2.610497218077853,0.24909001595310193,0.5056908493556875,0.03534490831907533,0.3533666582420665,1.0010484325148354,6.7818073706507676
3,23,female,150,75,25,change,valid,anti,4,1,4,0.1300341758851573,1,j,change,1.5448587358259829,0,0.5053518486920439,0.035335286730060034,0.3533191917349541,1.0010340001308577,4.87287859991784
3,23,female,151,165,165,same,valid,clock,2,1,3,0.1737973334088565,1,j,change,1.5639922283216947,0,0.5047440849675695,0.0353391353655752,0.35329385488330445,1.0010904467881119,4.931713977090112
3,23,female,152,75,75,same,valid,anti,2,2,1,0.48040338833880014,0,j,change,3.7516257278730336,0.24516702484583758,0.5048136811301447,0.03530866699929902,0.3533304169227449,1.0010413766826787,7.416339639536545
3,23,female,153,165,215,change,catch,clock,5,2,2,0.11072845694070566,1,j,change,2.507113561694041,0,0.5058999585630772,0.03535901998338886,0.3532781396206701,1.0010356037291785,5.827982981332752
3,23,female,154,135,135,same,valid,clock,4,0,3,0.2767884289482936,1,j,change,1.513779719485683,0,0.5056693611390983,0.03535068127257546,0.353302514313782,1.0010609405808282,5.050152534262452
3,23,female,155,75,75,same,valid,anti,4,2,4,0.19987793410336963,1,j,change,1.0453603413484416,0.259103309142232,0.5056356855766353,0.03529359317644776,0.3533336241193865,1.0010577333846413,4.437773333316272
3,23,female,156,45,355,change,valid,anti,2,2,4,0.17625949811235841,1,f,same,1.6880202874417591,0.25610711165242545,0.5055981613786571,0.035300328288485616,0.3533236818102523,1.0010670342539925,5.014894220247243
3,23,female,157,75,25,change,valid,anti,1,1,3,0.2012185422136099,1,j,change,1.155921703355034,0,0.5053778269834766,0.035305780522321584,0.35329706207994604,1.0010808251986418,4.578700110455884
3,23,female,158,15,15,same,valid,clock,1,2,4,5.415694993053421,1,f,same,1.6898804613742868,0.25324293518006835,0.5057703878269422,0.0352996868491573,0.3533374727549017,1.001066713534783,10.244096192801408
3,23,female,159,135,135,same,valid,clock,5,2,4,0.08643747185715256,1,j,change,1.4002686989169888,0.2502078756562147,0.5054955310924925,0.03533111737442596,0.35331406022078227,1.0010465081968505,4.637775385921941
3,23,female,160,15,15,same,catch,anti,3,2,4,0.12917400580136018,1,f,same,1.9198839123178004,0,0.505713941169688,0.035317967869104905,0.35330989086560294,1.0010612613004923,5.179915702049129
3,23,female,161,135,135,same,valid,clock,4,2,3,0.3815854968011081,1,j,change,1.018472168590506,0.24716464092017798,0.5057585212002778,0.03531443995279915,0.3533191917349541,1.0010522811508054,4.57909267129935
3,23,female,162,75,75,same,valid,clock,4,2,4,0.09477169251431405,1,j,change,1.1174209137429898,0.24425521908588466,0.5053791098616784,0.035321495784955914,0.3533329826800582,1.001038169486037,4.402559599331198
3,23,female,163,45,355,change,valid,anti,4,0,4,0.1924949679087149,1,f,same,1.733733420398039,0,0.5049471005017949,0.035356774945739744,0.35327942249932676,1.001061261300947,5.0965978701647145
3,23,female,164,105,155,change,valid,clock,3,0,2,0.4896798833092362,1,j,change,5.221939276225385,0,0.5056372891749561,0.035302252606470574,0.35332817188555055,1.001062544179149,8.92499522127764
3,23,female,165,75,75,same,catch,anti,3,0,2,0.19662936483427984,1,j,change,4.192591825240925,0,0.5053749405064991,0.035321175065291754,0.35329321344397613,1.0010635063381415,7.652847926291088
3,23,female,166,45,355,change,valid,anti,3,2,4,1.2212285614955363,1,f,same,1.6533716614690093,0.24117996649065232,0.5057723121449271,0.03534939839391882,0.3532925720046478,1.001045546037858,6.004186032787857
3,23,female,167,135,185,change,catch,clock,5,0,4,0.1454267944586718,1,f,same,1.957770203092423,0,0.5055779560407245,0.03531572283145579,0.35330219359411785,1.0010782594417833,5.297790113367682
3,23,female,168,45,45,same,valid,anti,1,1,3,0.31580621862576663,1,j,change,1.1210241989383576,0,0.5054958518121566,0.03534298400154512,0.3532662729940057,1.0010721657681643,4.602094363416654
3,23,female,169,135,85,change,catch,anti,3,0,1,0.6625246793764745,0,j,change,1.186419575700711,0,0.5059297854900251,0.035304176924000785,0.35333330339972235,1.0010465081968505,5.038773401308845
3,23,female,170,15,15,same,valid,clock,2,2,1,0.21928500045532928,0,j,change,1.6986826119918987,0.2380705253948594,0.5057415230589868,0.03531572283145579,0.3533313790817374,1.001081145918306,5.0741356284884205
3,23,female,171,165,215,change,catch,clock,4,1,3,0.2860953922850058,1,j,change,1.111314091010172,0,0.5053409442243719,0.035351643431567936,0.353302514313782,1.0010750522451417,4.578871374745631
3,23,female,172,75,75,same,valid,anti,1,2,3,0.20944949114618794,1,j,change,1.0448673952564604,0.24880618396449844,0.5052610850329984,0.03526344552938099,0.35337563839266295,1.0010134740737158,4.460550200962643
3,23,female,173,105,105,same,valid,anti,5,2,3,0.12248924627010638,1,j,change,1.2426019599820393,0.24628935483765818,0.5057986111555692,0.03536318933856819,0.3532829504156325,1.0010978233399328,4.5676987852425555
3,23,female,174,75,75,same,catch,anti,5,2,4,0.18617454589320914,1,f,same,2.4855207909718047,0,0.5053977116012902,0.03535934070305302,0.3533018728744537,1.0010439424395372,5.897902429387159
3,23,female,175,75,75,same,catch,clock,3,1,3,0.17717130405890202,1,j,change,1.0484863957140078,0,0.505457044735067,0.03529615893330629,0.35332432324958063,1.001074090086604,4.402670568328176
3,23,female,176,135,185,change,valid,clock,1,2,2,0.16299998588829112,1,j,change,1.2656244988756953,0.24387337249954816,0.5054746843156863,0.0353096291582915,0.3533297754834166,1.0010320758128728,4.614175872389296
3,23,female,177,75,75,same,valid,clock,2,0,3,0.14506213622371433,1,j,change,1.4558061159955287,0,0.5057280528340016,0.03533881464591104,0.35331277734212563,1.001062544179149,4.743882914238384
3,23,female,178,105,155,change,valid,clock,4,0,2,0.13573913690515838,1,j,change,1.3732352401611934,0,0.5057883481267709,0.035353247029888735,0.3532996278368046,1.0010567712256488,4.696872470323797
3,23,female,179,105,105,same,valid,clock,4,2,4,0.2863118780446712,1,f,same,1.711347830716477,0.2413137044618615,0.5055032283639775,0.03532919305689575,0.35327813962112486,1.0010795423199852,5.13260827174463
3,23,female,180,165,165,same,valid,clock,4,1,4,0.6700763441040181,1,f,same,1.499093004847964,0,0.5053922593674542,0.03535805782439638,0.35334966010123026,1.0010657513753358,5.320859156609913
3,23,female,181,135,185,change,valid,clock,1,0,4,0.18580443542396097,1,f,same,1.7245839304064248,0,0.5053941836849845,0.03529487605464965,0.3533413213908716,1.001053243309343,5.049624629729351
3,23,female,182,45,355,change,valid,anti,1,0,4,0.10864313781848978,1,j,change,1.111630641298234,0,0.505685717841061,0.03532277866361255,0.35332239893159567,1.0010356037291785,4.378649629183656
3,23,female,183,45,45,same,catch,anti,1,0,4,0.1410345389399481,1,j,change,0.8041794901068897,0,0.505955763781003,0.03532726873891079,0.3533349069975884,1.0010724864882832,4.2029385616624495
3,23,female,184,135,185,change,valid,clock,2,0,3,0.28951971591914116,1,f,same,1.6962047320257625,0,0.5053204181667752,0.03530994987795566,0.3533002692761329,1.0010952575830743,5.131968436055558
3,23,female,185,135,85,change,valid,anti,4,0,4,0.13389724399212355,1,j,change,0.9391415233158114,0,0.5059127873487341,0.03537473524602319,0.353314060221237,1.0010413766826787,4.2148549000185085
3,23,female,186,15,15,same,valid,anti,3,0,4,0.16960424478838831,1,f,same,1.7106428889401286,0,0.5048733349840404,0.03531091203694814,0.35329706207994604,1.0010878810312533,5.072672505474657
3,23,female,187,135,85,change,valid,anti,4,1,3,0.08502919190232205,1,j,change,1.6779747067657809,0,0.5058858468987637,0.03533207953341844,0.3532851954528269,1.0010782594417833,4.932848041749821
3,23,female,188,15,15,same,catch,anti,1,1,4,0.15629598317900673,1,f,same,1.2903898283125272,0,0.5047931550734575,0.03533207953341844,0.3532951377619611,1.0010583748239696,4.6132149963373195
3,23,female,189,165,215,change,valid,clock,1,1,4,0.13676736408206125,1,f,same,2.141571423622736,0,0.5061998314295124,0.03530898771896318,0.3533336241193865,1.001017322709231,5.416149452787977
3,23,female,190,135,85,change,catch,anti,2,0,4,0.20819932597532897,1,f,same,1.6823576614151534,0,0.5052880254829688,0.035350681273030204,0.35330604223008777,1.0010336794111936,5.0848685113605825
3,23,female,191,105,55,change,valid,anti,2,2,4,0.15148198132919788,1,j,change,0.9505341264944036,0.23874194740107663,0.5056202910341199,0.03535966142271718,0.3533291340440883,1.0010519604311412,4.261572847618481
3,23,female,192,165,165,same,catch,anti,4,2,4,0.11036219510788214,1,j,change,0.9812330900567758,0,0.5051696799346246,0.03532309938327671,0.3533169466977597,1.0010481117951713,4.27285448180055
3,23,female,193,135,135,same,catch,clock,3,1,4,0.09818671527909828,1,j,change,1.0555759034350558,0,0.505397390881626,0.035300649008149776,0.353347094343917,1.0009862129040812,4.4380732061827075
3,23,female,194,105,55,change,valid,anti,4,0,4,0.17049263820126725,1,f,same,3.6226694907099954,0,0.5052030347774235,0.0353603028620455,0.35331277734212563,1.0010574126649772,6.9811294976120735
3,23,female,195,135,135,same,valid,anti,4,2,4,0.164093960592254,1,f,same,1.964370613357005,0.23623765797972646,0.5055333760105896,0.03536543437621731,0.35329096840678176,1.0010679964134397,5.297747136935868
3,23,female,196,75,125,change,valid,clock,4,1,3,0.2595391643585572,1,j,change,1.3931849641498957,0,0.5053152866526034,0.035333683131739235,0.35330347647231974,1.0010487532344996,4.837893218318641
3,23,female,197,165,115,change,valid,anti,5,0,3,0.13835588847678082,1,j,change,1.0061315181460486,0,0.5055612786190977,0.03530385620479137,0.35333105836207324,1.0010439424395372,4.307784699620697
3,23,female,198,105,55,change,valid,anti,3,2,4,0.1732415262658833,1,f,same,2.0858839097518285,0.2338251041136054,0.5058502470183157,0.03530417692445553,0.3533304169227449,1.0010429802809995,5.4508147561823534
3,23,female,199,135,185,change,catch,clock,2,2,3,0.09241600673249195,1,j,change,1.4884983521424147,0,0.5056202910341199,0.0353275894581202,0.35329289272431197,1.0010728072079473,4.755856982130808
3,23,female,200,15,15,same,valid,clock,1,0,4,0.1662710055329626,1,f,same,1.5633078126024884,0,0.5057315807503073,0.03534330472075453,0.3532858368921552,1.0010384902057012,4.897118911298094
3,23,female,201,105,155,change,valid,clock,5,1,4,0.09483744004137407,1,j,change,4.724129149952205,0,0.5037306108938537,0.03530449764411969,0.3532880819293496,1.001087239591925,8.051309049297288
3,23,female,202,135,135,same,valid,clock,3,2,4,0.19427816912684648,1,j,change,0.9926478228908309,0.2312586324193608,0.5055035490836417,0.03537665956400815,0.3533044386313122,1.0010612613004923,4.378630706725289
3,23,female,203,45,45,same,valid,clock,4,0,3,0.1757854744787437,1,j,change,1.3112972211570195,0,0.5051558889899752,0.03534683263706029,0.35330700438908025,1.0010375280467088,4.696233276074054
3,23,female,204,165,115,change,valid,anti,1,1,3,0.1499373955257397,1,j,change,1.1145350783904178,0,0.505157492588296,0.03529680037263461,0.353323040370924,1.0010542054683356,4.472267693140566
3,23,female,205,135,135,same,valid,anti,5,1,3,0.19521114256986039,1,j,change,3.946630006273608,0,0.5059291440506968,0.035298724690619565,0.3533387556335583,1.0010526018700148,7.393944107546304
3,23,female,206,75,125,change,valid,clock,5,0,3,0.08040345248264202,1,j,change,0.9074120875388871,0,0.5058967513664356,0.03532053362641818,0.3533211160533938,1.0010423388412164,4.272915739252312
3,23,female,207,165,165,same,catch,clock,4,2,4,0.22486744657135205,1,j,change,0.9181071254924973,0,0.5057341465071659,0.03533207953341844,0.35332464396879004,1.0010490739541638,4.30881677543357
3,23,female,208,45,95,change,valid,clock,5,2,3,0.19856971867739048,1,j,change,1.1674887780195604,0.22866117396389224,0.5051937339080723,0.035337531767254404,0.35331406022078227,1.0010548469076639,4.625897533922398
3,23,female,209,135,135,same,valid,clock,5,0,3,0.24239926516702326,1,j,change,0.9574530113650326,0,0.5054980968498057,0.03534009752456768,0.35326755587266234,1.0010904467881119,4.366854843572128
3,23,female,210,165,165,same,catch,clock,4,1,2,0.4231526869252775,1,f,same,3.3433858629346105,0,0.5055292066549555,0.03534394616008285,0.3532912891264459,1.0010737693669398,6.981786331441981
3,23,female,211,15,325,change,valid,anti,3,1,2,0.13284111420580302,1,j,change,1.1497808843396342,0,0.5051212512685197,0.03532534442092583,0.3532726873872889,1.00107569368447,4.472597713653613
3,23,female,212,15,15,same,valid,clock,4,2,3,0.42779093441049554,1,f,same,2.0421015090500987,0.22611828543483303,0.5054063710317678,0.035289103100694774,0.3533211160533938,1.0010574126645224,5.603695075157248
3,23,female,213,15,325,change,valid,anti,5,1,2,0.17731915581452995,1,j,change,1.342433325593447,0,0.5053213803262224,0.03534041824423184,0.35331277734212563,1.001032396532537,4.719828940971183
3,23,female,214,45,45,same,valid,clock,5,0,3,0.1371756401881612,1,j,change,1.137829908261665,0,0.505406371031313,0.035353567749552894,0.35331855029562576,1.0010561297863205,4.4733802695841405
3,23,female,215,15,15,same,valid,anti,5,1,4,0.23766063243374447,1,f,same,2.3317334768448745,0,0.5051744907291322,0.035321816504620074,0.3532980242389385,1.0010705621702982,5.8509625437941395
3,23,female,216,75,25,change,catch,anti,2,2,4,0.20250975949875283,1,j,change,0.9618164021158009,0,0.5049599292879066,0.03534554975840365,0.35325697212465457,1.0010750522451417,4.354586034326985
3,23,female,217,45,355,change,catch,anti,5,1,4,0.15635435415379106,1,j,change,1.070385132976753,0,0.5058473605413383,0.03532726873891079,0.3533316998009468,1.00107954232044,4.391062441548911
3,23,female,218,165,215,change,valid,clock,1,0,4,0.19633334060290508,1,f,same,1.4771150498331735,0,0.5053829584976484,0.03531860930797848,0.3532813468173117,1.001087239591925,4.861791963278847
3,23,female,219,45,45,same,valid,clock,3,1,4,0.15350411868166702,1,j,change,0.7546392096442105,0,0.5053508865330514,0.03532309938327671,0.35331502237977475,1.0010772972827908,4.083923350570785
3,23,female,220,75,25,change,valid,anti,3,1,4,0.1669720986737957,1,j,change,0.734930987547159,0,0.5056825106444194,0.035371528049381595,0.3532787810604532,1.0010750522455965,4.096707556283036
3,23,female,221,75,75,same,valid,clock,3,1,2,0.3412610952959767,1,j,change,1.8158998687617895,0,0.5052835354081253,0.035340738963441254,0.3532896855281251,1.0010423388412164,5.414976260331969
3,23,female,222,45,45,same,valid,clock,1,0,3,0.33475080725111184,1,j,change,1.2447033150865536,0,0.5055805217980378,0.035300328288940364,0.35333618987624504,1.0010561297863205,4.837873012981618
3,23,female,223,105,155,change,valid,clock,1,0,3,0.1778268550106077,1,j,change,1.0105446204411237,0,0.5058454362233533,0.03536286861935878,0.35331983317473714,1.001032396532537,4.437888792388094
3,23,female,224,75,75,same,valid,anti,4,0,3,0.18272680972449962,1,j,change,2.250313022372211,0,0.5057614076768004,0.0352884616618212,0.3533358691565809,1.001060940581283,5.579905695596153
3,23,female,225,165,115,change,catch,anti,4,0,2,0.45225863601763194,1,j,change,1.4317033933421044,0,0.5059422935560178,0.03534843623538109,0.35331566381910307,1.001050998271694,5.073864299669822
3,23,female,226,75,125,change,catch,clock,2,2,4,0.47727637181424143,1,f,same,2.3136269286478637,0,0.5060035510077796,0.035318609308433224,0.353287440490476,1.0010792216007758,5.98109421845129
3,23,female,227,105,105,same,valid,anti,2,0,3,0.2552530670423039,1,j,change,0.9004399632067361,0,0.5054551204170821,0.035332400253082596,0.35327268738683415,1.0010898053487836,4.3198219492828684
3,23,female,228,135,185,change,catch,clock,1,0,4,0.2546558870658373,1,f,same,1.627634872231738,0,0.5056141973605008,0.03523971227605216,0.35339808876733514,1.0010218127845292,5.026907415936421
3,23,female,229,165,165,same,valid,clock,1,2,4,0.2552505012849906,1,j,change,0.8403059921975,0.2236592271595455,0.5055955956213438,0.03533047593509764,0.3532951377619611,1.0010708828899624,4.296137124325014
3,23,female,230,165,165,same,valid,anti,2,1,3,0.38049184281680937,1,j,change,2.648521418299424,0,0.5058140056985394,0.03535517134787369,0.3533012314351254,1.001071524328836,6.286893342758049
3,23,female,231,135,135,same,valid,clock,1,2,3,0.18098081198513682,1,j,change,1.4067437078010698,0.22103033575778258,0.5057707085466063,0.03530994987795566,0.35331341878145395,1.0010259821401633,4.802918099749149
3,23,female,232,165,115,change,catch,anti,2,2,3,3.1876966813215404,1,j,change,1.4766843233519467,0,0.5050102822715417,0.03532149578541066,0.35332720972655807,1.0010760144041342,7.947340721003457
3,23,female,233,75,25,change,catch,anti,2,1,3,0.17394358156616363,1,f,same,1.8208437620669429,0,0.5052248437132221,0.03532791017778436,0.35330892870661046,1.0010458667575222,5.215009807606748
3,23,female,234,45,355,change,valid,anti,2,0,2,0.28801169215512346,1,f,same,2.960196767915477,0,0.5055522984694107,0.03531091203694814,0.35327557386335684,1.0010580541043055,6.451252859215401
3,23,female,235,105,105,same,valid,anti,1,0,3,0.28659058341463606,1,j,change,1.3224470395653043,0,0.5059634610524881,0.035329193056441,0.3533259268474467,1.0010577333846413,4.849911224802781
3,23,female,236,15,65,change,valid,clock,3,1,1,0.4267822711312874,0,j,change,1.9549404936774408,0,0.505972120482511,0.035368320853194746,0.35332785116543164,1.001053243309343,5.580895115696421
3,23,female,237,45,45,same,valid,anti,5,0,1,0.1833589481425406,0,j,change,1.7693057189444517,0,0.5046616600193374,0.03528333014719465,0.35329545848162525,1.0010882017504628,5.2022842935894005
3,23,female,238,75,75,same,valid,anti,5,2,1,0.9086391608948361,0,j,change,0.687056845632469,0.21834387251625514,0.5053537730100288,0.03531379851347083,0.353278460340789,1.0010782594413286,4.802602190899961
3,23,female,239,15,15,same,valid,clock,5,2,2,0.16083256253705258,1,j,change,5.144045454953812,0.22763511820296972,0.5054576861743953,0.03529391389565717,0.3533339448390507,1.0010044939240288,8.547845918585608
3,23,female,240,75,125,change,valid,clock,3,2,4,0.4146728595492277,1,f,same,1.7805899188838339,0.22547183332899684,0.5055750695637471,0.03528910310114952,0.3533191917354088,1.0010769765631267,5.344848023789382
3,23,female,241,15,15,same,catch,anti,4,1,3,0.2679519613288903,1,j,change,1.0970164092996129,0,0.5049785310270636,0.035317005710112426,0.3532694801906473,1.001081145918306,4.566564720582392
3,23,female,242,105,105,same,catch,clock,4,0,3,0.19084743109942792,1,j,change,1.051961393052352,0,0.505811119221562,0.03532502370126167,0.3532960999204988,1.001045866757977,4.437951974157841
3,23,female,243,45,45,same,valid,anti,2,1,3,0.22607880466512142,1,j,change,1.0650695256040308,0,0.5056453071661053,0.035304176924000785,0.3533163052584314,1.0010526018700148,4.484905650695055
3,23,female,244,105,105,same,valid,clock,2,2,3,0.3474590024079589,1,j,change,0.9795377660207123,0.22337090956431288,0.5055362624871123,0.035321175065291754,0.3533201538944013,1.0010458667575222,4.578814286648594
3,23,female,245,15,325,change,valid,anti,2,0,4,0.16466901091371255,1,j,change,1.3482832518916439,0,0.5058675658788161,0.035335607449269446,0.3533185502960805,1.0010580541038507,4.696966761899148
3,23,female,246,75,125,change,catch,clock,3,1,2,0.17965239122167986,1,j,change,1.2805200020015945,0,0.5053608288421856,0.03536671725487395,0.3533050800710953,1.0010651099360075,4.696496586901503
3,23,female,247,75,25,change,catch,anti,3,0,3,0.3414275487912164,1,j,change,1.583001281595898,0,0.5059025243203905,0.03527884007235116,0.3533464529050434,1.0010914089471044,5.1800956257688995
3,23,female,248,15,65,change,valid,clock,3,0,4,0.19112613646984755,1,f,same,2.174785791350132,0,0.5056494765217394,0.03528782022249288,0.35336473392453627,1.0010548469076639,5.591977903699444
3,23,female,249,135,185,change,valid,clock,2,2,4,0.14627573935467808,1,f,same,1.4555113746428106,0.22112258182304223,0.5054692320818504,0.035316684990448266,0.3533086079869463,1.0010535640290072,4.802760626404051
3,23,female,250,15,65,change,valid,clock,3,2,4,0.5296800372543657,1,j,change,1.2623287838182478,0.2188405728342815,0.505604896490695,0.03532342010294087,0.3533211160533938,1.0010766558430078,5.026983747211034
3,23,female,251,15,15,same,valid,clock,2,1,2,0.2840373343324245,1,j,change,1.2055415222894226,0,0.502344460594486,0.03534170112243373,0.35330828726728214,1.0010821080772985,4.7411837377180746
3,23,female,252,135,135,same,valid,anti,1,2,3,0.28925576365281813,1,j,change,1.2794019733237292,0.21660385161755447,0.504538824395695,0.03536447221722483,0.35331951245461823,1.0009993624094022,4.766298010126775
3,23,female,253,165,215,change,valid,clock,2,1,2,0.18019921821360185,1,j,change,1.290321515028154,0,0.5050930279398926,0.035320533625963435,0.3533050800710953,1.0010712036096265,4.69619222395977
3,23,female,254,45,45,same,valid,clock,4,1,2,0.14920551329896625,1,j,change,1.7969732404358183,0,0.5057841787715915,0.03529359317644776,0.3532884026494685,1.0010942954240818,5.22691139285962
3,23,female,255,45,45,same,catch,clock,4,2,2,0.1822806887007573,1,j,change,1.3820486159665961,0,0.5055599957408958,0.035316684990448266,0.3533130980617898,1.001028868616686,4.82674179631249
3,23,female,256,45,45,same,valid,anti,3,0,3,0.9960115305125328,1,f,same,3.0599665553554587,0,0.5055311309729404,0.03533143809409012,0.3532980242384838,1.001038490206156,7.358293232687174
3,23,female,257,165,165,same,valid,anti,5,0,3,0.6424171613230101,1,j,change,2.854577054177298,0,0.505736391544815,0.03533496600994113,0.35331662597809554,1.00107569368447,6.7349806990919205
3,23,female,258,45,45,same,valid,clock,2,1,3,0.20921696940467882,1,j,change,1.868720149019282,0,0.5050481271896388,0.03532534442092583,0.3533387556331036,1.0010558090666564,5.261833913408282
3,23,female,259,75,75,same,catch,anti,4,1,3,1.4621906819397736,1,j,change,4.131394989332875,0,0.5053040614652673,0.03531187419594062,0.35331149446392374,1.0010558090666564,8.81893515946831
3,23,female,260,15,15,same,catch,anti,2,2,3,0.522743512804027,1,j,change,7.11178875608266,0,0.5047687803798908,0.03538275323717244,0.3532451054975354,1.0010994269377989,10.843638590014052
3,23,female,261,165,165,same,catch,anti,3,0,3,0.1111482789542606,1,f,same,1.603564221542456,0,0.5060317743364067,0.035318288588769065,0.35329225128498365,1.0010503568323657,4.956156341846054
3,23,female,262,15,15,same,valid,clock,5,1,3,0.18692567129846793,1,f,same,1.6566102884294196,0,0.5056590981107547,0.03531027059761982,0.35331855029562576,1.0010631856184773,5.05068909822603
3,23,female,263,165,115,change,valid,anti,4,2,3,0.1288558519149774,1,j,change,1.1220197127122447,0.21444326649565115,0.5048726935447121,0.03533143809409012,0.35330508007064054,1.001070241450634,4.460630701593345
3,23,female,264,45,95,change,catch,clock,1,1,2,0.1617745161302082,1,j,change,1.2187644724735947,0,0.5055920677050381,0.03532374082260503,0.35333458627792425,1.0010766558434625,4.590976616972057
3,23,female,265,45,355,change,valid,anti,5,2,2,0.09625951094130869,1,f,same,3.6570586544912658,0.21214450185594824,0.5055866154712021,0.03532277866361255,0.35327332882616247,1.001079221600321,7.016982425845981
3,23,female,266,135,185,change,valid,clock,3,2,4,0.22279527695445722,1,f,same,1.6332416930404179,0.20984509281892938,0.5054920031766414,0.035267294165350904,0.35336120600868526,1.0010622234594848,5.073850829445291
3,23,female,267,135,135,same,valid,anti,1,0,4,0.23596883631353194,1,f,same,1.4417473704193071,0,0.5053159280923865,0.03532342010294087,0.3532765360223493,1.0010827495166268,4.908834479158031
3,23,female,268,45,45,same,valid,clock,5,2,4,0.2665183445224102,1,j,change,1.1040687135423468,0.20750235898552288,0.5053300397562452,0.035321816504620074,0.3533794870281781,1.0009554238181408,4.55487384813523
3,23,female,269,105,55,change,valid,anti,1,2,4,0.0985173772314738,1,f,same,1.5635364857080276,0.20524817470821854,0.5057235627591581,0.0353699244510608,0.35333105836207324,1.0010516397110223,4.897700055292262
3,23,female,270,45,45,same,valid,anti,2,2,3,0.27812326410503374,1,f,same,1.5101600775883526,0.20304764122804547,0.5050615974150787,0.03529487605464965,0.35333202052061097,1.0010670342544472,5.049813854318927
3,23,female,271,105,155,change,valid,clock,5,0,4,0.5371669166138417,1,j,change,1.3752435865694679,0,0.5050385056001687,0.035315081392582215,0.35331951245461823,1.0010461874771863,5.108495286062407
3,23,female,272,45,355,change,valid,anti,1,2,3,0.18723805223089585,1,j,change,1.3038331128923346,0.20067602405647456,0.5052408796955206,0.035320533625963435,0.3533153430994389,1.0010477910755071,4.731539377316494
3,23,female,273,165,165,same,catch,anti,3,1,3,0.759889069489418,1,f,same,3.1893814216091414,0,0.5057206762821806,0.03536543437621731,0.35328615761181936,1.0010840323952834,7.146840205927674
3,23,female,274,45,45,same,valid,anti,3,1,3,0.16404521120648496,1,j,change,1.4662753673201223,0,0.50556031646056,0.035316364270784106,0.35329513776150634,1.0010689585719774,4.873971291743146
3,23,female,275,105,55,change,valid,anti,2,1,2,0.46635683010981666,1,j,change,1.8256811764508711,0,0.5051295899788784,0.03530545980311217,0.3533054007903047,1.0010843531149476,5.437947484082542
3,23,female,276,165,165,same,valid,clock,4,0,1,0.4083543618512522,0,j,change,1.8099453878589884,0,0.5058146471378677,0.035321175065291754,0.3532832711348419,1.001096540461731,5.462753544913994
3,23,female,277,165,165,same,valid,anti,1,0,1,0.2248498069911875,0,j,change,1.6066598075426555,0,0.5055099634764701,0.03531540211179163,0.35328936480846096,1.0010827495170815,5.073966609236322
3,23,female,278,165,215,change,valid,clock,5,1,3,0.32683801220537134,1,j,change,0.9194438849672224,0,0.50532041816723,0.0353195714674257,0.3532864783314835,1.0010731279271567,4.448906474303385
3,23,female,279,135,185,change,valid,clock,3,1,3,0.1542141919721871,1,j,change,1.261519608157414,0,0.5060003438115928,0.035349719114037725,0.35330989086560294,1.0010715243292907,4.626962323139196
3,23,female,280,165,215,change,valid,clock,2,2,2,0.12861884009817004,1,j,change,1.8518365048230407,0.19823523653411823,0.5050933486595568,0.03533689032838083,0.35324638837619204,1.001092691825761,5.155756853458115
3,23,female,281,45,45,same,valid,clock,2,2,4,0.210815756827742,1,f,same,1.5776722039981905,0.19585276194688794,0.5052771210152969,0.03529680037217986,0.35330540079075945,1.0011032755737688,4.943662708130887
3,23,female,282,45,45,same,catch,anti,5,2,4,0.17555166985857795,1,f,same,3.061654182120037,0,0.5054477438657159,0.03531508139212747,0.353314060221237,1.0010865981525967,6.463577473678924
3,23,female,283,15,15,same,catch,anti,5,0,3,0.18582143356570668,1,j,change,1.1561763547520059,0,0.5055394696837539,0.03535485062820953,0.35326178291870747,1.0010651099364622,4.532116544387009
3,23,female,284,15,65,change,valid,clock,1,1,4,0.15045503703004215,1,f,same,1.7591931078627567,0,0.505691170074897,0.035353888469217054,0.35328455401349856,1.001087239591925,5.09722648066645
3,23,female,285,45,45,same,catch,anti,5,0,2,0.3191619082563193,1,f,same,2.3965236556391574,0,0.5056667953822398,0.035335928168933606,0.35326819731199066,1.001098144059597,5.862803192314914
3,23,female,286,45,45,same,catch,clock,3,0,3,0.2407032996916314,1,j,change,1.372775648912011,0,0.5058803946649277,0.03531283635447835,0.35330475935143113,1.0010561297863205,4.850053624324573
3,23,female,287,165,115,change,valid,anti,2,1,4,0.15760355716565755,1,j,change,1.0617706033503964,0,0.5059573673793238,0.03531476067246331,0.3532986656778121,1.0010445838793203,4.403061525573321
3,23,female,288,135,135,same,catch,anti,4,1,4,0.18597441683550642,1,j,change,0.9802860049494484,0,0.5049974534858848,0.035318609308433224,0.3532890440887968,1.001094295423627,4.3785710528713935
3,23,female,289,45,95,change,valid,clock,5,0,4,0.13310827366876765,1,j,change,0.9748065098392544,0,0.5055763524428585,0.03531315707459726,0.3532858368921552,1.0010583748239696,4.332150412381452
3,23,female,290,165,165,same,valid,clock,1,1,4,0.17001155873595053,1,f,same,1.72657078859811,0,0.5051510781950128,0.03535934070305302,0.35330443863176697,1.0010522811503506,5.108878866756186
3,23,female,291,165,115,change,valid,anti,4,1,3,0.6299742013120522,1,f,same,1.7690635756134725,0,0.5051866780759156,0.03536415149756067,0.3533086079869463,1.00100994615741,5.650791792656037
3,23,female,292,15,325,change,catch,anti,4,0,3,0.2262369194495477,1,f,same,2.015985308474683,0,0.5050551830217955,0.035354209188426466,0.35328359185496083,1.0010368866078352,5.426757254998847
3,23,female,293,15,15,same,valid,anti,2,1,3,0.16052338880035677,1,j,change,1.0881443417997616,0,0.5051116296790497,0.03530738412109713,0.3533127773425804,1.001028547896567,4.437596296073025
3,23,female,294,165,165,same,valid,clock,1,0,3,0.20438821445077338,1,f,same,1.7206859038587936,0,0.505003867879168,0.035319250747761544,0.35329032696745344,1.0010869188718061,5.1436737408866975
3,23,female,295,75,75,same,valid,anti,1,1,3,0.11724997017336136,1,j,change,0.9723542874439772,0,0.5051619826631395,0.03532791017778436,0.3533137395011181,1.0010622234594848,4.296300691343276
3,23,female,296,165,115,change,valid,anti,3,2,3,0.16783579667389859,1,f,same,1.1918339647231733,0.19353129895841503,0.5052707066220137,0.03533047593509764,0.35329545848162525,1.001049715393492,4.578842509977221
3,23,female,297,75,25,change,catch,anti,5,1,2,0.33002724834113906,1,f,same,4.154054794309559,0,0.5053290775972528,0.03532662729958247,0.3533057215104236,1.0010567712256488,7.652790196754722
3,23,female,298,135,185,change,valid,clock,4,0,4,0.141620814448288,1,f,same,1.5418202379223658,0,0.5051895645524382,0.03534458759941117,0.35329866567826684,1.0010429802809995,4.908611258285873
3,23,female,299,15,325,change,valid,anti,1,2,3,0.17652569541633056,1,f,same,1.4537300977422092,0.19103099159862885,0.5051081017631986,0.035336569608261925,0.3532867990511477,1.0010737693669398,4.837554859095235
3,23,female,300,165,165,same,valid,clock,3,2,4,0.3398284406480343,1,f,same,2.026307990922305,0.1884510880061393,0.5057116961320389,0.03527434999750767,0.3533323412402751,1.0010349622898502,5.532858689642126
3,23,female,301,165,115,change,valid,anti,1,2,3,0.13044148983271953,1,j,change,1.5161572142033037,0.18590047769728413,0.5070394754566223,0.03535837854406054,0.3533137395011181,1.0010522811508054,4.8158751733490135
3,23,female,302,105,105,same,valid,anti,5,0,3,0.12471568203591232,1,f,same,2.124662442574845,0,0.5055779560407245,0.035353888469217054,0.3533044386313122,1.0010805044794324,5.426746029811511
3,23,female,303,75,75,same,valid,anti,2,1,4,0.21616247400561406,1,f,same,2.3053016881399344,0,0.5052691030241476,0.03538211179784412,0.35330411791164806,1.0010696000113057,5.733322578534626
3,23,female,304,15,325,change,valid,anti,4,2,4,0.09870211174620636,1,f,same,1.7782008782587582,0.18340885759245035,0.505136966531154,0.03536351005823235,0.3532550478066696,1.0010856359931495,5.131807755514274
3,23,female,305,105,105,same,valid,clock,4,0,4,0.18940675846079102,1,j,change,1.6414553231120408,0,0.5058653208416217,0.035302894045798894,0.35332239893159567,1.001047470355843,5.014771705343264
3,23,female,306,165,165,same,catch,anti,5,0,3,0.17355262432056406,1,j,change,1.2196589595600926,0,0.505942614275682,0.035302252606470574,0.35334356642806597,1.0010567712256488,4.579920769419459
3,23,female,307,105,155,change,valid,clock,5,2,3,0.1520442028645448,1,f,same,2.0345755018943237,0.18071090591610217,0.5046565285047109,0.03535613350686617,0.35330700438908025,1.0010564505059847,5.367466776651781
3,23,female,308,105,155,change,valid,clock,1,1,3,0.11804952424427029,1,f,same,1.7004289304509257,0,0.5053213803262224,0.03533496600994113,0.35331726741742386,1.001060619861164,5.0028531219491015
3,23,female,309,135,185,change,valid,clock,1,1,3,0.1503520860246681,1,j,change,0.9788767628356254,0,0.5052460112096924,0.03528974454047784,0.353358640251372,1.0010263028593727,4.378560469122931
3,23,female,310,45,95,change,valid,clock,3,1,4,0.20396710955901654,1,f,same,3.7133994742762297,0,0.5053842413758503,0.03530417692445553,0.3533339448385959,1.0010718450489549,7.146809737561398
3,23,female,311,165,165,same,catch,clock,1,2,4,0.10895295299405916,1,f,same,1.2804680454187292,0,0.504953194175414,0.03529936612949314,0.35333009620308076,1.0010647892163433,4.554731127894229
3,23,female,312,75,75,same,catch,anti,5,1,4,0.13062494146879544,1,f,same,1.1846998769719903,0,0.5059586502579805,0.035349077674709406,0.35328551617249104,1.001043942439992,4.509128643214808
3,23,female,313,75,75,same,catch,clock,2,0,4,0.11616112698311554,1,f,same,0.8931490435497835,0,0.5048419044587718,0.03534170112288848,0.35325408564767713,1.0010744108062681,4.213361629358587
3,23,female,314,165,215,change,valid,clock,4,0,4,0.1349838421442655,1,f,same,1.846565156761244,0,0.5053483207761928,0.035336569608261925,0.35325312348868465,1.001060619861164,5.120844595938252
3,23,female,315,45,355,change,catch,anti,5,0,4,0.05125677199521306,1,j,change,1.0328618968387673,0,0.5053576216459987,0.03533496600994113,0.3533092494262746,1.0010465081968505,4.307866162409937
3,23,female,316,15,325,change,valid,anti,1,1,4,0.22247327443210452,1,j,change,0.9163367530600226,0,0.5058569821308083,0.03525863473487334,0.35336858256005144,1.001087239591925,4.391056027155628
3,23,female,317,45,45,same,valid,clock,4,2,4,0.22012304088411838,1,j,change,0.9480318718351555,0.17788907356050732,0.5048688449087422,0.03534266328188096,0.35329160984565533,1.0010654306561264,4.343285477686095
3,23,female,318,135,85,change,valid,anti,3,1,4,0.18581469845275933,1,j,change,1.0453670764609342,0,0.5049031619105335,0.035367679413866426,0.35328455401349856,1.0010243785418425,4.507693422809552
3,23,female,319,45,45,same,valid,anti,5,1,3,0.21468299428988757,1,j,change,0.97580458937,0,0.5056930943928819,0.035314119233589736,0.3533041179121028,1.0010641477774698,4.3668955749667475
3,23,female,320,75,125,change,catch,clock,3,2,4,0.1965899163174072,1,f,same,1.5847261118387905,0,0.5056424206891279,0.03536254789969462,0.35331341878145395,1.001052922589679,4.932663627954753
3,23,female,321,165,115,change,valid,anti,3,1,4,0.09285058184968875,1,j,change,1.0730618591219354,0,0.5055853325925455,0.035333683131739235,0.3533137395011181,1.001047470355843,4.332067345993437
3,23,female,322,15,15,same,valid,clock,3,0,4,0.16196181640225404,1,j,change,0.9483195573557168,0,0.5052755174169761,0.03534266328142621,0.35323869110470696,1.0011029548541046,4.342880408776182
3,23,female,323,105,55,change,valid,anti,1,0,4,0.18282879857133594,1,j,change,0.7901175373349361,0,0.505515094990642,0.035338173206582724,0.3533284926052147,1.0010522811503506,4.202482177609454
3,23,female,324,135,85,change,valid,anti,3,0,3,0.17302728554432178,1,f,same,2.2811899853363684,0,0.5052902705206179,0.03530706340143297,0.3532685180312001,1.001100389097246,5.6619121048574925
3,23,female,325,165,215,change,valid,clock,3,2,4,0.12436802194224583,1,f,same,1.481327060912463,0.1751047582733568,0.5059868735861528,0.0352916688584628,0.3533159845387672,1.0010837116756193,4.779911917557001
3,23,female,326,15,325,change,valid,anti,1,0,3,0.20386479999251605,1,j,change,1.1684650486145074,0,0.5052745552579836,0.035337852486918564,0.35330283503344617,1.0010433010002089,4.566823541334998
3,23,female,327,165,165,same,valid,anti,4,2,3,0.17154876798758778,1,f,same,1.8400128544435574,0.1723592457778486,0.5057424852179793,0.035316684990448266,0.3533054007903047,1.001058374823515,5.155808168601197
3,23,female,328,15,15,same,catch,clock,1,0,4,0.1320136575250217,1,f,same,1.4646698447845665,0,0.5058643586826292,0.03532983449576932,0.3533076458279538,1.0010429802809995,4.791672065447528
3,23,female,329,105,105,same,valid,clock,2,0,4,0.12120572625644854,1,f,same,1.597560670535131,0,0.5053534522903647,0.03532502370126167,0.3532524820489016,1.0010763351237983,4.967964276962903
3,23,female,330,15,325,change,valid,anti,4,1,4,0.611424418567367,1,j,change,1.3956952367998383,0,0.5050349776843177,0.03533881464591104,0.3532890440887968,1.0010840323948287,5.2498229627567525
3,23,female,331,105,55,change,valid,anti,4,1,3,0.11695971889594148,1,j,change,1.4137411689848705,0,0.5049669851196086,0.03530770484030654,0.3533454907460509,1.0010356037291785,4.755277441734506
3,23,female,332,15,15,same,catch,clock,4,1,4,0.18302732403071786,1,f,same,1.6214157976232855,0,0.5054124647049321,0.03533143809409012,0.35327878105999844,1.0010769765631267,4.967870947546999
3,23,female,333,15,65,change,valid,clock,5,2,4,0.11787056268349261,1,f,same,1.7329322627288093,0.1692967449483163,0.5055308102532763,0.03534522903873949,0.3534372165640889,1.0008916006090658,5.097142131400233
3,23,female,334,105,105,same,catch,anti,2,1,4,0.12033016163013599,1,f,same,0.9085310783748355,0,0.5055843704340077,0.03532277866361255,0.3532765360223493,1.0010997476579178,4.213798770232643
3,23,female,335,15,15,same,catch,clock,3,2,4,0.10519636380922748,1,f,same,0.9957527097603815,0,0.5060372265706974,0.03533432457061281,0.3532957792012894,1.0010317550932086,4.297124299388088
3,23,female,336,75,75,same,catch,clock,1,0,4,0.08293040255466622,1,j,change,0.8094793822169777,0,0.5053810341796634,0.035337852486918564,0.35329609992095357,1.00106992073097,4.107907406955746
3,23,female,337,75,25,change,valid,anti,4,2,2,0.21385297185224772,1,j,change,1.3113308967194826,0.16609956414993632,0.5057838580519274,0.03528044367067196,0.35332336109058815,1.0010785801614475,4.75619886927052
3,23,female,338,165,165,same,valid,clock,3,1,4,0.19704213101522328,1,f,same,1.6650307826716926,0,0.505031449768012,0.03534522903873949,0.3533076458279538,1.0010237371025141,5.025608180660129
3,23,female,339,105,105,same,catch,anti,5,2,4,0.16340537551786838,1,j,change,0.9262976637496649,0,0.5060856552368023,0.03534971911358298,0.3533214367726032,1.0010416974023428,4.308918764280406
3,23,female,340,15,65,change,valid,clock,4,2,4,0.20290681041751668,1,j,change,0.7601045930900909,0.16294997787957594,0.5057033574216803,0.03534138040276957,0.35326402795681133,1.0010872395914703,4.214195821151407
3,23,female,341,75,75,same,valid,clock,2,2,4,0.1474983226362383,1,j,change,0.6472975521392073,0.15943010465360452,0.5049871904575411,0.03534490831907533,0.35331277734212563,1.0010705621702982,4.001358568410069
3,23,female,342,15,325,change,valid,anti,3,2,4,0.09866073891225824,1,f,same,1.0831927512231232,0.1556532528469256,0.5055548642262693,0.03530578052277633,0.35332624756711084,1.0010580541043055,4.449805130744608
3,23,female,343,15,65,change,valid,clock,2,2,4,0.10703537024528487,1,j,change,0.579337380387642,0.15190061657208914,0.5052142599652143,0.03533111737442596,0.35328102609764755,1.0010635063381415,3.9187687701173672
3,23,female,344,15,325,change,valid,anti,4,0,4,0.11827659375239818,1,f,same,0.8452774673924068,0,0.5055564678250448,0.035354209188426466,0.3533159845387672,1.0010349622898502,4.261445201200331
3,23,female,345,135,135,same,valid,anti,5,0,4,0.23957244222901863,1,j,change,0.6274299323795276,0,0.5052011104598932,0.035298403970955405,0.3533089287061557,1.001042018122007,4.130822504769185
3,23,female,346,105,55,change,valid,anti,2,0,4,0.1945094079901537,1,f,same,1.0123582900255315,0,0.5059012414412791,0.03536126502103798,0.35331726741742386,1.001066072095,4.40292650260335
3,23,female,347,15,65,change,valid,clock,4,0,4,0.18042853275892412,1,j,change,0.7587107455192381,0,0.5053271532792678,0.03532021290675402,0.35325665140453566,1.001088843189791,4.154724136205459
3,23,female,348,165,115,change,valid,anti,1,0,4,0.1882216993781185,1,j,change,0.5907707149608541,0,0.5057145826090164,0.035336569608261925,0.3532948170422969,1.0010423388416712,4.001900584607483
3,23,female,349,75,75,same,catch,clock,4,2,4,0.15145792735575014,1,j,change,0.7186509377197581,0,0.5056956601501952,0.035368962292523065,0.3532813468173117,1.0010824287969626,4.072794699658971
3,23,female,350,15,65,change,valid,clock,2,0,4,0.20854089239583118,1,j,change,0.6360832690825191,0,0.5058396632698532,0.0353080255599707,0.3533185502960805,1.0010404145236862,4.0380755153641985
3,23,female,351,15,15,same,catch,clock,5,2,4,0.11258927231301641,1,j,change,0.6484662545203719,0,0.5097745725770437,0.035337852486918564,0.3533034764727745,1.0010574126645224,4.006241845703244
3,23,female,352,165,215,change,catch,clock,2,0,4,0.16503463130720775,1,j,change,1.4769171658135747,0,0.5050933486595568,0.0353391353655752,0.353298986397931,1.001047470355843,4.873476742052844
3,23,female,353,75,75,same,catch,clock,3,0,1,0.3679016724890971,0,j,change,33.784697375358974,0,0.5053457550188796,0.035374414525904285,0.3532980242389385,1.001052922589679,37.308267382684335
3,23,female,354,45,355,change,valid,anti,3,1,3,0.26072165768437117,1,f,same,2.4829755598802876,0,0.5049528734557498,0.03533272097229201,0.353263386517483,1.00107569368447,5.920604569356783
3,23,female,355,135,135,same,catch,clock,1,0,3,0.12270797706696612,1,j,change,1.4036086732853619,0,0.5058181750537187,0.0353112327566123,0.35334901866190194,1.0010500361131562,4.81467888907855
3,23,female,356,15,65,change,valid,clock,5,0,4,0.19621275001691174,1,f,same,2.0815949259585977,0,0.5060346608133841,0.03532566514013524,0.3532701216299756,1.0010506775520298,5.52216204808974
3,23,female,357,45,45,same,valid,anti,4,0,3,0.18204303544462164,1,j,change,7.305772825296572,0,0.5051546061113186,0.035335928168933606,0.3533159845387672,1.001019247027216,10.715103457742316
3,23,female,358,45,45,same,catch,anti,3,0,3,0.16652886412657608,1,j,change,0.762936226823058,0,0.505104894566557,0.035335928168933606,0.3533191917354088,1.0010449045989844,4.154903097766692
3,23,female,359,165,165,same,valid,anti,4,0,3,0.07448136426410201,1,j,change,1.0619611108190838,0,0.5055571092639184,0.03536094430137382,0.3532755738638116,1.0010526018704695,4.367114626483271
3,23,female,360,135,135,same,valid,clock,1,0,3,0.06220646134624985,1,j,change,0.996721924522717,0,0.505511567074791,0.03530738412064238,0.3533307376424091,1.0010410559630145,4.27283331430408
3,23,female,361,75,75,same,catch,clock,1,0,3,0.15395023970540933,1,j,change,0.9800076202991477,0,0.5053810341801181,0.035297441811962926,0.3532967413602819,1.0010862774324778,4.319684681275248
3,23,female,362,135,185,change,valid,clock,5,1,4,0.19336475958243682,1,f,same,1.6391047688443905,0,0.505910542311085,0.0352916688584628,0.3533470943443717,1.001057091945313,4.968122712466993
3,23,female,363,105,155,change,valid,clock,4,1,4,0.12340586301161238,1,j,change,0.9717221490268457,0,0.5050603145364221,0.035317647149440745,0.3533182295759616,1.0010436217203278,4.248385818033967
3,23,female,364,105,105,same,valid,clock,3,1,4,0.13055726962375047,1,j,change,0.7931284533487997,0,0.5058483227007855,0.03532085434608234,0.35331245662246147,1.0010577333846413,4.131765099801669
3,23,female,365,165,115,change,catch,anti,5,2,4,0.12589528888474888,1,f,same,3.868437595013347,0,0.5056485143622922,0.035320212906299275,0.3533163052584314,1.001077618002455,7.182011925639472
3,23,female,366,165,215,change,valid,clock,5,0,4,0.09785669476559633,1,j,change,0.7443370532537301,0,0.5057155447680088,0.03529904540982898,0.35330989086560294,1.0010952575826195,4.06104000400228
3,23,female,367,165,165,same,valid,anti,4,1,4,0.13938058773783268,1,f,same,1.0305870324068565,0,0.5053582630848723,0.03531476067246331,0.35330828726728214,1.0010442631596561,4.343702092503008
3,23,female,368,135,185,change,catch,clock,4,2,4,0.10925218442162077,1,j,change,3.4845958355194853,0,0.5052389553779904,0.035313798513925576,0.3533121359027973,1.0010352830095144,6.804973912664536
3,23,female,369,105,55,change,catch,anti,1,2,4,0.0802966528417528,1,j,change,0.9260962518137603,0,0.505464421286888,0.035336248888597765,0.3532694801906473,1.001084994554276,4.2371147675999055
3,23,female,370,75,125,change,valid,clock,4,2,4,0.14047135524560872,1,f,same,0.7019764027313613,0.14747592707221113,0.5059923258204435,0.0353096291582915,0.35329706207994604,1.0011055206114179,4.0139622089627665
3,23,female,371,105,105,same,valid,clock,5,1,4,0.09967068506966825,1,f,same,0.8205057235632012,0,0.5057610869571363,0.035281726549328596,0.35336569608352875,1.0010471496361788,4.166822964039511
3,23,female,372,15,325,change,valid,anti,5,2,4,0.15734601929216296,1,f,same,1.023588288344854,0.1428600345835575,0.5057828958933897,0.03531828858831432,0.3533185502960805,1.0010461874771863,4.343775537301553
3,23,female,373,105,105,same,valid,clock,2,1,4,0.14491011511245233,1,f,same,0.6859487592641926,0,0.505147870998826,0.03529391389565717,0.35333330339972235,1.0010542054683356,3.9895365216289065
3,23,female,374,45,95,change,valid,clock,2,2,4,0.13769456457157503,1,f,same,0.89929691839734,0.1374176423336188,0.5052351067420204,0.03534138040276957,0.3532845540139533,1.0010667135343283,4.190243195291259
3,23,female,375,105,105,same,valid,anti,5,1,4,0.12243600680949385,1,f,same,0.7793638076864227,0,0.5054124647044773,0.03531027059761982,0.3533159845387672,1.0010689585719774,4.060838912786039
3,23,female,376,45,95,change,valid,clock,2,0,4,0.10123868340724584,1,f,same,1.5219179804412306,0,0.505498096849351,0.035300649008149776,0.3533191917354088,1.0010689585719774,4.825935507128634
3,23,female,377,165,165,same,valid,clock,2,0,3,0.3586354405470047,1,j,change,1.2852541446600299,0,0.5057883481272256,0.03529327245632885,0.35335222585854353,1.0010279064576935,4.849705643511243
3,23,female,378,45,45,same,valid,anti,1,2,3,0.13496973047995198,1,j,change,1.5765740599390483,0.1315883281968091,0.5053550558886855,0.035305139082993264,0.35334292498873765,1.0010519604311412,4.908219018161617
3,23,female,379,135,85,change,valid,anti,2,1,2,0.24554424199186542,1,j,change,1.2705154734399002,0,0.5058672451596067,0.03532887233677684,0.3533188710152899,1.0010564505059847,4.685736442860161
3,23,female,380,45,355,change,valid,anti,5,1,1,0.45864159836401086,0,j,change,1.1914054832795955,0,0.5050458821519896,0.03533111737442596,0.35333522771725256,1.0010596577021715,4.919792507219427
3,23,female,381,75,125,change,valid,clock,3,1,3,0.1620596358934563,1,f,same,1.4065541624918296,0,0.5058518506161818,0.03536286861935878,0.3532996278368046,1.001073769366485,4.791852951326291
3,23,female,382,105,105,same,valid,anti,1,2,1,0.9077180540784866,0,j,change,2.710086440358282,0.12437509068118102,0.505080199153781,0.03535966142271718,0.3532925720046478,1.0010808251990966,6.921949346822203
3,23,female,383,15,15,same,valid,anti,3,2,2,0.36066238869443623,1,j,change,1.0791487972369396,0.14682012031486152,0.5058107985018978,0.035371207329717436,0.3532896855281251,1.0010465081968505,4.673842875597984
3,23,female,384,105,55,change,catch,anti,3,1,2,0.09326655522727378,1,j,change,3.518780059449,0,0.5052668579869533,0.035329834496224066,0.35327942249932676,1.0010859567128136,6.8639285975446
3,23,female,385,105,105,same,valid,anti,2,2,4,0.3522790979313868,1,f,same,1.1549021356076992,0.143535518589072,0.5050513343858256,0.035318609308433224,0.35329385488330445,1.001042018122007,4.696707299707214
3,23,female,386,105,105,same,catch,clock,1,1,3,0.23603233880339758,1,j,change,0.8822448963883289,0,0.5049009168733392,0.03529391389565717,0.35332945476375244,1.0010356037291785,4.307550895000077
3,23,female,387,105,105,same,valid,anti,4,0,3,0.1578457004966367,1,j,change,0.9790435370505293,0,0.5058233065683453,0.035300969727813936,0.3533121359027973,1.001083390955955,4.332139507913325
3,23,female,388,75,75,same,valid,clock,3,0,2,0.27236570506374846,1,f,same,1.717114369907904,0,0.5054596104923803,0.03534138040322432,0.35327461170436436,1.0010811459187607,5.155932287103042
3,23,female,389,135,185,change,valid,clock,5,0,3,1.159523384952081,1,j,change,6.231228279262268,0,0.5050548623021314,0.03531476067246331,0.3532973827996102,1.0010862774324778,10.561460788174827
3,23,female,390,75,75,same,valid,anti,4,1,3,0.07373088029862629,1,j,change,1.033858372771192,0,0.5052674994258268,0.03528749950282872,0.3533339448390507,1.0010740900861492,4.319567939325225
3,23,female,391,75,125,change,valid,clock,5,2,3,0.13517916040746059,1,j,change,0.6231236297253417,0.13995553632878205,0.5056199703144557,0.03532534442047108,0.3532880819298043,1.001067996412985,3.9898059261295202
3,23,female,392,105,105,same,valid,clock,3,0,3,0.12200014881409516,1,j,change,0.785591541724898,0,0.505927540452376,0.03534266328188096,0.3532698009098567,1.001103917013097,4.108802535481118
3,23,female,393,45,355,change,catch,anti,1,1,3,0.5721535810916976,1,j,change,1.4523086682820576,0,0.5051116296790497,0.03532823089790327,0.35330251431332726,1.0010676756937755,5.2618791348782
3,23,female,394,165,115,change,valid,anti,5,1,4,0.3043417742469501,1,f,same,1.283234252344755,0,0.5054522339405594,0.03528076439033612,0.35334517002638677,1.0010320758128728,4.778920252419084
3,23,female,395,135,135,same,valid,clock,2,1,4,0.09876304847875872,1,f,same,1.0222194569064413,0,0.5056841142431949,0.03527948151167948,0.3533246439692448,1.001077618002455,4.331719685900225
3,23,female,396,135,185,change,valid,clock,2,1,4,0.12591036270850964,1,j,change,1.2057705161150807,0,0.5057617283964646,0.035321816504620074,0.35327204594750583,1.0010846738346117,4.567922968272796
3,23,female,397,165,165,same,catch,clock,5,1,4,0.14850762735432,1,f,same,1.5142040315740815,0,0.5051565304293035,0.03533881464591104,0.3533207953332749,1.001052922589679,4.837901877749573
3,23,female,398,165,165,same,valid,clock,5,2,4,0.10332336109058815,1,f,same,1.521641199388796,0.13608556226827218,0.5054503096230292,0.03533432457061281,0.35325665140453566,1.0011180286774106,4.790925109397449
3,23,female,399,75,75,same,valid,anti,1,0,4,0.1249600704045406,1,j,change,0.7069199753173052,0,0.5050080372343473,0.035300328288485616,0.35332432324958063,1.001073448646821,4.04827664506729
3,23,female,400,135,135,same,valid,anti,3,2,3,0.34809114082554515,1,f,same,2.9339413750149106,0.13228851508309658,0.5055593543015675,0.0353195714674257,0.353307966547618,1.001062544179149,6.427628008831562
3,23,female,401,135,135,same,valid,clock,2,0,3,0.09621012011575658,1,j,change,1.1682508078929459,0,0.5106988865900348,0.035320212906299275,0.35333811419423,1.0010336794111936,4.501406997076629
3,23,female,402,135,185,change,valid,clock,4,2,4,0.17973321257250063,1,f,same,1.4081542327930947,0.1279491157320033,0.5054086160689621,0.03528974454093259,0.35335286729787185,1.0010359244488427,4.767291920303251
3,23,female,403,45,45,same,catch,clock,4,2,4,0.057745892543607624,1,j,change,0.8150676012865006,0,0.5051084224824081,0.035299686849612044,0.3533037971919839,1.001049394673828,4.095350591470378
3,23,female,404,45,95,change,valid,clock,5,1,3,0.21867082233802648,1,f,same,1.1601356387518535,0,0.5056206117533293,0.03532951377565041,0.3533095701459388,1.0010526018704695,4.543537691613892
3,23,female,405,105,155,change,catch,clock,1,2,3,0.24408400545507902,1,f,same,1.997008006445867,0,0.5057938003610616,0.035329834496224066,0.3532967413602819,1.0010567712261036,5.368839777445828
3,23,female,406,75,75,same,valid,clock,1,2,3,0.5787610471879816,1,j,change,0.8643362322118264,0.12346741224105001,0.5053608288417308,0.03534619119727722,0.35331855029653525,1.001051639711477,4.626164051946034
3,23,female,407,135,185,change,catch,clock,3,2,3,0.21677633140279795,1,j,change,3.7884366456837597,0,0.5052123356472293,0.03531059131728398,0.3532813468173117,1.0010833909555004,7.240729277982609
3,23,female,408,45,45,same,valid,anti,3,2,3,0.19451999173816148,1,f,same,1.8159361100806564,0.1184435006929081,0.5050590316577654,0.03527274639964162,0.35329609992004407,1.0010942954240818,5.273739026577459
3,23,female,409,105,105,same,catch,clock,5,1,4,0.2235601933034559,1,f,same,1.0709479959514283,0,0.5052392760971998,0.03532470298159751,0.3532989863970215,1.0010291893358954,4.472890530688346
3,23,female,410,15,15,same,valid,clock,3,2,3,0.17544647381600953,1,j,change,1.0154336706873437,0.11314578134163261,0.5056462693246431,0.03534202184255264,0.3533714690365741,1.0009499715843049,4.4500880054702066
3,23,female,411,15,15,same,valid,clock,5,0,3,0.1253013161049239,1,j,change,1.156419139522768,0,0.5049743616718843,0.03531828858922381,0.35333811419423,1.0010372073274993,4.5077864315071565
3,23,female,412,105,105,same,catch,clock,3,1,4,0.23081102300511702,1,j,change,0.8914194025119286,0,0.5055413940017388,0.035289744540023094,0.35332336109058815,1.0010426595608806,4.366769211427709
3,23,female,413,105,155,change,catch,clock,3,2,3,0.18464952398790047,1,f,same,2.142808439288274,0,0.506088541713325,0.03534522903919424,0.3533044386322217,1.001060619861164,5.616164654899876
3,23,female,414,105,55,change,valid,anti,3,1,4,0.24386270890045125,1,f,same,1.8253845107810776,0,0.5056712854566285,0.03532406154226919,0.35331309806224453,1.001025340700835,5.333169659408668
3,23,female,415,135,85,change,valid,anti,5,2,3,0.9333345734494287,1,j,change,1.5176318831245226,0.1071449656020027,0.5052225986764824,0.035320533625963435,0.35330411791164806,1.0010712036091718,5.673812086512044
3,23,female,416,45,45,same,valid,clock,5,1,2,0.4590572510223865,1,j,change,7.735502509952312,0,0.5056988673468368,0.035336248888597765,0.3533086079869463,1.0010567712261036,11.445019993662754
3,23,female,417,105,105,same,valid,clock,5,0,3,0.14012626090971025,1,j,change,1.098152398277307,0,0.5059111837508681,0.03534138040322432,0.3533108530236859,1.0010638270578056,4.473915229948943
3,23,female,418,15,15,same,valid,anti,1,1,3,0.16023089248574252,1,f,same,1.3581370422207328,0,0.5049714751949068,0.035321816504620074,0.35332336109058815,1.0010352830095144,4.7907570523038885
3,23,female,419,135,85,change,valid,anti,1,1,3,0.16329697227774886,1,j,change,1.1901379992477814,0,0.5052386346578714,0.035300007569276204,0.3533111737442596,1.0010708828895076,4.62577469829921
3,23,female,420,165,115,change,valid,anti,5,2,3,0.07630465543843457,1,j,change,1.0023034084797473,0.10096594713314777,0.5052293337885203,0.03532277866361255,0.3533108530245954,1.0010859567137231,4.296503386157383
3,23,female,421,75,125,change,valid,clock,2,2,3,0.2060703889819706,1,j,change,1.166551314501703,0.0938136620438193,0.505034977683863,0.03537890460120252,0.3533262475675656,1.0010641477765603,4.613810893435584
3,23,female,422,15,15,same,valid,anti,1,2,4,0.12445076761014207,1,j,change,0.9381456888231696,0.08584231223688882,0.5053784684223501,0.03530866699929902,0.3533159845383125,1.0010692792911868,4.331520839720724
3,23,female,423,135,135,same,valid,clock,5,1,4,0.15945475094849826,1,f,same,0.9153399564074789,0,0.5055192643458213,0.03527916079292481,0.35334741506358114,1.001064468497134,4.225800420014821
3,23,female,424,45,95,change,valid,clock,1,0,3,0.11633688134770637,1,j,change,1.5184949396862066,0,0.5054810987085148,0.03532438226193335,0.3532832711352967,1.0010859567137231,4.837862108513036
3,23,female,425,15,325,change,valid,anti,3,0,2,0.10436730353103485,1,j,change,3.7798153809444557,0,0.5056805863268892,0.035343946159628103,0.35329642063970823,1.0010439424395372,7.122865771131728
3,23,female,426,105,105,same,catch,clock,4,0,4,0.40390213175942336,1,j,change,0.9975763216534688,0,0.5054355565189326,0.035336890327926085,0.3533031557535651,1.0010522811508054,4.578550334382271
3,23,female,427,135,85,change,valid,anti,5,0,4,0.33677807611820754,1,f,same,1.6207361926990416,0,0.5060266428217801,0.03538531899357622,0.35330989086560294,1.0010660720954547,5.167990704261683
3,23,female,428,15,15,same,valid,anti,3,1,4,0.13910092020796583,1,f,same,1.1754400594227263,0,0.506054545430743,0.035337211047590245,0.35331630525888613,1.0010449045985297,4.508856993677
3,23,female,429,135,85,change,valid,anti,5,1,3,0.1881235591672521,1,f,same,1.5323846660094205,0,0.5055644858157393,0.03531764714989549,0.3533307376428638,1.0010282271778124,5.061890552497971
3,23,female,430,135,135,same,valid,anti,4,0,4,0.21379941167197103,1,f,same,1.389460446929661,0,0.5052408796955206,0.03530930843862734,0.35332015389394655,1.0010388109258201,4.790493741476894
3,23,female,431,75,75,same,valid,anti,3,1,3,0.2412818779284862,1,f,same,2.585610015176826,0,0.5056574945119792,0.035282688708321075,0.35334164211053576,1.001055488347447,6.0277460978040835
3,23,female,432,75,75,same,valid,clock,1,1,3,0.15769881090000126,1,j,change,1.05689181613252,0,0.5054695528015145,0.03532470298159751,0.35332400252991647,1.001034641570186,4.413802747155387
3,23,female,433,75,25,change,valid,anti,2,2,2,0.23246786068466463,1,j,change,1.0381326034612357,0.07777542319661751,0.505658135952217,0.03535837854451529,0.35329449632263277,1.0010651099364622,4.496637254536836
3,23,female,434,165,115,change,valid,anti,3,0,4,0.2155460508502074,1,j,change,1.0085234452471923,0,0.5057569176024117,0.03528974454093259,0.35333522771725256,1.001054526187545,4.402970761913821
3,23,female,435,135,135,same,valid,anti,2,2,4,0.16004679941033828,1,f,same,1.1567228610247184,0.06900607301632122,0.5051655105789905,0.03532277866361255,0.35324350189966935,1.0010744108058134,4.507807278283508
3,23,female,436,75,125,change,catch,clock,1,2,4,0.11385419058751722,1,f,same,0.9006740885470208,0,0.50559302986494,0.03535485062820953,0.3532983449586027,1.0010731279280662,4.237744340260178
3,23,female,437,45,45,same,catch,clock,3,0,4,0.1401506356023674,1,j,change,1.0715166318796037,0,0.505647231484545,0.035320854345627595,0.35329609992095357,1.0010542054687903,4.438083469211051
3,23,female,438,75,25,change,valid,anti,2,1,4,0.07543807096135424,1,j,change,0.8930682221989628,0,0.5054217655742832,0.03534202184255264,0.3532624243580358,1.0010683171321944,4.1669676085984975
3,23,female,439,45,95,change,catch,clock,4,2,3,0.2120765057470635,1,f,same,1.3743798885698197,0,0.5050859721077359,0.03525254106170905,0.35335543305518513,1.001066713534783,4.825621522596521
3,23,female,440,75,75,same,valid,clock,5,0,4,0.47991942239605123,1,j,change,1.0019499754325807,0,0.5060231149063839,0.035299366129947884,0.3533124566229162,1.0010554883465375,4.709044101517065
3,23,female,441,165,115,change,valid,anti,2,0,2,0.18884549908489134,1,f,same,2.274375975789553,0,0.5055968785000005,0.03530225260692532,0.35333137908128265,1.0010628648988131,5.662881640339947
3,23,female,442,45,45,same,valid,clock,3,0,4,0.16909397983636154,1,f,same,1.2045716660877588,0,0.5053043821853862,0.0353487569545905,0.35326050004005083,1.0010904467881119,4.566934510331521
3,23,female,443,45,95,change,valid,clock,3,0,2,0.12389079111198953,1,f,same,3.2143064694282657,0,0.5052549913598341,0.03533945608523936,0.353267876591417,1.0010705621698435,6.651513091134802
3,23,female,444,75,125,change,valid,clock,5,1,2,0.19688048831540073,1,f,same,1.5166883259325914,0,0.5056667953822398,0.03528365086640406,0.35334164211053576,1.0010590162628432,4.9909040701886624
3,23,female,445,105,105,same,catch,clock,3,1,2,0.12168937147907855,1,j,change,1.8814190433058684,0,0.5058688487579275,0.03529487605464965,0.353347094343917,1.001028547896567,5.356763399987358
3,23,female,446,165,165,same,valid,clock,4,2,2,0.1393828327754818,1,j,change,1.078422687964121,0.05967227752175985,0.5055304895331574,0.03533079665430705,0.35328102609764755,1.001054526187545,4.449927966367795
3,23,female,447,15,15,same,valid,anti,2,2,4,0.6558335054523923,1,j,change,0.9532579984279437,0.04995021280182821,0.5049929634105865,0.0353503605529113,0.35329449632263277,1.0010551676268733,4.825734415911938
3,23,female,448,135,135,same,valid,clock,2,2,4,0.15743229287636495,1,f,same,2.257271676478922,0.03997202723144466,0.5056353648569711,0.03532662729958247,0.3532823089763042,1.001077618002455,5.591879122049249
3,23,female,449,45,95,change,catch,clock,2,0,3,0.9370343952577969,1,j,change,1.3715142585533613,0,0.5056308747816729,0.03531187419594062,0.3532752531436927,1.001095578301829,5.520846135392276
3,23,female,450,45,45,same,valid,clock,2,0,3,0.2871181672289822,1,f,same,1.9545594787414302,0,0.5062739176673858,0.03533496600994113,0.353323040370924,1.001058374823515,5.439149220586842
3,23,female,451,15,15,same,valid,anti,4,2,2,0.1371560762900117,1,j,change,1.0860994333525014,0.0297743605744184,0.510900939964813,0.035319892186635116,0.35335222585854353,1.0010471496361788,4.467143876114278
3,23,female,452,105,105,same,valid,clock,5,2,2,0.10211970026830386,1,f,same,1.490470777950577,0.019288201907954272,0.5045086767495377,0.0353048183642386,0.35333522771725256,1.0010689585715227,4.790263785492243
3,23,female,453,45,45,same,catch,anti,2,1,2,0.7064969461080182,1,j,change,0.789686490134045,0,0.5046565285047109,0.03532374082260503,0.3533021935936631,1.0010930125454252,4.637257744417184
3,23,female,454,45,355,change,valid,anti,1,1,3,0.18805845307997515,1,j,change,1.207513948097585,0,0.5050526172644823,0.03531668499090301,0.35334003851221496,1.0010558090671111,4.566549005319757
3,23,female,455,45,45,same,catch,clock,4,1,3,0.1789105666857722,1,f,same,1.800874474180091,0,0.5057630112751212,0.03531027059761982,0.3533246439692448,1.0010458667575222,5.203839783860531
3,23,female,456,135,85,change,valid,anti,3,2,3,0.07832647207123955,1,j,change,1.041723380590156,0.008358929185820707,0.5048993132750184,0.03535003983324714,0.3533012314355801,1.001034320850522,4.330572151015076
3,23,female,457,45,95,change,valid,clock,3,2,3,0.20573074687854387,1,j,change,0.946670416948109,0,0.5058531334952932,0.03537152804983634,0.35332175749226735,1.001017643428895,4.331691462571143
3,23,female,458,75,75,same,valid,anti,5,0,4,0.5125722100274288,1,j,change,0.8022433056185037,0,0.506024397784131,0.03530674268131406,0.3533207953332749,1.0010554883465375,4.496918846384688
3,23,female,459,135,135,same,catch,clock,5,0,4,0.10658155194960273,1,f,same,1.6993109017739698,0,0.5057004709442481,0.0353160435506652,0.3533294547632977,1.001049715393492,5.04988633695848
3,23,female,460,75,75,same,valid,clock,1,0,4,0.13785235863633716,1,j,change,0.8763414099084912,0,0.5063085553892961,0.035288782381030614,0.35330026927658764,1.0010942954240818,4.250138871606396
3,23,female,461,105,155,change,valid,clock,2,1,3,0.25338295080018725,1,f,same,2.488375195799563,0,0.5054990590087982,0.03533240025262785,0.3533086079869463,1.0010779387221191,5.980976514341819
3,23,female,462,15,15,same,valid,anti,1,0,3,0.20776635445690772,1,f,same,1.4968970374484343,0,0.5051478709983712,0.035335607449269446,0.3532903269669987,1.0010590162628432,4.943902606424672
3,23,female,463,75,125,change,valid,clock,2,0,3,0.170711368998127,1,j,change,1.963341744740319,0,0.505078274835796,0.03530898771896318,0.3532999485569235,1.0010654306561264,5.320571150370597
3,23,female,464,165,165,same,valid,clock,5,0,4,0.13003642092280643,1,f,same,1.2547540272771585,0,0.5051626241020131,0.03528365086640406,0.35334805650290946,1.0010667135338736,4.519504885843162
3,23,female,465,15,325,change,valid,anti,2,1,3,0.24011060979046306,1,f,same,3.7256881681396408,0,0.5058710937955766,0.03529647965297045,0.35334260426861874,1.0010477910755071,7.040963916473629
3,23,female,466,15,65,change,valid,clock,4,1,4,0.13638153835108824,1,f,same,1.3023119396220864,0,0.5054201619759624,0.0352801229510078,0.3533454907455962,1.0010708828895076,4.625868989874107
3,23,female,467,135,135,same,catch,clock,3,1,3,0.22315640727356367,1,j,change,1.3010855077063752,0,0.5055301688134932,0.0353471533562697,0.3532951377619611,1.0010728072074926,4.743684709498666
3,23,female,468,45,355,change,valid,anti,3,0,3,0.15618308986449847,1,f,same,1.351454527727583,0,0.5060776372447435,0.0353080255599707,0.3533188710161994,1.001064468497134,4.674136654791255
3,23,female,469,45,45,same,valid,anti,2,0,2,0.2940540502404474,1,f,same,1.8801034513280683,0,0.5051488331573637,0.035320212906299275,0.3533454907465057,1.0010679964134397,5.2968818353374445
3,23,female,470,135,135,same,valid,anti,2,0,2,0.09616233288852527,1,j,change,1.1419979807487834,0,0.5055904641067173,0.03529712109138927,0.3533284926043052,1.001062544179149,4.425613248030459
3,23,female,471,15,65,change,valid,clock,2,1,3,0.1811892797531982,1,f,same,1.4679026987923862,0,0.5059352377238611,0.03535485062820953,0.35330572151087836,1.0010692792920963,4.861894914284676
3,23,female,472,105,55,change,valid,anti,3,0,4,0.20431637325145857,1,f,same,1.3356937230028052,0,0.505760445517808,0.035384998274821555,0.3532454262176543,1.001068637852768,4.708929604604236
3,23,female,473,165,215,change,valid,clock,4,2,4,2.4645219930289386,1,f,same,0.775265652080634,0,0.5055231129817912,0.035343946159628103,0.35332271965125983,1.0010663928151189,6.58098459647681
3,23,female,474,75,25,change,valid,anti,1,2,3,0.2003048119495361,1,f,same,1.344094974066138,0,0.5055090013174777,0.035359340702598274,0.3533127773416709,1.0010670342544472,4.708598621931742
3,23,female,475,15,15,same,valid,clock,4,1,3,0.14719556329328043,1,j,change,1.1079279330133431,0,0.5052844975671178,0.03529680037263461,0.35329225128498365,1.0010801837597683,4.437610087017674
3,23,female,476,165,215,change,valid,clock,3,0,3,0.12178847384984692,1,f,same,1.6780212111143555,0,0.5048656377121006,0.03529904540937423,0.3533021935936631,1.0010798630391946,5.0263423079240965
3,23,female,477,165,215,change,valid,clock,3,1,4,0.15008011576719582,1,f,same,1.7471722149020934,0,0.505174490729587,0.03531860930888797,0.3533086079869463,1.001071524328836,5.084895451810553
3,23,female,478,165,215,change,catch,clock,2,0,4,0.1330806917794689,1,f,same,1.1735013091783912,0,0.505788668846435,0.03531893002764264,0.35332175749226735,1.001073769366485,4.472898869398705
3,23,female,479,105,105,same,catch,anti,5,1,1,0.061042249040838215,0,j,change,44.79492159687561,0,0.5062075287014522,0.035299686849612044,0.3533746762341252,1.0010186055878876,48.061617940799806
3,23,female,480,75,75,same,valid,anti,2,0,2,0.4566194610115417,1,j,change,5.068749142074921,0,0.5052431247331697,0.035331438094544865,0.35329930711759516,1.001072486488738,8.688914774526893
