subject,age,gender,ntrial,memory_ori,test_ori,type,trial_type,which_change,trial,quest,pas,pas_rt,vis,test_key,test,test_rt,contrast,fix_dur,target_dur,mask_dur,retention_dur,trial_dur
4,22,female,1,15,15,same,valid,clock,5,2,2,0.8585092100765905,1,f,same,1.298786593191835,0.5,0.5010695965811465,0.03531881675371551,0.3532933632413915,1.001045542684551,5.25731126190658
4,22,female,2,165,165,same,valid,clock,5,1,3,1.2069433655824469,1,f,same,1.248777901718313,0.5,0.5051311771212568,0.035310157350977533,0.35333313234968955,1.0010651065204001,5.58012192438855
4,22,female,3,165,215,change,valid,clock,3,1,2,0.5027398991269365,1,j,change,1.4907790191018648,0.3933822653784154,0.5044563851542989,0.035315609567078354,0.3533103613281128,1.0010266202862113,5.061203374729303
4,22,female,4,165,115,change,valid,anti,1,1,1,1.0074964769064536,0,f,same,1.8227102775563253,0.3205754470705616,0.5050574118395161,0.03530470513396722,0.35330426767359313,1.0010064150137623,5.932755248720241
4,22,female,5,105,105,same,catch,anti,5,1,2,1.305344005993902,1,f,same,3.2582833600281447,0,0.5056173865405071,0.03531753387869685,0.3533065127048758,1.0010618993346725,7.699828543827607
4,22,female,6,15,15,same,valid,clock,5,0,2,1.5993538161346805,1,j,change,1.8054915365564739,0.5,0.5057424668011663,0.035359548018277565,0.3533103613272033,1.0010615786159178,6.463888046111606
4,22,female,7,75,25,change,valid,anti,5,0,2,1.1830200019376207,1,j,change,1.1990504804680313,0.3723357464867447,0.5053072516402608,0.035331645497535646,0.35327764802968886,1.0010737659231381,5.473890938993463
4,22,female,8,105,55,change,valid,anti,4,0,2,1.0171459378743748,1,j,change,5.578039498422186,0.2848258012196979,0.5050170012937087,0.03530566729023121,0.35332735941483406,1.0010554849613982,9.725485391587426
4,22,female,9,15,65,change,valid,clock,1,1,3,0.9334996366251289,1,j,change,1.4250406831561122,0.4041810266340222,0.5047703686786917,0.03532940046807198,0.35327476156180637,1.001071520892765,5.461414664153381
4,22,female,10,45,45,same,valid,anti,5,0,2,1.3115367617292577,1,f,same,1.5026969228329108,0.21287243135623224,0.5054454813625853,0.0352973286062479,0.3533158135442136,1.0010506741828067,5.88659036984609
4,22,female,11,15,15,same,valid,clock,1,1,2,1.4625291613401714,1,f,same,1.395831876736338,0.3673779664171064,0.504802761258361,0.035325551843925496,0.3532959289905193,1.001073445203474,5.979547773924423
4,22,female,12,45,45,same,valid,clock,4,0,1,0.729817337919485,0,j,change,5.538018626054509,0.15097368806025213,0.505811421303406,0.035310478068822704,0.3533138892325951,1.0010606164596538,9.395972351489945
4,22,female,13,165,165,same,valid,anti,5,2,2,0.28284238796823047,1,f,same,1.731037992968595,0.4139776645540254,0.5057703693209987,0.03534832286641176,0.35330234336197464,1.0010404111872049,5.120911879995219
4,22,female,14,165,165,same,valid,anti,4,2,2,0.784436359484971,1,f,same,1.4171824356526486,0.3561435161598371,0.5052822355883109,0.03529797004375723,0.3533074748602303,1.0010635029266268,5.309454977200403
4,22,female,15,135,85,change,valid,anti,3,1,2,0.7708843944101318,1,j,change,2.364443787327218,0.3390609756098915,0.5050234156660736,0.03533100406093581,0.35332832157018856,1.0010118672298631,6.226889176966324
4,22,female,16,105,155,change,catch,clock,4,1,1,0.17575059381033498,0,j,change,1.2157951993558527,0,0.5059278421595081,0.03530598800898588,0.35331998288620525,1.00109076400895,4.532759482206529
4,22,female,17,15,15,same,valid,anti,5,2,2,0.9363703889484896,1,f,same,1.056737047297247,0.31213294259403945,0.5046395154840866,0.035320741065334005,0.3533177378558321,1.0010381661568317,5.143399707119897
4,22,female,18,105,155,change,catch,clock,1,2,1,0.39275586450003175,0,f,same,1.1219227850688185,0,0.505434256211629,0.03529764932500257,0.3533318494746709,1.0010359211264586,4.6376899536180645
4,22,female,19,75,125,change,valid,clock,4,1,1,0.37190306087450153,0,f,same,1.0285061119338934,0.3151056747816553,0.5058287401079724,0.03529476285712008,0.35333313234968955,1.0010558056801528,4.4849938967254275
4,22,female,20,75,75,same,valid,clock,1,1,3,0.1908336695532853,1,j,change,3.480847646471375,0.35079634418026967,0.5049833258390208,0.03531657172334235,0.3533113234834673,1.0010625407712723,6.75723621374982
4,22,female,21,135,135,same,valid,clock,4,1,3,0.5199454906642131,1,f,same,6.8159899396987385,0.3332632621414644,0.5053431721253219,0.035328117593962816,0.35331902073085075,1.0010670308320186,10.431797262218424
4,22,female,22,15,65,change,valid,clock,3,0,2,0.1631040173851943,1,j,change,1.9525711690639582,0.20117466357949,0.5058749235886353,0.0353460778360386,0.35330875773524895,1.0010481084336789,5.215838817086478
4,22,female,23,165,165,same,catch,clock,1,2,1,0.11779994727385201,0,j,change,1.057849940891174,0,0.5046517027913069,0.035330362624335976,0.3533158135442136,1.0010314310657122,4.283445980401666
4,22,female,24,135,135,same,valid,anti,5,2,1,0.09866876117303036,0,j,change,0.8666189009745722,0.2732082078187116,0.5060548467317858,0.0353480021476571,0.35330779557989445,1.0010497120274522,4.073098507439681
4,22,female,25,165,165,same,valid,clock,1,1,2,0.299588389730161,1,f,same,1.2278176573554447,0.3177025008159071,0.5055602986276426,0.035323306813552335,0.3532773273109342,1.001082425325876,4.602771072976793
4,22,female,26,15,15,same,catch,clock,3,2,1,0.061322361336351605,0,j,change,0.6986184724946725,0,0.5051552310169427,0.03534094633778295,0.35329528755301,1.0010561263989075,3.8835573339047187
4,22,female,27,45,95,change,catch,clock,5,0,1,0.6045295731428268,0,f,same,1.1576598188958087,0,0.5058585669394233,0.03530727088309504,0.3533421124702727,1.001062861490027,4.861965273871647
4,22,female,28,135,85,change,valid,anti,1,0,2,0.24961433586577186,1,j,change,2.062630251846713,0.16256159571669687,0.5058300229829911,0.035325231126080325,0.35329079749317316,1.0010744073606475,5.404100002630003
4,22,female,29,135,135,same,valid,anti,1,1,2,0.3382295306155356,1,f,same,1.615020599757372,0.3041740619044754,0.5050878801075669,0.035328438311807986,0.35329753258338314,1.0010221302263744,5.0497261383743535
4,22,female,30,45,95,change,valid,clock,3,0,2,0.6909513732853156,1,j,change,1.3161942374563296,0.12981239016810492,0.5055035314326233,0.03535088861553959,0.35327861018504336,1.0010525984944252,5.1209170114925655
4,22,female,31,15,325,change,valid,anti,4,0,2,0.13216429260046425,1,j,change,4.339380910443651,0.10177865251866902,0.5053842241086386,0.03532940046807198,0.35327796874753403,1.0010795388579936,7.546921454087169
4,22,female,32,75,75,same,valid,anti,3,2,1,0.35183409354340256,0,j,change,0.6292428667366039,0.3566716830566716,0.5054326526187651,0.03534287064940145,0.3532997776137563,1.0010487498702787,4.107877554763945
4,22,female,33,45,95,change,valid,clock,2,0,2,0.34501112572888815,1,f,same,1.0662492406991078,0.07682533830135402,0.5054547822028326,0.03530342225985805,0.3533337737871989,1.0010426562166685,4.472823266724845
4,22,female,34,135,135,same,catch,clock,3,1,1,0.57610973451483,0,f,same,0.6048781942772621,0,0.5056796059525368,0.03531208166259603,0.3532952875539195,1.0010622200534272,4.296778894662566
4,22,female,35,165,165,same,valid,clock,3,2,2,0.4347020107134085,1,j,change,1.2808657991445216,0.4147374401636226,0.5051677390420082,0.03533453196541814,0.35327219581267855,1.0010673515507733,4.813768321851967
4,22,female,36,75,75,same,catch,anti,4,1,1,0.48830531642397546,0,j,change,1.0784163427942985,0,0.5059830057625732,0.035352812927158084,0.35329368396014615,1.0010477877149242,4.64983845403367
4,22,female,37,75,25,change,valid,anti,1,2,3,0.4810250038653976,1,j,change,1.7930210346512467,0.3994460404577357,0.5055849939608379,0.03533517340292747,0.35330330551823863,1.0010869153866224,5.332569167780093
4,22,female,38,165,165,same,valid,clock,3,0,1,0.7006107765309935,0,j,change,0.9712892695888513,0.05461987899169707,0.505866584904652,0.03529219710799225,0.3533347359425534,1.0010663893945093,4.802912317455593
4,22,female,39,105,105,same,catch,anti,2,1,1,0.4482780296839337,0,j,change,0.7290649320493685,0,0.5057046220035772,0.035317854597451515,0.3533251143844609,1.0010525984935157,4.284773434748786
4,22,female,40,165,115,change,valid,anti,4,0,1,0.9579108132847978,0,j,change,1.935517277433064,0.07377598265870894,0.5057469568619126,0.035327476156453486,0.3533113234834673,1.0010570885551715,5.992146563276037
4,22,female,41,45,95,change,catch,clock,3,1,1,0.6569131859614572,0,j,change,1.4473216467740713,0,0.5059037882638222,0.035328438311807986,0.3533100406093581,1.0010596543033898,5.203800964593029
4,22,female,42,105,105,same,catch,clock,5,1,1,0.8386387675682272,0,j,change,0.7135043062880868,0,0.5053819790773559,0.03531721316085168,0.35331228563973127,1.0010304689094482,4.672863164120827
4,22,female,43,75,75,same,valid,anti,2,2,2,0.8188776901079109,1,j,change,2.848065008381127,0.3867858666716819,0.5059862129483008,0.03529187639014708,0.35333698097292654,1.0010436183729325,6.7581659770139595
4,22,female,44,45,45,same,catch,clock,2,1,1,0.220218550492973,0,j,change,1.185462594908131,0,0.5056164243851526,0.03529508357587474,0.3533305666005617,1.001063823646291,4.496755289772409
4,22,female,45,165,165,same,valid,clock,1,0,1,0.14248084828795982,0,j,change,3.7850547049747547,0.09057474295275292,0.505728355181418,0.03531657172334235,0.35333409450595354,1.001035600407704,7.005216167553954
4,22,female,46,165,115,change,valid,anti,2,0,1,0.2504748239098262,0,j,change,1.9593030527921655,0.1064459661999525,0.5050805035798476,0.03530021507413039,0.3532930425226368,1.0010949333509416,5.320247158593702
4,22,female,47,165,165,same,valid,clock,3,1,2,0.5564378168301118,1,f,same,1.2861403374863585,0.29149361425630005,0.5058643398751883,0.03536852813886071,0.35329015605475433,1.001055164243553,4.955884833793789
4,22,female,48,45,355,change,catch,anti,5,0,2,0.8887597105576788,1,j,change,2.6353317096427418,0,0.5054592722635789,0.0353095159143777,0.3533074748611398,1.0010821046071214,6.6514763640007
4,22,female,49,45,45,same,valid,anti,2,0,1,0.6992146883994792,0,j,change,3.6086905764532275,0.12183256519507135,0.5057357317091373,0.03533966346367379,0.3533103613281128,1.0010712001740103,7.393870040968977
4,22,female,50,75,25,change,valid,anti,5,2,2,1.0692130014194845,1,f,same,1.2517262679457417,0.37582982058092207,0.5056587592425785,0.03530855375720421,0.3533328116309349,1.001058050710526,5.438834790785222
4,22,female,51,165,215,change,valid,clock,4,0,1,1.4794842716382846,0,j,change,0.986528856015866,0.13588236966197237,0.5056783230784276,0.03530695016524987,0.35329945689500164,1.0010827460437213,5.545184442068603
4,22,female,52,45,45,same,valid,clock,5,2,2,0.46844577834872325,1,f,same,1.3733389181134044,0.36604331771129606,0.5051642111384353,0.03534222921189212,0.3532747615608969,1.001070558736501,4.955754301317938
4,22,female,53,75,25,change,valid,anti,2,1,2,0.3834832479042234,1,j,change,1.769040583091737,0.27995782601982255,0.5051433644284771,0.03533934274491912,0.353290476773509,1.0010609371784085,5.214661138333213
4,22,female,54,75,25,change,valid,anti,3,0,2,0.6281065606835909,1,f,same,1.4545907341826023,0.14995368043268026,0.50547017669669,0.0352992529178664,0.35330138120662014,1.0010837081999853,5.167834616955588
4,22,female,55,135,135,same,valid,clock,2,2,3,1.0259612097243007,1,f,same,1.0380814869022288,0.35709150149712143,0.5055939740823305,0.03530662944558571,0.3533363395363267,1.001037845438077,5.155909015977159
4,22,female,56,165,165,same,catch,clock,2,1,2,0.6791457210683802,1,j,change,2.5822992830653675,0,0.5058601705322872,0.03532555184483499,0.35331164420313144,1.0010564471176622,6.333945371357004
4,22,female,57,135,135,same,catch,clock,5,0,1,0.2167846162828937,0,j,change,0.798520717460633,0,0.505993268758175,0.035323627533216495,0.35331356851474993,1.0010631822078722,4.1080715895259345
4,22,female,58,105,55,change,valid,anti,4,1,1,0.8821221181024157,0,j,change,2.560957383551795,0.2692942634775609,0.506095898714193,0.03533389052790881,0.3533305666005617,1.0010574092739262,6.546152691566931
4,22,female,59,75,75,same,valid,clock,1,0,1,0.33712048564484576,0,j,change,3.4165605622583826,0.13632786192990037,0.5052155261164444,0.03533549412168213,0.3533187000120961,1.0010525984935157,6.89932546460841
4,22,female,60,105,105,same,valid,anti,2,1,2,0.5399368440903345,1,f,same,1.8177179715958118,0.286356706749334,0.505028226444665,0.035389054130064324,0.35328919389939983,1.0010564471176622,5.473858867132549
4,22,female,61,135,85,change,valid,anti,1,2,3,0.31336453711628565,1,j,change,1.157129350307514,0.3487552130120456,0.5051270077792651,0.03534960574052093,0.3532587256313491,1.0010612578971632,4.5786357143269925
4,22,female,62,105,105,same,catch,anti,1,1,1,0.2303603145355737,0,j,change,0.9052138583801934,0,0.5055586950338693,0.03530374297861272,0.35332928372554306,1.0010548435247983,4.260858409787943
4,22,female,63,165,215,change,valid,clock,1,1,3,0.22239590916979068,1,j,change,1.551725177501794,0.2774998578807275,0.5060625439782598,0.03534062561902829,0.35329175964852766,1.001041694061314,4.862174382407829
4,22,female,64,75,75,same,valid,clock,2,1,4,1.0124781991517011,1,f,same,1.5258877651622242,0.2691613182599378,0.5054310490259013,0.03532619328234432,0.35328342096454435,1.0010817838874573,5.650696376328597
4,22,female,65,135,135,same,catch,clock,2,1,1,0.20401584606497636,0,j,change,1.3857439934217837,0,0.5052357313888933,0.03532715543769882,0.3532988154584018,1.0010202059138464,4.672576441678757
4,22,female,66,45,95,change,valid,clock,3,2,3,0.1839561795741247,1,j,change,1.7590328794303787,0.3408821777433634,0.506051318826394,0.03535409580126725,0.353286628150272,1.0010805010133481,5.0150041789638635
4,22,female,67,45,95,change,catch,clock,4,1,1,0.3985862082017775,0,f,same,2.55939965323887,0,0.505724506558181,0.03536339664060506,0.3533100406093581,1.0010352796889492,6.004782876704667
4,22,female,68,45,355,change,valid,anti,2,0,2,0.18724995974935155,1,j,change,2.1396828990909853,0.14846286049245166,0.5051978865922138,0.035325231126080325,0.35328791102529067,1.0010689551436371,5.437998677356518
4,22,female,69,15,325,change,valid,anti,2,2,1,0.08928389306220197,0,j,change,2.9866619542408444,0.3333286833202808,0.5057171300304617,0.035367886702260876,0.35330587126736646,1.001025337412102,6.2166643468017355
4,22,female,70,135,135,same,catch,clock,1,1,1,0.21069256619102816,0,f,same,3.056804077487868,0,0.5049525368522154,0.035350247177120764,0.3532641778474499,1.0010747280784926,6.36867117939164
4,22,female,71,45,95,change,valid,clock,3,1,2,0.3764620759866375,1,j,change,1.250832425165754,0.26124761894256016,0.5056873031999203,0.0353480021476571,0.35330009833251097,1.0010407319059595,4.732101175177377
4,22,female,72,15,15,same,valid,clock,3,0,2,0.5892091656251068,1,f,same,1.1114288719882097,0.1366147958078483,0.5057905745934477,0.035323627533216495,0.3532831002457897,1.0010846703562493,4.826872563741745
4,22,female,73,105,55,change,valid,anti,4,2,2,1.0293133606883202,1,j,change,0.9300294612112339,0.35670631393414864,0.5049454810432508,0.03533228693595447,0.35328823174404533,1.0010500327452974,5.049492975941575
4,22,female,74,135,135,same,catch,clock,1,2,1,0.12259533200449368,0,j,change,1.860398884155984,0,0.5052357313898028,0.03533164549844514,0.3533164549817229,1.0010558056801528,5.108534707205763
4,22,female,75,15,325,change,valid,anti,2,1,2,0.17911942214232113,1,j,change,1.4188934694630007,0.2536457958907459,0.5059996831296303,0.0353085537581137,0.35334339534529136,1.0010304689094482,4.685138669106891
4,22,female,76,105,155,change,catch,clock,2,0,2,0.11697762474432238,1,j,change,1.2973863357192386,0,0.5054464435188493,0.0353489643030116,0.35330394695574796,1.0010673515507733,4.508421750110756
4,22,female,77,45,45,same,valid,clock,2,1,2,1.1657586053615887,1,f,same,1.7351807153181653,0.2462910386714679,0.50530179942416,0.03536788670135138,0.35329528755301,1.0010266202862113,6.038773276954998
4,22,female,78,75,25,change,valid,anti,2,2,3,0.4934602267221635,1,j,change,1.6832406563435143,0.35082035663923516,0.5059409916239019,0.03529251782765641,0.3533382638479452,1.0010689551436371,5.2738122346454475
4,22,female,79,15,325,change,valid,anti,5,2,3,0.33455313313243096,1,j,change,0.9563787404613322,0.3450600483839398,0.5057819151907097,0.035319458190315345,0.35334628181226435,1.0010545228060437,4.367633975390163
4,22,female,80,135,85,change,valid,anti,2,2,3,0.34853806833689305,1,j,change,0.9577363423586576,0.3398389907883556,0.5052485601345325,0.03534415352442011,0.3532744408430517,1.0010737659231381,4.413835416186885
4,22,female,81,135,135,same,valid,anti,3,2,3,0.5394057340636209,1,j,change,3.2119905144254517,0.3346653549580438,0.5054041086623329,0.035290593516037916,0.3533353773800627,1.001038486874677,6.922763260271495
4,22,female,82,105,105,same,valid,clock,2,2,3,0.40396145218801394,1,f,same,1.333825743313355,0.3295230436063036,0.5050016067998513,0.0353489643030116,0.3533007397691108,1.0010362418452132,4.86151915427854
4,22,female,83,45,45,same,valid,anti,2,2,3,0.3544120297710833,1,f,same,0.8348514014442117,0.3247699203369786,0.505163569700926,0.03530759160184971,0.353281817370771,1.0010766523901111,4.319767363544997
4,22,female,84,135,185,change,valid,clock,3,0,2,0.24257776945341902,1,j,change,1.6917419446708664,0.12590504474792807,0.5045991049382792,0.03534736071105726,0.3532548770081121,1.001092688321478,5.037142422798752
4,22,female,85,15,15,same,catch,anti,2,1,2,0.23490457659045205,1,j,change,1.5118919255237415,0,0.505594936237685,0.035314968129569024,0.35332286935408774,1.0010663893945093,4.826632986935692
4,22,female,86,135,135,same,valid,anti,5,1,3,0.7374491580812901,1,f,same,1.0931075003900332,0.23949627484484914,0.505604557796687,0.035321382502843335,0.3533193414486959,1.0010429769354232,4.99113437532651
4,22,female,87,15,15,same,valid,anti,4,0,2,0.5113935287963614,1,f,same,0.9545817540620192,0.11610652608931232,0.5057026976919587,0.03529700788749324,0.35331805857458676,1.0010635029266268,4.6378070159125855
4,22,female,88,15,15,same,valid,clock,1,0,3,1.5004454781565073,1,f,same,0.9488819428361239,0.10705048178182502,0.5058521525670585,0.03531913747156068,0.3533289630076979,1.0010602957408992,5.591928859479594
4,22,female,89,45,45,same,valid,anti,4,0,2,1.2711291027126208,1,j,change,0.9520070250209756,0.09861199374601443,0.5056221973200081,0.035330683342181146,0.3533318494746709,1.001058050710526,5.356691056247655
4,22,female,90,15,15,same,valid,anti,2,0,1,0.4623995910196754,0,j,change,0.9964627943954838,0.09071109871227517,0.5052706897176904,0.03533453196541814,0.35330234336197464,1.0010673515507733,4.625800914561296
4,22,female,91,165,165,same,valid,anti,4,1,3,0.4000371392157831,1,f,same,1.0093566448731508,0.2328386637368608,0.5055192466452354,0.03532202393944317,0.353287590306536,1.001083066762476,4.519732533503884
4,22,female,92,135,185,change,valid,clock,2,0,3,1.2944568918901496,1,j,change,0.708817003731383,0.09778554593228012,0.5058252122034901,0.035366603827242216,0.3533061919861211,1.0010631822078722,5.120738371224434
4,22,female,93,135,185,change,valid,clock,2,2,4,0.3881157075793453,1,j,change,1.2999350865520682,0.3200050705600943,0.5057966682461483,0.03536179304774123,0.35327604443591554,1.0010737659231381,4.84980651045953
4,22,female,94,75,125,change,catch,clock,5,1,1,0.5734176224623297,0,j,change,0.8035636969625557,0,0.5055240574238269,0.03535185077089409,0.35331453067010443,1.001050353464052,4.496441947686435
4,22,female,95,15,15,same,valid,anti,5,1,3,0.7276694853553636,1,f,same,1.2081893574022615,0.22623121890194414,0.5060028903162674,0.03530213938574889,0.3533164549817229,1.0010663893954188,5.06212896865145
4,22,female,96,15,15,same,valid,anti,3,2,3,0.5247347817412447,1,f,same,0.74253318956562,0.31553451592974413,0.5056943590088849,0.03533324909130897,0.3533119649209766,1.0010651065204001,4.390793387295162
4,22,female,97,45,95,change,valid,clock,1,2,3,0.45873570156254573,1,j,change,0.8767199337526108,0.3113840655438037,0.5055041728701326,0.03530759160184971,0.3533036262369933,1.0010631822087817,4.437816829901749
4,22,female,98,105,105,same,catch,clock,5,0,1,0.5312832144209096,0,j,change,0.9280313842400574,0,0.5054066744114607,0.03532940046807198,0.353294325396746,1.0010365625630584,4.602842593228161
4,22,female,99,165,215,change,valid,clock,5,1,2,0.6749888870999712,1,j,change,1.217125540170855,0.22001691354799968,0.5051244420301373,0.03532042034657934,0.35325327341433876,1.0010856325116038,5.002759462962786
4,22,female,100,105,55,change,catch,anti,2,1,1,0.6996951248838741,0,j,change,1.6048079569009133,0,0.5048819787571119,0.035322986095707165,0.35327412012429704,1.0010811424508574,5.461390289538031
4,22,female,101,135,135,same,catch,anti,2,2,1,0.4053286756434318,0,f,same,1.6694815070432014,0,0.5096359907865917,0.03530053579288506,0.3533074748602303,1.001087236105377,5.265948214207128
4,22,female,102,105,55,change,valid,anti,3,1,2,0.8347885405955822,1,j,change,0.6308926432920998,0.21374940251844082,0.5054073158480605,0.03532330681446183,0.3533154928263684,1.0010545228060437,4.637445566033421
4,22,female,103,135,85,change,valid,anti,4,0,1,0.39935368784699676,0,j,change,1.0436568593058837,0.0905211559732178,0.5058168735195068,0.03535634083164041,0.3533093991718488,1.0010583714292807,4.531808230794013
4,22,female,104,165,115,change,valid,anti,2,2,3,0.4689650217860617,1,f,same,1.0135352877068726,0.3070992228858515,0.5058194392686346,0.03530149794914905,0.3532696300644602,1.001093971195587,4.555628002326557
4,22,female,105,105,55,change,valid,anti,5,0,2,0.43086172601852013,1,j,change,0.7549950320690186,0.09707463022198826,0.5052976300812588,0.03531977890907001,0.3533158135442136,1.001038486874677,4.272477403769699
4,22,female,106,15,65,change,valid,clock,2,1,3,0.3678068427243488,1,f,same,1.5447829023623854,0.20738803437133602,0.5057132814072247,0.035273916148071294,0.3533401881595637,1.0010567678364168,5.014909566972165
4,22,female,107,165,165,same,valid,anti,3,2,1,0.19764188431145158,0,j,change,0.6946287329246843,0.3031046453118361,0.5054544614840779,0.03531079878757737,0.3533110027656221,1.0010525984944252,4.001656511646615
4,22,female,108,135,135,same,valid,anti,2,0,2,0.7453295351697307,1,f,same,1.0937874238534278,0.09035061725106786,0.5057969889658125,0.03528834848475526,0.35331453067010443,1.0010837081999853,4.991929757491562
4,22,female,109,105,105,same,valid,anti,4,1,2,0.7313292054705016,1,f,same,1.4546192781390346,0.20124656423733672,0.5051212348435001,0.035275199021270964,0.3533619970248765,1.0010702380177463,5.308866137822406
4,22,female,110,105,155,change,valid,clock,4,2,2,1.2298776330189867,1,j,change,0.9328078465732688,0.3167624491819974,0.5055054557442418,0.03532426896981633,0.3533081162977396,1.0010766523910206,5.285963942246781
4,22,female,111,45,45,same,valid,anti,1,1,2,0.44491401213144854,1,f,same,4.355510491026507,0.19480034014392117,0.5049060326527979,0.035319137472470175,0.3533328116309349,1.0010574092739262,7.911571463484506
4,22,female,112,135,185,change,valid,clock,4,1,2,0.4171436287006145,1,j,change,1.1040741527094724,0.18802067986211918,0.5052722933114637,0.03533036262342648,0.35330202264412947,1.0010375247193224,4.625762428327107
4,22,female,113,105,155,change,valid,clock,3,0,1,0.3752228192579423,0,j,change,0.5225917399566242,0.08393936780763761,0.5053653017093893,0.03531817531620618,0.3532689886269509,1.0010859532303584,4.013510592373677
4,22,female,114,75,75,same,valid,anti,2,0,1,0.3848825432214653,0,f,same,1.098444578861745,0.08954699472292965,0.5055115493978519,0.03537365963711636,0.3533007397691108,1.001060937177499,4.555806321876844
4,22,female,115,45,355,change,valid,anti,1,2,2,0.7254946924276737,1,j,change,0.946784443094657,0.31333692902150356,0.505223544081673,0.035328438311807986,0.3532574427563304,1.0010779352642203,4.802851701636428
4,22,female,116,15,15,same,catch,clock,4,1,1,0.37419363322260324,0,j,change,1.197504296025727,0,0.505102633163915,0.035318496034960845,0.353278930903798,1.0010404111872049,4.6967432307528725
4,22,female,117,75,25,change,valid,anti,1,0,1,0.18919255240052735,0,j,change,1.281751623958371,0.09531128471390032,0.5050753720815919,0.035356982268240245,0.3533103613281128,1.0010246959745928,4.613786153807268
4,22,female,118,105,105,same,valid,clock,2,0,1,0.7210585125458238,0,f,same,1.001112252157327,0.1011814910390007,0.5055635058133703,0.03530085651073023,0.35330234336197464,1.0010686344248825,4.861719924130739
4,22,female,119,165,165,same,valid,clock,2,2,2,0.36026963455424266,1,f,same,1.0697707310910118,0.3097963387480867,0.5054502921429957,0.035291555671392416,0.3533174171370774,1.0010731244856288,4.566716527720018
4,22,female,120,135,185,change,catch,clock,4,0,1,0.9168424739200418,0,j,change,1.4813085191199207,0,0.5056148207922888,0.0353095159143777,0.35330394695574796,1.0009743431519382,5.544526648188366
4,22,female,121,165,115,change,valid,anti,5,1,3,0.39023052612628817,1,j,change,1.132841008878131,0.1811266302879917,0.5060971815892117,0.03534639855479327,0.35330202264412947,1.0010618993346725,4.67406906611177
4,22,female,122,45,45,same,valid,clock,1,0,2,0.715115917329058,1,j,change,1.4353338263854312,0.10670219185626634,0.5051427229909677,0.035310798788486863,0.3532962497083645,1.0010699172989916,5.261665979260215
4,22,female,123,105,55,change,catch,anti,4,0,1,0.5978512494239112,0,f,same,1.1260934099373117,0,0.5053258533207554,0.03532811759305332,0.35332671797732473,1.0011048756286982,4.849646471870983
4,22,female,124,75,75,same,valid,anti,1,0,2,0.9587138926963235,1,f,same,1.1737958138528484,0.1009819184658306,0.505858887658178,0.035289310641019256,0.3533270386960794,1.0010622200525177,5.239071032116954
4,22,female,125,105,155,change,valid,clock,3,1,3,0.853117288721478,1,j,change,1.8246640953584574,0.17340769818122204,0.5053691503326263,0.03533453196541814,0.3532651400028044,1.001092688321478,5.80393861702305
4,22,female,126,15,325,change,valid,anti,3,1,3,0.4143241913561724,1,j,change,1.1943375204218682,0.1645688306994197,0.5052238648004277,0.03530502585272188,0.3533045883932573,1.0010907640098594,4.719724964544184
4,22,female,127,135,135,same,catch,anti,5,2,1,0.21065055205326644,0,j,change,1.47205065558137,0,0.505842531008966,0.035325551843925496,0.35329849473964714,1.0010772938276205,4.7918542603292735
4,22,female,128,75,25,change,valid,anti,4,2,2,0.4886286007877061,1,j,change,1.137657240318731,0.306424246307906,0.504919823552882,0.03532555184483499,0.35333986743989954,1.0010468255595697,4.695733287834628
4,22,female,129,45,45,same,catch,anti,1,0,1,0.634443319078855,0,f,same,0.9424165762775374,0,0.5060388108013285,0.035332607654709136,0.35330875773524895,1.0010432976541779,4.7558728389176395
4,22,female,130,15,325,change,valid,anti,1,2,3,0.3654299970685315,1,j,change,1.1952605485957974,0.303260151167613,0.5058386823848195,0.03534158777529228,0.353281817370771,1.0010936504768324,4.696828862623079
4,22,female,131,75,125,change,valid,clock,1,2,3,0.17124385583247204,1,j,change,1.3055765269891708,0.2999669745335214,0.5057755008183449,0.03536788670135138,0.35329528755301,1.0010615786159178,4.602819180769075
4,22,female,132,165,115,change,valid,anti,3,0,3,0.9715910658060238,1,j,change,0.9457039420803994,0.09545258610900731,0.5055246988613362,0.03532202393944317,0.35333505666130804,1.0010567678364168,5.096778445656128
4,22,female,133,165,115,change,valid,anti,3,1,2,1.1210510718738078,1,f,same,1.168622943311675,0.1539453377421761,0.5059310493470548,0.035327476156453486,0.3532821380895257,1.0010551642426435,5.427826765763712
4,22,female,134,105,105,same,valid,clock,5,2,2,0.8851471360794676,1,f,same,1.2459459563469863,0.29679203658868375,0.5046144994321367,0.03534768142890243,0.3533093991727583,1.0010708794552556,5.284368367138086
4,22,female,135,165,115,change,valid,anti,1,0,2,0.5488771962009196,1,f,same,0.9491786075550408,0.09027158869457613,0.5058062898051503,0.035349285021766264,0.3533084370164943,1.0010404111862954,4.6267595425015315
4,22,female,136,15,15,same,valid,clock,2,2,3,0.9512427525605744,1,f,same,0.9646141530565728,0.2938032736953592,0.5049615169727986,0.03536179304774123,0.35327572371716087,1.0010599750221445,5.049615169734352
4,22,female,137,135,85,change,valid,anti,4,2,3,0.9726394949575479,1,j,change,0.9842123054595504,0.29068764969534905,0.5055269438917094,0.03527359542931663,0.3533719393026331,1.0010436183729325,5.073848988999089
4,22,female,138,45,45,same,valid,anti,5,2,3,0.688029305983946,1,f,same,1.1520414701990376,0.2876386506889219,0.5053566423075608,0.03527519902218046,0.3533344152247082,1.0010785767026391,4.955848913308728
4,22,female,139,135,85,change,catch,anti,2,2,1,0.5537861153215999,0,f,same,1.0676966438077216,0,0.5054381048357754,0.03532940046807198,0.3532837416823895,1.0010718416115196,4.731861277653479
4,22,female,140,105,55,change,catch,anti,2,1,1,0.5009563829098624,0,f,same,0.7109488203650471,0,0.5057803115978459,0.03531817531620618,0.3532667435965777,1.0010679929873731,4.343903684351062
4,22,female,141,165,165,same,valid,clock,2,0,1,0.6375007296346666,0,f,same,0.8922327724394563,0.08525839432192239,0.5054422741768576,0.035332286935044976,0.35329528755301,1.0010362418452132,4.613890066639215
4,22,female,142,135,135,same,valid,clock,3,1,1,1.0120994304679698,0,j,change,2.8871814542535503,0.14045052574909278,0.5057726143504624,0.03530695016434038,0.3533324909121802,1.001025337412102,7.005772614351372
4,22,female,143,75,125,change,valid,clock,5,2,2,0.5784689406473262,1,j,change,0.9352433837357239,0.28475334622899107,0.505184737129639,0.0352982907625119,0.3532959289905193,1.0010779352651298,4.613862484838137
4,22,female,144,165,165,same,catch,clock,4,1,2,1.1005286084209729,1,j,change,1.0594426295338053,0,0.5055564500044056,0.03529059351512842,0.3533363395354172,1.0010577299917713,5.261694523216647
4,22,female,145,45,355,change,valid,anti,5,0,2,0.600480500629601,1,j,change,0.6819353315813714,0.08998972025724467,0.5062190546623242,0.03534832286550227,0.3532997776137563,1.0010404111872049,4.368144559425673
4,22,female,146,45,95,change,valid,clock,5,2,2,0.6119837151918546,1,j,change,1.2024757552762821,0.2817511495112417,0.5050445830947865,0.03530085651073023,0.35330490911110246,1.0009852475850494,4.955705872806902
4,22,female,147,105,155,change,catch,clock,3,0,1,0.44646436591665406,0,j,change,0.612640226196163,0,0.5052225819263185,0.0353348526841728,0.353287590306536,1.0010452219667059,4.154833005024557
4,22,female,148,45,95,change,valid,clock,5,0,2,2.267246803879061,1,j,change,1.319190390757285,0.08524630758961504,0.5056940382901303,0.03538937484881899,0.35326000850545825,1.001024375255838,6.664127430485678
4,22,female,149,75,75,same,valid,clock,5,2,2,1.6103249585157755,1,j,change,10.643571933015664,0.27879040633294905,0.5051311771203473,0.03534351208691078,0.3532997776137563,1.001024054537993,15.343164748662275
4,22,female,150,15,15,same,catch,anti,3,1,1,0.28042641464162443,0,j,change,0.36615001035897876,0,0.5047238644801837,0.03533164549844514,0.35332735941392457,1.001037845438077,3.707112705011241
4,22,female,151,135,135,same,catch,anti,1,2,1,0.667967073744876,0,j,change,0.6650235182960387,0,0.5028967305297556,0.035351530052139424,0.35330779557898495,1.0010788974204843,4.434903742721872
4,22,female,152,45,355,change,catch,anti,4,0,2,1.1029307908474948,1,j,change,0.6964324544151168,0,0.5058438138830752,0.03532555184483499,0.353296249709274,1.001044580528287,4.932939020486629
4,22,female,153,165,165,same,valid,anti,1,2,3,0.4388707112702832,1,f,same,1.038160383682225,0.27593980071685875,0.5052068667137064,0.0353226653769525,0.3532661021590684,1.001100385567952,4.578774585487736
4,22,female,154,75,25,change,valid,anti,4,0,2,0.6961056421459944,1,f,same,1.291533220995916,0.08075453333494587,0.5054887783771846,0.035311440225996193,0.35330138120752963,1.0010760109535113,5.085876257778182
4,22,female,155,45,45,same,valid,clock,2,0,2,0.37270485741191806,1,f,same,0.9993996147532016,0.07634221843365441,0.5047392589731317,0.035356020112885744,0.3533167756995681,1.0010522777756705,4.448521455113223
4,22,female,156,75,125,change,valid,clock,2,2,2,0.6952987141103222,1,j,change,0.8954159046934365,0.273213278887809,0.5057113570956062,0.03530727088400454,0.3533193414496054,1.0010602957408992,4.72083914101313
4,22,female,157,105,155,change,valid,clock,4,0,2,0.7372993824883451,1,j,change,0.9266782724043878,0.07219924049654947,0.5052755004971914,0.03533036262342648,0.3532831002457897,1.0010615786159178,4.766869959506039
4,22,female,158,15,325,change,valid,anti,5,1,2,0.7390014361781141,1,j,change,0.7353680149890351,0.1640934194582077,0.5059015432343585,0.035320099627824675,0.3533045883932573,1.0010926883205684,4.602867929998865
4,22,female,159,165,115,change,catch,anti,3,1,1,0.21472143343271455,0,j,change,1.1177672339745186,0,0.5056279702548636,0.03530470513396722,0.35328919389939983,1.001070558736501,4.437789568819426
4,22,female,160,165,215,change,valid,clock,4,1,3,1.2795848489959099,1,j,change,0.8705143492716161,0.15657898401022896,0.5058467003509577,0.035278726926662785,0.35336327989989513,1.0010477877149242,5.262186505571663
4,22,female,161,105,105,same,valid,anti,5,1,3,0.6240558845765918,1,f,same,1.0992813337279586,0.1486131023442358,0.5053595287745338,0.03530598800898588,0.35332190719873324,1.0010381661568317,4.849411064406922
4,22,female,162,15,325,change,valid,anti,3,2,3,0.5487341556981846,1,j,change,0.6992294414558273,0.2703258045586451,0.5054765910690548,0.03537686682284402,0.3533061919861211,1.0010606164596538,4.343492843805507
4,22,female,163,105,105,same,valid,clock,4,2,3,0.564534999701209,1,f,same,0.8541208172682673,0.2674427250857492,0.5050237363848282,0.035270388242679473,0.35338380589018925,1.001046504840815,4.531347999582067
4,22,female,164,75,75,same,valid,clock,4,0,3,0.875098380435702,1,j,change,0.5967585611024333,0.06805503908018506,0.5055689580303806,0.03534351208691078,0.35328887318064517,1.001053239931025,4.543815294301567
4,22,female,165,15,65,change,valid,clock,5,2,3,0.5488242776300467,1,f,same,1.6732698353243904,0.26468853680141824,0.5055266231729547,0.03536692454599688,0.35328438311989885,1.0010336760960854,5.2979257844299354
4,22,female,166,75,75,same,catch,anti,2,1,1,0.6054551670649744,0,f,same,1.4315175955853192,0,0.5048973732509694,0.03534415352442011,0.35330234336288413,1.001046504840815,5.167672654055423
4,22,female,167,45,45,same,catch,clock,5,2,1,0.6655757957505557,0,f,same,1.6348551217797649,0,0.505248560133623,0.03530213938574889,0.3533036262369933,1.0010875568232223,5.4149781366122625
4,22,female,168,135,185,change,valid,clock,4,2,3,0.6697768888889186,1,j,change,0.7441457627619457,0.26178862407420656,0.5051433644275676,0.035332928372554306,0.3533222279165784,1.0010772938276205,4.496503204940382
4,22,female,169,75,75,same,valid,anti,3,1,2,0.6239455573731902,1,f,same,1.0670029294433334,0.13944472892431659,0.5051693426357815,0.03534671927263844,0.3532564806009759,1.0010606164596538,4.802785312884225
4,22,female,170,75,75,same,valid,clock,4,1,2,0.6283596076709728,1,f,same,1.2199796151253395,0.12861912258902913,0.5051045574755335,0.03534062561902829,0.3532548770072026,1.0010776145463751,4.966731537351734
4,22,female,171,135,135,same,valid,clock,1,0,2,0.6364215114954277,1,j,change,1.1691357723775582,0.06418264486002412,0.5060830699703729,0.035321382502843335,0.3533324909121802,1.001026941004966,4.920882566313594
4,22,female,172,15,15,same,valid,clock,4,0,1,0.23788276964842225,0,j,change,1.0776732377635199,0.06031821357452993,0.5058781307743629,0.03529540429462941,0.3533289630076979,1.0010593335855447,4.4029220031579825
4,22,female,173,165,165,same,catch,clock,2,0,1,0.5442771291063764,0,f,same,1.3974948027544087,0,0.5053438135619217,0.035332286935044976,0.353290476773509,1.0010631822087817,5.014858893430755
4,22,female,174,45,95,change,catch,clock,5,2,1,0.9739836266726343,0,f,same,2.0545933640751173,0,0.505553242818678,0.03531368525545986,0.3532811759341712,1.0010827460437213,6.204164338783812
4,22,female,175,165,215,change,catch,clock,1,0,1,1.8175752518118315,0,j,change,1.6401543554557065,0,0.5055837110867287,0.035322344658197835,0.35331324779599527,1.001011546512018,6.53378065027573
4,22,female,176,105,105,same,catch,anti,2,2,2,0.5785962659365396,1,j,change,0.9825266084199029,0,0.5060141154681332,0.03536243448525056,0.3533036262369933,1.001070558736501,4.650045958976989
4,22,female,177,135,185,change,valid,clock,4,0,2,0.4433489052917139,1,j,change,1.152133195722854,0.06382602693309075,0.5059480474328666,0.035316892442097014,0.35330041905035614,1.0010397697496956,4.709057863410635
4,22,female,178,75,125,change,valid,clock,2,1,2,0.09747600864466222,1,j,change,1.775530003546919,0.11580615599297278,0.504968252063918,0.035329079749317316,0.3533007397691108,1.0010372040005677,5.00233707654661
4,22,female,179,165,115,change,valid,anti,5,2,2,1.102761772136546,1,j,change,0.7947570845144583,0.2588816084001106,0.5056407989995932,0.03529540429462941,0.3533299251639619,1.001035600407704,5.002863696512577
4,22,female,180,165,215,change,valid,clock,1,0,1,0.1218297766708929,0,j,change,0.7604446827735956,0.06010810484442769,0.5053903177613392,0.03532651400018949,0.35332094504246925,1.0010314310657122,3.9784117885892556
4,22,female,181,45,45,same,valid,anti,1,2,1,0.1789443097777621,0,j,change,1.938854675339826,0.25602238072720185,0.50541405093918,0.03533549412168213,0.35327861018504336,1.0010500327452974,5.238873790169237
4,22,female,182,105,105,same,valid,clock,5,1,2,0.4905343107975568,1,f,same,1.1502637269177285,0.10105249300606611,0.5051350257444938,0.035329400467162486,0.35331420995134977,1.0010365625630584,4.813865820311548
4,22,female,183,165,215,change,catch,clock,2,1,2,0.18203058501057967,1,j,change,1.4996757534800054,0,0.5058553597527862,0.035332928372554306,0.35331613426296826,1.0010772938276205,4.779890814555074
4,22,female,184,135,135,same,valid,clock,5,1,1,0.1681646364104381,0,j,change,1.0891944125687587,0.08378013592788824,0.505477873943164,0.03534768142890243,0.35329528755301,1.0010442598104419,4.343073343857213
4,22,female,185,45,45,same,valid,clock,5,0,1,0.1608714951071306,0,j,change,1.5520930417533236,0.06349536147167506,0.5057636342289697,0.03535024717803026,0.3533026640816388,1.0010679929873731,4.849718954277705
4,22,female,186,75,75,same,catch,anti,4,2,1,0.09301352983584366,0,j,change,2.6895209682625136,0,0.5059788364205815,0.035353775082512584,0.35328726958778134,1.0010525984944252,5.921901810071176
4,22,female,187,135,85,change,valid,anti,5,0,2,0.4134665897800005,1,f,same,0.9685477668681415,0.06670524030199965,0.5060195676842341,0.035323948251061665,0.3532885524618905,1.0010837081999853,4.509118671659962
4,22,female,188,75,75,same,valid,clock,4,2,1,0.11567807291703502,0,j,change,2.0157097599167173,0.2662980423812918,0.5052116774932074,0.035331324779690476,0.3532529526955841,1.0010782559838844,5.2147493359516375
4,22,female,189,45,45,same,valid,clock,3,2,3,0.29315798149946204,1,f,same,0.9716000459275165,0.27501531341800256,0.5048069306003526,0.035313043818860024,0.3533033055191481,1.0010865946678678,4.390207113667202
4,22,female,190,105,155,change,catch,clock,1,1,1,0.24890266125839844,0,j,change,0.8524271022624816,0,0.5049102019947895,0.03533613555919146,0.3532510283839656,1.0010971783822242,4.20151937236642
4,22,female,191,165,115,change,valid,anti,4,1,2,4.685532511567544,1,f,same,1.450518569929045,0.11132108300947058,0.5059069954495499,0.03529283854550158,0.3533167757004776,1.0010660686766641,9.266312229834512
4,22,female,192,105,155,change,valid,clock,4,1,3,1.4502488455736966,1,f,same,1.0089704996598812,0.09911621688519962,0.5055465077275585,0.035353454364667414,0.35327957234130736,1.0010724830481195,5.580491712951698
4,22,female,193,165,215,change,valid,clock,2,0,2,0.09367870024289005,1,j,change,1.0655420561533901,0.06329200170239929,0.5052046216833332,0.035326834718944156,0.3532798930591525,1.0010728037668741,4.307842083285323
4,22,female,194,15,65,change,valid,clock,4,2,3,0.11890386074719572,1,j,change,1.4510974670283758,0.2729735377420174,0.5055433005409213,0.03527551974002563,0.3533767500812246,1.001030789628203,4.708859659306654
4,22,female,195,105,105,same,valid,clock,3,2,3,0.3057080216212853,1,f,same,1.0988005765238995,0.270799588535985,0.5053123831385165,0.035329079749317316,0.3533187000120961,1.001051315620316,4.5078957715813885
4,22,female,196,15,65,change,catch,clock,3,2,2,0.6390854003111599,1,f,same,3.397719947221958,0,0.5057581820128689,0.035322023940352665,0.35332575582197023,1.0010577299917713,7.158893944127158
4,22,female,197,15,325,change,valid,anti,4,1,2,0.3450576299283057,1,j,change,0.8548026650432803,0.0863700870735915,0.505168380480427,0.035319137472470175,0.3532728372501879,1.0010307896291124,4.3077984655537875
4,22,female,198,165,215,change,valid,clock,5,2,3,0.7058942949934135,1,j,change,0.8539149159178123,0.2686297202702808,0.5055038521513779,0.03533741843330063,0.353296249709274,1.0010570885551715,4.672890104483486
4,22,female,199,45,45,same,valid,clock,3,0,1,0.3544950958912523,0,f,same,0.9323880259062207,0.059837646735309835,0.5058992982030759,0.03532106178408867,0.35333986744080903,1.0010554849613982,4.343849162186416
4,22,female,200,135,135,same,catch,clock,3,2,1,0.6952618314699066,0,j,change,1.1806142916066165,0,0.5055057764629964,0.03530855375720421,0.35331228563973127,1.0010596543033898,4.979756561742761
4,22,female,201,105,155,change,valid,clock,2,1,2,1.4730426382566293,1,j,change,0.6914420727662218,0.07377447183411184,0.5054797982547825,0.03532426896981633,0.35331324779508577,1.001071520892765,5.297540280654175
4,22,female,202,45,45,same,valid,anti,5,1,2,0.5081292547338307,1,f,same,0.7198141243197824,0.06117753549548299,0.5048242494067381,0.03533132477878098,0.3532949668342553,1.001031751784467,4.343233703164515
4,22,female,203,165,115,change,valid,anti,3,2,3,0.24563421785387618,1,j,change,0.9397594225529247,0.266547968806162,0.504423671855875,0.035327796874298656,0.3532997776137563,1.0010635029266268,4.272194529950866
4,22,female,204,135,185,change,valid,clock,1,2,3,1.0029438761666825,1,j,change,0.7211560110044957,0.26454850639033833,0.5044547815614351,0.03529893219911173,0.35331228563973127,1.001082425325876,4.813225345236788
4,22,female,205,75,75,same,valid,anti,4,2,3,0.5479297934116403,1,f,same,0.7292964908892827,0.2624377352019043,0.5052799905579377,0.035325551843925496,0.35330971989060345,1.0010558056801528,4.390295311286536
4,22,female,206,105,55,change,catch,anti,2,2,1,0.4028758196764102,0,f,same,0.9248697401353638,0,0.505378130454119,0.03533709771454596,0.3532895146181545,1.0010731244856288,4.437632095979097
4,22,female,207,75,25,change,catch,anti,3,2,1,0.7581541104254939,0,j,change,0.1067672269191462,0,0.5054313697437465,0.03539482706491981,0.35323948251425463,1.0010481084336789,3.94280624939438
4,22,female,208,15,15,same,valid,clock,4,1,1,0.19121660757991776,0,j,change,1.6899921039084802,0.04953120913556924,0.5058527940045678,0.035314647411723854,0.35329111821101833,1.0010779352651298,5.014997123153989
4,22,female,209,105,105,same,valid,clock,4,1,1,0.5875010182817277,0,j,change,0.8401820655435586,0.06806146493947601,0.5055362447310472,0.03531432669296919,0.3533100406093581,1.0010631822087817,4.531704638681731
4,22,female,210,105,155,change,valid,clock,2,2,2,0.41583477603217034,1,j,change,2.1981033983993257,0.26034906990267026,0.5055064179005058,0.035319137472470175,0.3533103613272033,1.0010442598104419,5.6976072467005
4,22,female,211,105,55,change,valid,anti,1,0,2,0.25809638107512,1,j,change,5.798033225166364,0.06300176979013666,0.5055808246188462,0.03533100406093581,0.35328726958778134,1.001081463169612,9.160824670188958
4,22,female,212,75,75,same,valid,anti,4,1,1,0.47364719284541934,0,f,same,0.8962837692652101,0.08529344954823687,0.505089162981676,0.03535345436375792,0.35330875773524895,1.001026299568366,4.495803717642048
4,22,female,213,15,65,change,valid,clock,3,1,2,0.47795925462378364,1,f,same,2.2700825978718058,0.10113617715729595,0.5053335505663199,0.03530502585272188,0.35332094504155975,1.0010586921480353,5.862288558234468
4,22,female,214,15,15,same,valid,anti,2,1,3,0.5688816990905252,1,j,change,1.1003567032439605,0.09309787810228126,0.5054778739440735,0.03532811759305332,0.35331324779599527,1.0010529192122704,4.7904809432202455
4,22,female,215,15,325,change,valid,anti,1,0,1,0.2733513619950827,0,j,change,1.1227742929922897,0.05966488250550389,0.5060644682898783,0.03531753387869685,0.3533148513888591,1.0010449012479512,4.484883569521116
4,22,female,216,165,165,same,valid,anti,4,0,1,0.23114415083000495,0,j,change,1.1004455422998944,0.06273036501832618,0.5059432366542751,0.03530630872774054,0.353298174019983,1.0011035927536795,4.390810064663128
4,22,female,217,15,65,change,valid,clock,5,0,1,0.5765965853734087,0,j,change,1.181811534195731,0.06562894075761677,0.5057084706268142,0.03533036262342648,0.35330875773524895,1.001063823646291,4.838823822208724
4,22,female,218,135,135,same,valid,anti,4,1,2,0.2602689289733462,1,j,change,6.695322447288163,0.08510857287624979,0.504985570869394,0.03535890657985874,0.353286628150272,1.0010461841220604,10.066986893513786
4,22,female,219,15,15,same,valid,anti,1,0,1,0.7567618709181261,0,f,same,1.22688885624666,0.06868636908925102,0.5051933965323769,0.03532940046807198,0.35327604443591554,1.0010577299917713,5.131762752894247
4,22,female,220,135,135,same,valid,clock,5,2,3,0.5614913800454815,1,f,same,0.9889951821642171,0.25825190170055745,0.5059441988096296,0.035331966217199806,0.3533036262369933,1.0010618993346725,4.6857778613075425
4,22,female,221,15,15,same,valid,clock,1,2,3,0.504803723414625,1,f,same,0.8061640834921491,0.2562425924194702,0.5051494580820872,0.03530791232060437,0.3532632156911859,1.0010936504768324,4.4487979145587815
4,22,female,222,75,75,same,valid,clock,3,0,2,0.3360111199563107,1,j,change,0.9982078243792785,0.07173054962721453,0.5054881369396753,0.035370452450479206,0.3532988154574923,1.0010686344248825,4.414488078567956
4,22,female,223,75,75,same,catch,anti,2,1,3,0.5311892438676296,1,j,change,5.038486554513838,0,0.504978835779184,0.03531881675371551,0.3533074748602303,1.0010266202862113,8.67675380163837
4,22,female,224,135,135,same,valid,anti,4,2,3,0.33293222125212196,1,f,same,0.9050493297309004,0.2543027393421923,0.5060160397797517,0.03529572501338407,0.35331164420222194,1.0010712001740103,4.367108959017969
4,22,female,225,45,45,same,valid,anti,3,1,4,0.34155730696420505,1,f,same,0.9263514601361749,0.07767149498452336,0.5057071877536146,0.035332928372554306,0.3532940046789008,1.0010667101141735,4.402609623225544
4,22,female,226,45,45,same,valid,clock,1,1,3,0.5068460595548459,1,f,same,1.2301524888725908,0.07049321652088442,0.5054807604110465,0.03530181866699422,0.35332671797732473,1.0010365625630584,4.849826395014134
4,22,female,227,45,95,change,catch,clock,2,2,1,0.2857256483166566,0,j,change,0.8850951796630397,0,0.5053447757181857,0.03532042034657934,0.3533308873193164,1.001035600407704,4.2846480337702815
4,22,female,228,75,25,change,valid,anti,3,1,2,0.5198155996249625,1,j,change,1.9941064747317796,0.06362686331617357,0.5049704970942912,0.03533453196632763,0.35326642287782306,1.0010788974204843,5.638501050994819
4,22,female,229,15,15,same,valid,anti,4,1,1,0.333355890542407,0,f,same,1.002981720963362,0.057039623505327985,0.5054637623243252,0.035328438311807986,0.3532978533021378,1.0010519570569159,4.507819119832675
4,22,female,230,105,105,same,valid,clock,3,0,2,0.6227999504808395,1,f,same,1.7691297428673352,0.06855915583490196,0.5058992982030759,0.035326193281434826,0.35328726958778134,1.0011144971877002,5.497796342396214
4,22,female,231,45,95,change,valid,clock,1,0,2,0.21327018169995426,1,j,change,2.2127387509553955,0.0655828057480628,0.5056215558834083,0.035317854597451515,0.3533119649209766,1.0010596543042993,5.497695636751814
4,22,female,232,75,125,change,catch,clock,2,0,1,0.6696979921089223,0,f,same,1.0868579774587488,0,0.5056468926532034,0.03529412142052024,0.3533356980988174,1.001049391307788,4.837870646485499
4,22,female,233,105,155,change,valid,clock,5,0,2,0.17687952333471912,1,j,change,1.093632196044382,0.06272487917788255,0.5060096254073869,0.03532074106442451,0.35331260635848594,1.0010465048399055,4.331962047442175
4,22,female,234,15,15,same,catch,clock,1,0,1,0.1546328766080478,0,j,change,1.36668432757142,0,0.5056924346963569,0.035313364536705194,0.35330138120662014,1.0010651065204001,4.614727783660783
4,22,female,235,135,135,same,valid,clock,1,2,2,0.5743858719606578,1,f,same,0.9102016742799606,0.2522439056614295,0.5051831335358656,0.03534287064940145,0.35326642287782306,1.0010763316713565,4.613689296786106
4,22,female,236,45,45,same,catch,anti,1,2,3,0.6154830759996912,1,f,same,0.8301592881070974,0,0.5052395800130398,0.035366924545087386,0.3533215864799786,1.0010157158540096,4.5792575877212585
4,22,female,237,165,115,change,valid,anti,5,0,1,0.17890903073021036,0,j,change,1.258854559881911,0.05979853096818316,0.5052658789390989,0.035322344658197835,0.3533212657612239,1.001049391307788,4.532062881374259
4,22,female,238,75,25,change,valid,anti,5,1,2,1.1687412884803052,1,f,same,4.7180290045080255,0.06779274608773828,0.5050323957875662,0.035321703221598,0.3533466025319285,1.001019564476337,9.006874603512188
4,22,female,239,135,185,change,valid,clock,1,0,1,0.12862452124682022,0,j,change,1.5484535269106345,0.062493476956583416,0.5053351541600932,0.035351209334294253,0.35330106048877497,1.001030789628203,4.790753874761322
4,22,female,240,15,15,same,valid,clock,3,2,2,0.11932881291158992,1,j,change,2.8547000350863527,0.25019740092688625,0.5056077649824147,0.03529668716873857,0.3533055505486118,1.0010827460437213,6.109842277000098
4,22,female,241,15,325,change,valid,anti,4,2,3,0.11659340384358075,1,j,change,1.3698193520331188,0.248126094619799,0.5057033391294681,0.035364358796869055,0.3533033055191481,1.0010198851960013,4.614744140309995
4,22,female,242,75,125,change,valid,clock,5,0,3,0.10100006478478463,1,j,change,1.4161391379984707,0.06504509454256208,0.5053653017102988,0.035321382502843335,0.3532895146181545,1.0010712001740103,4.637841974240473
4,22,female,243,15,65,change,valid,clock,2,2,4,0.13890355285730038,1,j,change,1.3708780441802446,0.24613795387591753,0.505417899562417,0.03533389052790881,0.3532686679081962,1.0010865946678678,4.590807947920439
4,22,female,244,105,55,change,valid,anti,5,2,3,0.11887307175948081,1,j,change,1.1940469493565615,0.24421170051578522,0.5054541407662327,0.035316251004587684,0.353299136176247,1.0010737659231381,4.425860119217759
4,22,female,245,165,115,change,catch,anti,2,0,1,0.4157536342236199,0,f,same,1.0138993033342558,0,0.50550192783885,0.03534254993064678,0.353298174019983,1.0010509949015614,4.51982490046521
4,22,female,246,45,95,change,valid,clock,2,2,2,0.18557292211153253,1,j,change,1.4555779060792702,0.24215913403925043,0.5060817870953542,0.03537943257197185,0.35329657042711915,1.0010381661568317,4.6971107742856475
4,22,female,247,75,75,same,valid,anti,4,0,2,0.1391463368481709,1,j,change,1.908456002857747,0.06235845486583269,0.5057867259693012,0.0353460778360386,0.3532802137779072,1.0010583714292807,5.1207951384185435
4,22,female,248,165,165,same,catch,anti,4,0,1,0.29007202698630863,0,f,same,3.448744675269154,0,0.5054297661508826,0.03532587256268016,0.35332383150944224,1.0010375247193224,6.816594173569683
4,22,female,249,105,155,change,catch,clock,1,1,1,0.4142347108627291,0,f,same,1.123549469883983,0,0.5056703051122895,0.035309515913468204,0.3533353773800627,1.0010375247193224,4.6499349903369875
4,22,female,250,165,165,same,catch,anti,5,0,1,0.26077598510346434,0,j,change,0.7191977031416172,0,0.5056767194846543,0.03533100406093581,0.35330330551823863,1.0010516363381612,4.132058776175654
4,22,female,251,135,185,change,valid,clock,3,2,2,0.11260302283699275,1,j,change,1.1312207384353314,0.240111584047924,0.5091263689073457,0.03532875903056265,0.35331453067010443,1.0010760109535113,4.335107014180721
4,22,female,252,75,125,change,valid,clock,1,0,1,0.29216471594827453,0,f,same,0.6555244743585718,0.05959540587345158,0.5050753720815919,0.03529476285712008,0.3533373016916812,1.0010596543042993,4.0720766979320615
4,22,female,253,75,125,change,catch,clock,4,0,1,0.1956316200330548,0,j,change,1.3504145929537117,0,0.5049374630771126,0.035317533879606344,0.35335109259267483,1.0010330346594856,4.649198620397328
4,22,female,254,135,85,change,valid,anti,2,1,2,0.08932686935713718,1,j,change,1.0337306181718304,0.061932451263998434,0.5057395803332838,0.03529764932500257,0.3533052298307666,1.0010843496374946,4.26113005845491
4,22,female,255,75,125,change,valid,clock,4,2,3,0.12444844416222622,1,j,change,0.9603758565590397,0.2380199597803963,0.5055564500034961,0.03529764932500257,0.35342966865209746,1.0009592693768354,4.166715308990206
4,22,female,256,45,45,same,valid,anti,4,2,3,0.2935139791625261,1,f,same,0.7567047830052616,0.2360078030819623,0.5056375918138656,0.035320741065334005,0.35331068204686744,1.0010558056810623,4.213744203812894
4,22,female,257,45,45,same,valid,anti,4,1,3,0.4866828009517121,1,f,same,1.223645108175333,0.05625919977616789,0.5056953211642394,0.03532234465910733,0.3532840624020537,1.001083066762476,4.873732119135639
4,22,female,258,75,75,same,valid,anti,5,0,2,0.27488439697481226,1,f,same,0.8266451742429126,0.062149356368641384,0.5054211067490542,0.03533934274491912,0.35330202264412947,1.0010660686757547,4.260852316133423
4,22,female,259,165,165,same,catch,anti,1,2,1,0.10627267881500302,0,j,change,1.57708151191855,0,0.5054429156143669,0.03530374297861272,0.3533196621674506,1.0010612578971632,4.7556175468998845
4,22,female,260,165,165,same,valid,anti,1,0,2,0.35942550315940025,1,f,same,1.3746968407294844,0.059460867931222405,0.5057774251290539,0.035289952078528586,0.35335013043550134,1.001055164243553,4.850120173265168
4,22,female,261,105,105,same,valid,anti,5,2,3,0.3589383315829764,1,f,same,0.8062182849380406,0.23405122505461923,0.5055250195800909,0.03530662944649521,0.35332190719782375,1.0010343175326852,4.296778894662566
4,22,female,262,135,185,change,catch,clock,4,0,2,0.20888531679611333,1,j,change,1.2225713422521949,0,0.5051353464623389,0.03532202393944317,0.35329079749226366,1.0010686344248825,4.507832910732759
4,22,female,263,135,135,same,valid,clock,2,0,1,0.15999785759959195,0,j,change,0.9984406660942113,0.05690392149971635,0.505935218688137,0.03531432669296919,0.35331132348437677,1.0010327139398214,4.250058210429415
4,22,female,264,15,15,same,valid,anti,1,1,2,0.2518324258062421,1,f,same,1.2508234450442615,0.05106929755867856,0.5050670333976086,0.035364358796869055,0.3533703357088598,1.0010038492646345,4.601811162161539
4,22,female,265,165,115,change,valid,anti,4,2,2,0.12190354195172404,1,j,change,1.5647925367493372,0.23195672959210561,0.5056231594753626,0.03535409580126725,0.3533007397700203,1.0010692758623918,4.779611468641633
4,22,female,266,165,215,change,valid,clock,3,2,3,0.1077858292401288,1,j,change,1.2156624218487195,0.22985126419833124,0.5051225177176093,0.03534254993064678,0.35329464611550065,1.00103399681484,4.3906131434332565
4,22,female,267,75,75,same,valid,clock,5,1,2,0.10823002452161745,1,j,change,1.5013800522001475,0.04603965740399035,0.5049878158997672,0.03530566729114071,0.3533174171379869,1.0010394490309409,4.660768865150203
4,22,female,268,105,155,change,valid,clock,1,1,1,0.10933939021106198,0,j,change,0.8316352351730529,0.041408649754544447,0.5055955776751944,0.03532779687520815,0.3533090784530941,1.0010439390916872,4.048725817014201
4,22,female,269,135,135,same,valid,clock,3,2,3,0.7952747243580234,1,f,same,1.4108463186948939,0.22769282308471073,0.5059400294676379,0.0353226653769525,0.35331613426296826,1.0010625407712723,5.321847223763143
4,22,female,270,75,25,change,valid,anti,1,1,2,0.11656999138540414,1,j,change,1.4737389183701453,0.04910287945424441,0.5050663919600993,0.0353864883809365,0.35325231125807477,1.0010686344248825,4.696844257116027
4,22,female,271,135,135,same,valid,anti,1,0,2,0.10145837168602156,1,j,change,1.9726468714861767,0.05933352694086241,0.504986533025658,0.03532779687520815,0.3533103613281128,1.0010692758623918,5.1677736804194865
4,22,female,272,105,105,same,valid,anti,1,1,2,0.10991924946756626,1,j,change,1.78304251638383,0.04470216970435453,0.5048681878561183,0.0353480021476571,0.35330683342272096,1.0010641443641362,4.9905974923658505
4,22,female,273,45,45,same,valid,clock,5,1,1,0.22538917600377317,0,f,same,1.2837936393807468,0.0403603037059449,0.505280631995447,0.03528738632940076,0.3533177378558321,1.0010849910740944,4.613585704673824
4,22,female,274,105,105,same,valid,anti,3,0,1,0.07317098984640324,0,j,change,1.2066255334357265,0.05684950499782704,0.5060622232595051,0.03531336453761469,0.35333313234968955,1.00104073190505,4.378852712542539
4,22,female,275,75,75,same,catch,clock,5,2,2,0.28203129059147614,1,f,same,1.8192686460988625,0,0.5058210428614984,0.03531272310010536,0.35334435750155535,1.0010497120265427,5.215625539208304
4,22,female,276,105,105,same,valid,clock,1,0,2,0.12332079751195124,1,j,change,1.3038359870661225,0.05921282522964183,0.5051606832330435,0.03531977890907001,0.3532808552154165,1.0010234131004836,4.50777486066454
4,22,female,277,75,75,same,valid,clock,2,0,1,0.2210206677491442,0,f,same,1.141342938642083,0.05679777662471441,0.5057046220035772,0.03530983663222287,0.35333762241043587,1.0010644650828908,4.449820044785156
4,22,female,278,75,75,same,valid,clock,3,2,2,0.46809234643478703,1,f,same,0.9240730750952935,0.22561070874526423,0.5047726137099744,0.03536788670135138,0.3532744408430517,1.0010442598104419,4.5192334953389945
4,22,female,279,45,355,change,valid,anti,4,0,1,0.09335990593990573,0,j,change,0.990221289429428,0.059098261023971754,0.5056982076312124,0.03531817531620618,0.35330106048786547,1.0010567678364168,4.17880287286971
4,22,female,280,165,115,change,valid,anti,2,1,1,0.08358023321306973,0,j,change,2.036366283749885,0.04734375294704385,0.5054320111821653,0.035293800701765576,0.3533254351023061,1.0010500327452974,5.191785562402401
4,22,female,281,45,45,same,valid,clock,4,1,2,0.11874318072113965,1,f,same,1.1128368267081896,0.054466879912986876,0.5049108434322989,0.03532042034657934,0.3532718750939239,1.0010833874812306,4.319655112030887
4,22,female,282,165,165,same,valid,anti,5,1,2,0.1378865541282721,1,j,change,1.6770831796557104,0.05038886260495962,0.5050131526704718,0.03533902202616446,0.3532612913795674,1.001084349636585,4.861659308313392
4,22,female,283,75,25,change,catch,anti,1,2,1,0.19393726358975982,0,f,same,0.9371532630875663,0,0.5050227742285642,0.03532811759305332,0.3533177378558321,1.00103463825144,4.1897993520206
4,22,female,284,105,155,change,valid,clock,1,2,1,0.11911585575126082,0,j,change,1.6305802633605708,0.2235747766730145,0.5058309851383456,0.03535569939413108,0.3532972118646285,1.0010490705890334,4.827076861499336
4,22,female,285,15,15,same,valid,anti,3,1,1,0.25631286485804594,0,f,same,1.3641134471536134,0.04657678272732513,0.5050551668082335,0.035329721186826646,0.3533305666014712,1.0010323932219762,4.672757968413862
4,22,female,286,15,15,same,catch,anti,2,0,2,0.3112647923444456,1,f,same,1.5649105612001222,0,0.5053867898568569,0.03530534657147655,0.35332543510321557,1.0010481084336789,4.967653603369399
4,22,female,287,45,45,same,valid,clock,4,2,3,0.2808853629803707,1,f,same,1.1280703194806847,0.23103997339990168,0.5051629282634167,0.035332928372554306,0.35330041905126564,1.0010644650828908,4.531615799625797
4,22,female,288,105,105,same,valid,anti,2,0,3,0.16213159854487458,1,j,change,1.218016175763296,0.06141270070780974,0.5054259175285551,0.03529187639014708,0.3533488475613922,1.0010942919143417,4.472801778577377
4,22,female,289,45,355,change,valid,anti,3,0,2,0.15098085374029324,1,j,change,1.4672443664167076,0.05898938164134493,0.5057091120643236,0.035317533879606344,0.35330234336288413,1.001078255982975,4.696861575921503
4,22,female,290,45,45,same,valid,anti,3,2,3,0.1625440426832938,1,j,change,1.7355168284266256,0.22913663301811504,0.5050763342369464,0.03531208166259603,0.3533061919861211,1.0010538813685343,5.002219693534244
4,22,female,291,135,135,same,valid,clock,2,1,1,0.6844799130722095,0,j,change,1.8893742074242255,0.053094561977542976,0.5053883934497208,0.035323627532307,0.35330779557898495,1.001083066762476,5.68644174884048
4,22,female,292,165,165,same,valid,clock,2,1,2,0.45186462595574994,1,f,same,0.9841728570709165,0.05919339948593333,0.5051119340041623,0.035293800701765576,0.35335205474802933,1.0010542020881985,4.57888779915811
4,22,female,293,75,75,same,catch,clock,2,0,2,0.3059575407041848,1,j,change,1.037193096340161,0,0.5050737684887281,0.035332928372554306,0.35326289497243124,1.0010898018535954,4.4256080343866415
4,22,female,294,165,165,same,valid,clock,4,0,1,0.1459038780658375,0,j,change,1.0157100806345625,0.056701639582007635,0.5057007733812497,0.03529540429462941,0.3533280008523434,1.0010586921480353,4.238132930168831
4,22,female,295,135,185,change,valid,clock,2,1,1,0.17264571689884178,0,j,change,1.7434289566581356,0.05562725454834272,0.5050224535107191,0.03535569939413108,0.35329753258338314,1.0010702380177463,4.990866896001535
4,22,female,296,75,75,same,valid,clock,5,0,1,0.5002318795586689,0,j,change,1.2081992996791087,0.058885777650589666,0.5054098815971884,0.03534030490027362,0.3532933632413915,1.001065747957,4.7787881839558395
4,22,female,297,15,15,same,valid,clock,3,1,3,0.24728848447011842,1,f,same,0.8979316215081781,0.061853806669558364,0.5057363731475562,0.035372056043343036,0.35329945689500164,1.001069596580237,4.225749022289165
4,22,female,298,75,75,same,catch,anti,1,2,2,0.19267716015201586,1,j,change,1.8283587738023925,0,0.5057995547149403,0.035321703221598,0.3533093991727583,1.0010410526238047,5.108905457925175
4,22,female,299,75,125,change,valid,clock,4,0,1,0.09555426270344469,0,j,change,1.0715391735338926,0.06109397964443253,0.5060208505583432,0.0353226653769525,0.35331068204595795,1.0010509949015614,4.261926402775316
4,22,female,300,15,15,same,valid,clock,2,1,2,0.13701676524487993,1,j,change,1.9085833281487794,0.05834097055415566,0.5051917929395131,0.03532394825197116,0.3532840624020537,1.0010936504768324,5.120906427778209
4,22,female,301,45,355,change,valid,anti,3,1,1,0.3101984029499363,0,f,same,0.9891343740437151,0.055090665277245265,0.5063653023516963,0.0353358148404368,0.35328630743151734,1.001066710113264,4.414747219208948
4,22,female,302,15,15,same,valid,clock,5,1,2,0.3137750569439959,1,f,same,0.810383457590433,0.060832454419831705,0.5054236724972725,0.03534639855388377,0.3532949668342553,1.0010529192131798,4.225502389675057
4,22,female,303,15,15,same,catch,anti,3,0,2,0.19345778926071944,1,j,change,1.4491571194084827,0,0.5053928835104671,0.035349926459275594,0.3532782894662887,1.0010429769354232,4.7435768079385525
4,22,female,304,165,165,same,valid,anti,2,0,2,0.12079577985605283,1,j,change,1.2325633307018506,0.06320279315576649,0.5060554881683856,0.03530181866699422,0.3533231900719329,1.0010609371784085,4.450118313097846
4,22,female,305,15,15,same,catch,clock,2,2,1,0.29669775285310607,0,f,same,0.707313154145595,0,0.5053171939180174,0.035330683342181146,0.35327508228056104,1.001068634425792,4.131737416123542
4,22,female,306,45,355,change,valid,anti,4,2,2,0.11731822791443847,1,j,change,1.0352825755508093,0.22725647630733736,0.5053543972762782,0.035319458190315345,0.353347564687283,1.0010474669961695,4.2731422534589
4,22,female,307,105,155,change,valid,clock,5,2,3,0.16114795455359854,1,j,change,1.1733567500687059,0.2254398466841146,0.5050930116058225,0.03533998418242845,0.35330779557898495,1.0010535606506892,4.413846641337841
4,22,female,308,45,95,change,valid,clock,1,1,2,0.329990269397058,1,j,change,1.2087089215574451,0.057620596225852694,0.5054278418392641,0.035332928372554306,0.35330394695574796,1.0010516363381612,4.637839408492255
4,22,female,309,165,215,change,valid,clock,3,0,3,0.11017165501652926,1,j,change,2.054871427114449,0.06094494611202733,0.505365622428144,0.0352982907616024,0.3533241522281969,1.0010760109526018,5.273720829840386
4,22,female,310,45,355,change,valid,anti,2,1,2,0.12452445447343052,1,j,change,1.4057529863712261,0.05463441483404835,0.5054451606447401,0.0353104780697322,0.35332639725857007,1.0010577299917713,4.614741895280531
4,22,female,311,135,85,change,valid,anti,3,0,2,0.17750556607097678,1,j,change,1.4710583521864464,0.05869294489253202,0.5051350257435843,0.03534736071105726,0.35330298480039346,1.0010647858016455,4.731915479099371
4,22,female,312,15,65,change,valid,clock,2,0,2,0.3893004421424848,1,j,change,4.9143989187932675,0.05657335800598451,0.5047860838903944,0.03535634083164041,0.3532859867127627,1.0010817838883668,8.358413956647382
4,22,female,313,105,105,same,valid,anti,1,2,3,0.2263561426270826,1,f,same,1.3151124535679628,0.22366379713590362,0.5053136660126256,0.03533324909130897,0.3533235107915971,1.001063823646291,4.614227462621784
4,22,female,314,45,45,same,catch,clock,3,2,2,0.2547047817224666,1,j,change,1.4385002812705352,0,0.5050907665754494,0.035319778909979505,0.3533100406102676,1.0010468255595697,4.755438265194243
4,22,female,315,75,75,same,valid,anti,3,0,1,0.23796455289630103,0,f,same,0.7815694557848474,0.05454300683843549,0.5055615815026613,0.035325231126080325,0.35331549282545893,1.0010420147800687,4.09605843236568
4,22,female,316,105,55,change,catch,anti,1,0,1,0.8748196759588609,0,f,same,0.6027415668650065,0,0.50555131850615,0.035321382502843335,0.3533042676745026,1.0010490705890334,4.602708532846918
4,22,female,317,75,75,same,valid,anti,1,2,1,0.1628714963899256,0,j,change,1.4422908545802784,0.22175453697202102,0.5055218123934537,0.03534094633778295,0.35329945689500164,1.0010477877149242,4.6849006958955215
4,22,female,318,105,55,change,valid,anti,1,1,1,0.2082429174106437,0,j,change,1.6994237969365713,0.05163195834369866,0.5055320753890555,0.035349285021766264,0.3532962497083645,1.0010301481906936,4.990767473231244
4,22,female,319,15,65,change,catch,clock,1,0,1,0.33778918395728397,0,f,same,1.2484026609381544,0,0.5060067389395044,0.03534447424226528,0.35330041905126564,1.0010702380186558,4.7448292141298225
4,22,female,320,15,15,same,valid,clock,4,2,2,0.13185832704130007,1,j,change,1.1848994130205028,0.228331490026501,0.50535792518167,0.03537494251122553,0.35329849473873765,1.0010622200525177,4.402108340031191
4,22,female,321,15,15,same,valid,anti,4,2,2,0.701608852859863,1,f,same,1.316221177819898,0.2266639768215542,0.5056966040392581,0.03531432669296919,0.35328726958778134,1.0010737659222286,5.14486667406527
4,22,female,322,75,125,change,valid,clock,1,1,2,0.13742439860379818,1,j,change,1.3672526409582133,0.05648472725965026,0.505124762748892,0.035326193281434826,0.3533260765407249,1.001029827471939,4.590819173071395
4,22,female,323,165,165,same,valid,clock,5,2,3,0.23138725554053963,1,f,same,0.7554632812461932,0.22504649218227096,0.5050609397439985,0.035351530052139424,0.35329528755301,1.001061899333763,4.095789670166596
4,22,female,324,75,75,same,catch,clock,4,2,2,0.16763705428911635,1,j,change,1.3649652757958393,0,0.5053566423066513,0.035314647411723854,0.35331260635848594,1.0010352796889492,4.602702759912063
4,22,female,325,15,65,change,valid,clock,4,1,2,0.13946384827704605,1,j,change,1.2698240986683231,0.05372986064773316,0.5055327168265649,0.035310157350977533,0.35330009833251097,1.0010712001740103,4.485141748006754
4,22,female,326,135,85,change,valid,anti,5,2,2,0.27920704246753303,1,j,change,1.2923327725029594,0.22346088063393382,0.5051568346098065,0.03535794442450424,0.3532840624011442,1.0010516363381612,4.660795164076262
4,22,female,327,45,95,change,valid,clock,4,1,2,0.15704949137216317,1,j,change,1.1873397609615495,0.05092669436758257,0.5058072519614143,0.03534896430392109,0.3533164549817229,1.001055164243553,4.414812645806705
4,22,female,328,75,125,change,valid,clock,3,0,1,0.13925826764534577,0,j,change,1.225680067786925,0.05638299231204463,0.5051706255098907,0.03531432669296919,0.3532705922189052,1.0011350231789038,4.448829024265251
4,22,female,329,135,135,same,valid,anti,2,2,2,0.4589104932074406,1,f,same,1.066751486049725,0.22175447824377642,0.5058072519614143,0.03537301819960703,0.3532978533021378,1.0010679929873731,4.614867296259035
4,22,female,330,45,355,change,valid,anti,5,2,3,0.14032337416574592,1,j,change,1.1093143741600215,0.22004069419561106,0.505350227935196,0.03534287064940145,0.35327700659127004,1.0010635029275363,4.307791730462668
4,22,female,331,105,55,change,valid,anti,3,2,1,0.13794877354030177,0,j,change,1.872601265299636,0.2182803589316789,0.505773897225481,0.0353104780697322,0.3533110027647126,1.0010564471176622,5.108884290496462
4,22,female,332,75,25,change,catch,anti,3,0,2,0.527517015725607,1,j,change,2.373890233412567,0,0.5058223257365171,0.035332928372554306,0.3533260765398154,1.0010359211264586,5.94585275551799
4,22,female,333,45,45,same,valid,clock,2,2,3,0.318784040272476,1,f,same,0.7540928506050477,0.2244309593628469,0.5054384255545301,0.03533549412168213,0.3532689886260414,1.0010728037668741,4.190092488834125
4,22,female,334,165,115,change,catch,anti,1,0,2,1.062944876808615,1,f,same,5.309557286438576,0,0.5056106514502972,0.03529027279728325,0.3533081162977396,1.0010564471176622,9.513816237213177
4,22,female,335,135,185,change,catch,clock,2,2,1,0.22297224052090314,0,j,change,1.2085979529174438,0,0.5057139228438245,0.035323306813552335,0.3533093991727583,1.0010343175335947,4.520062873677489
4,22,female,336,135,135,same,valid,clock,1,1,1,0.13759277587814722,0,j,change,1.7537419844402393,0.0482136317621879,0.5058874316146103,0.035315609567078354,0.3533119649209766,1.0010538813685343,4.9559092084082295
4,22,female,337,75,75,same,valid,anti,5,2,3,1.038350890539732,1,f,same,1.4479143347753052,0.22287343235904195,0.5056189901342805,0.035349926459275594,0.35330234336288413,1.0010468255595697,5.615661395549978
4,22,female,338,75,75,same,catch,clock,3,1,1,0.42507211358133645,0,f,same,1.0540814971654981,0,0.5052671618132081,0.03534126705653762,0.35330138120752963,1.0010670308320186,4.590705638682266
4,22,female,339,105,55,change,valid,anti,2,2,2,0.7012041059679177,1,j,change,1.7396002178320487,0.2213208196974134,0.5055509977873953,0.035334211247572966,0.3532616120983221,1.0010933297589872,5.57999139191179
4,22,female,340,105,55,change,valid,anti,1,2,3,0.1737550825882863,1,j,change,1.1023518937472545,0.2197479138352486,0.5056465719353582,0.0353075916027592,0.3533071541423851,1.0010699172999011,4.366839234662621
4,22,female,341,105,105,same,valid,clock,1,1,2,0.8167875668941633,1,f,same,1.0907396348557086,0.05281170819122083,0.5057482397351123,0.03533934274491912,0.3533036262369933,1.0010612578962537,5.050744740695336
4,22,female,342,75,125,change,valid,clock,3,1,2,0.784387930973935,1,f,same,3.8207147663342766,0.0501742978660204,0.5049551026004337,0.03535313364591275,0.353287590306536,1.001065747957,7.722749020364972
4,22,female,343,165,165,same,valid,clock,1,2,3,0.35869201968671405,1,f,same,0.7250264432495896,0.21816112385332365,0.5056225180387628,0.03530342225985805,0.35333762241043587,1.0010522777756705,4.2026980132768585
4,22,female,344,165,165,same,catch,anti,3,2,3,0.5853528449979422,1,f,same,1.3973315569801343,0,0.5044547815614351,0.03534287064940145,0.35331902072994126,1.0010256581308568,5.120240615933653
4,22,female,345,135,135,same,valid,clock,3,0,2,0.45528925932649145,1,f,same,0.9987241813496439,0.05836484172095957,0.5052876878053212,0.035328438311807986,0.3533090784540036,1.001067672269528,4.614042728699133
4,22,female,346,45,355,change,valid,anti,5,1,2,1.2238497266516788,1,j,change,1.5577604603977306,0.04765654443127554,0.5055493941945315,0.0353338905288183,0.35332190719782375,1.0010375247193224,5.86288317054732
4,22,female,347,165,115,change,valid,anti,1,2,3,0.2211961008315484,1,j,change,0.9677427631440878,0.2166341328565768,0.5051212348444096,0.03536179304774123,0.35327700659217953,1.0010647858016455,4.24851395029782
4,22,female,348,15,15,same,catch,anti,4,2,3,0.3410316491545018,1,j,change,1.6021629904835208,0,0.5058823001163546,0.03534447424226528,0.3533225486353331,1.0010522777756705,5.073842895345479
4,22,female,349,45,45,same,catch,clock,3,0,3,0.4196670427627396,1,f,same,1.1050542687962661,0,0.5059964759439026,0.03532875903056265,0.35328245880828035,1.0010731244856288,4.685115256648714
4,22,female,350,105,105,same,valid,clock,5,0,1,0.2078340011757973,0,j,change,1.2365386379333358,0.05634901054889274,0.5058364373553559,0.03535088861553959,0.35327861018504336,1.0010817838883668,4.543771676569122
4,22,female,351,45,45,same,valid,anti,3,0,2,0.41474016339998343,1,f,same,1.291276646104052,0.0582861243473094,0.5047174501069094,0.0353367769957913,0.3533138892325951,1.0010689551445466,4.802441181809627
4,22,female,352,135,135,same,valid,clock,5,0,2,0.38381006017243635,1,j,change,1.358987080812767,0.056316440150116054,0.5044977578563703,0.03533613555919146,0.35330779557898495,1.001063823646291,4.84922697192178
4,22,female,353,105,155,change,valid,clock,2,0,1,0.38110095003230526,0,f,same,0.769546356347746,0.05442153962253532,0.5052687654060719,0.03532779687520815,0.3532792516225527,1.0010211680701104,4.260901706800723
4,22,female,354,165,165,same,valid,anti,1,1,1,0.44458367195875326,0,f,same,0.6434022728681157,0.04529353764593347,0.5054438777697214,0.035405090060521616,0.3532212015534242,1.001063823646291,4.201831752297949
4,22,female,355,45,45,same,valid,anti,1,0,1,0.28565958028229943,0,j,change,0.8517106168765167,0.05614364044643805,0.5052864049303025,0.03529444213836541,0.35333409450504405,1.0010186023209826,4.225375064384025
4,22,female,356,45,45,same,catch,anti,4,1,1,0.21623233882746717,0,j,change,0.8969640134473593,0,0.5056497791210859,0.03531304381795053,0.3532949668342553,1.0010577299917713,4.178819229518012
4,22,female,357,105,105,same,valid,clock,3,1,2,0.5070246998229777,1,f,same,0.7848295605062958,0.049510376115213306,0.5057661999780976,0.03534319136906561,0.3532471797607286,1.0010362418452132,4.414132401624556
4,22,female,358,75,25,change,valid,anti,4,1,2,0.39706503981051355,1,j,change,2.7301823157040417,0.04716547833228846,0.5057402217707931,0.03535185077089409,0.35328342096454435,1.0010785767026391,6.204924121182557
4,22,female,359,75,125,change,valid,clock,2,0,2,0.20514990708761616,1,j,change,1.445261350392684,0.05799626586576595,0.5048271358737111,0.03531945819122484,0.3532940046789008,1.001029186035339,4.707502698846838
4,22,female,360,15,15,same,valid,anti,1,2,3,0.34499348620465753,1,f,same,0.6181960347639688,0.21515037783947782,0.5059249556925351,0.0353489643030116,0.3533167757004776,1.001058050710526,4.08484418527496
4,22,female,361,165,115,change,catch,anti,1,0,1,0.2627262750011141,0,j,change,0.7337580075418373,0,0.5054127680641614,0.03531657172334235,0.3532949668351648,1.001087236105377,4.107760492470334
4,22,female,362,135,135,same,valid,clock,4,2,3,0.43016159728176717,1,f,same,0.605331690398998,0.21369464777327662,0.5057113570946967,0.03534511567977461,0.3532661021599779,1.0010833874812306,4.166936604834518
4,22,female,363,75,125,change,valid,clock,3,2,3,0.38771480931063707,1,j,change,0.6225209252852437,0.21212866581821171,0.5055160394585982,0.035318175317115674,0.3533065127048758,1.0010586921480353,4.095703717577635
4,22,female,364,135,185,change,valid,clock,5,0,3,0.4514759149933525,1,j,change,1.0017588208838788,0.056116647409825526,0.5055535635365231,0.03534479496192944,0.3532949668351648,1.0010173194468734,4.532372374837905
4,22,female,365,105,55,change,valid,anti,3,0,2,1.1026716502065028,1,f,same,1.042309199684496,0.054302736304263854,0.50511514118989,0.035357623705749575,0.3533235107915971,1.0010538813694438,5.249914528489171
4,22,female,366,165,165,same,catch,clock,4,2,2,0.9979108389425164,1,j,change,0.8120829455310741,0,0.5054332940562745,0.03531528884832369,0.3533110027656221,1.001068634425792,4.967733141585995
4,22,female,367,15,15,same,valid,clock,2,0,2,0.6824860054430246,1,j,change,0.9270438916255443,0.05245818178412287,0.5056600421166877,0.0353358148395273,0.353296249709274,1.0010574092739262,4.720096677418951
4,22,female,368,15,325,change,catch,anti,1,0,2,0.48644707276980625,1,j,change,0.7568035643380426,0,0.5059018639531132,0.03532651400018949,0.3533138892325951,1.001037845438077,4.296827643891447
4,22,female,369,135,135,same,valid,clock,4,0,2,0.3927067945523959,1,f,same,1.8564556487854134,0.05059739723126189,0.5057645963852337,0.03531272310010536,0.3533305666005617,1.0010288653165844,5.356133005858283
4,22,female,370,45,45,same,catch,clock,5,0,1,0.22048442622508446,0,j,change,0.939942873599648,0,0.5060420179870562,0.03530791232060437,0.35332768013358873,1.001066710113264,4.225889176324017
4,22,female,371,165,215,change,valid,clock,2,1,1,0.28853835056997923,0,f,same,0.9202366390227326,0.04494861758966423,0.5061276498572624,0.035354737237867084,0.3532696300635507,1.0010772938276205,4.309118864091943
4,22,female,372,15,65,change,catch,clock,2,2,1,0.30991841559807654,0,j,change,0.7695492428156285,0,0.5052014144976056,0.03533100406093581,0.3532904767744185,1.001068634425792,4.201853240444507
4,22,female,373,135,135,same,valid,anti,4,0,1,0.41151116838409507,0,j,change,0.6928211628101053,0.04873851714455407,0.5058280986713726,0.03529251782765641,0.35333762241043587,1.0010602957408992,4.249114014825864
4,22,female,374,105,105,same,catch,clock,4,2,2,0.3462834164747619,1,j,change,0.8351548012533385,0,0.5058550390340315,0.035320741065334005,0.3533167756995681,1.001058050710526,4.284675294852605
4,22,female,375,45,45,same,valid,clock,1,2,3,0.2979148799968243,1,f,same,0.8541929789562346,0.2105578384995368,0.5059778742643175,0.03534447424317477,0.353299136176247,1.0010599750221445,4.2140453585916475
4,22,female,376,135,85,change,valid,anti,4,1,1,0.1745280144505159,0,j,change,2.791630078017988,0.04862576833815502,0.5058851865842371,0.035356020112885744,0.3533026640816388,1.0010641443641362,6.039910865882121
4,22,female,377,165,165,same,valid,clock,4,2,3,0.6060350263214787,1,f,same,0.8835098675499466,0.20894293204961084,0.5050683162717178,0.03531753387869685,0.35331068204686744,1.0010577299926808,4.5904580439118945
4,22,female,378,45,45,same,valid,anti,2,1,3,0.521232534466435,1,f,same,0.6449340249737361,0.052581266379915725,0.5051282906524648,0.03529412142052024,0.35334531965690985,1.001047466997079,4.295579407043078
4,22,female,379,135,185,change,valid,clock,1,1,2,0.2409103533736925,1,j,change,2.4843819656080086,0.05031324240665458,0.5059018639531132,0.035322986095707165,0.35331902073085075,1.0010413733434689,5.815830863265546
4,22,female,380,105,55,change,valid,anti,2,1,2,0.760456228644216,1,j,change,1.458569890038234,0.04812206582382861,0.5057735765067264,0.035287707048155426,0.3533318494746709,1.001061899333763,5.297867734359897
4,22,female,381,45,45,same,catch,clock,4,2,1,0.26030517017625243,0,f,same,1.1161357383807626,0,0.5051882650341213,0.03533838058865513,0.35327027150106005,1.001065747957,4.460682142836049
4,22,female,382,75,75,same,valid,anti,5,1,1,0.2668378876442148,0,j,change,1.4086821094815605,0.04606443238446756,0.5060346414593369,0.03533260765379964,0.35330202264412947,1.0010705587374105,4.721122014831963
4,22,female,383,135,185,change,valid,clock,3,1,2,0.15050554875233502,1,j,change,0.9131481161948614,0.04972709831218114,0.505288329241921,0.03528995207761909,0.3533215864790691,1.0010811424508574,4.154848399517505
4,22,female,384,135,185,change,valid,clock,5,1,2,0.24285968111598777,1,j,change,0.9416045167445191,0.04767091211576735,0.5054801189744467,0.03527744405255362,0.3533440367828007,1.001062861490027,4.260795869657159
4,22,female,385,135,185,change,catch,clock,5,1,1,0.2681518718100051,0,f,same,0.6757271813512489,0,0.5055564500044056,0.03530438441612205,0.3533100406093581,1.0010683137061278,4.060628005534454
4,22,female,386,15,15,same,valid,anti,2,2,3,0.2820486093960426,1,f,same,0.7209542789960324,0.20736493822484198,0.5060336793030729,0.035348643584256934,0.353299136176247,1.0010410526238047,4.1201084798640295
4,22,female,387,105,105,same,valid,anti,4,0,1,0.16985450279298675,0,j,change,0.9047914719640175,0.050485114819252,0.5056664564890525,0.035316892442097014,0.35331164420222194,1.0010567678355073,4.1787865162195885
4,22,female,388,105,105,same,catch,clock,3,0,1,0.2510020853123933,0,j,change,1.3704239066219088,0,0.5051484959258232,0.03529412142052024,0.3533299251639619,1.0010737659231381,4.696524821375533
4,22,female,389,135,135,same,valid,anti,1,2,2,0.4117642153714769,1,f,same,0.7726281415189078,0.20583735737787884,0.5056914725410024,0.03535730298699491,0.35327764802877937,1.0010497120265427,4.285079721025795
4,22,female,390,45,45,same,catch,anti,5,2,1,0.20897896663154825,0,j,change,1.144880464965354,0,0.5052415043246583,0.03534222921280161,0.3532548770081121,1.0011007062867066,4.4138892969140215
4,22,female,391,15,65,change,valid,clock,1,0,1,0.36578342898155825,0,j,change,0.7579873367458276,0.05217660365234311,0.5057511262039043,0.03530502585363138,0.35333024588271655,1.0010500327462069,4.202043747302014
4,22,female,392,75,25,change,valid,anti,3,2,3,0.21191033477225574,1,j,change,1.251426075321433,0.2043440108324469,0.5053178353546173,0.03538360191305401,0.3532484626357473,1.0010837081999853,4.5432803356507065
4,22,female,393,165,165,same,valid,clock,5,0,2,0.20938339280473883,1,j,change,1.176153095671907,0.05378903065316987,0.5053601702120432,0.03529925291877589,0.35331164420313144,1.0010833874812306,4.449467895746238
4,22,female,394,135,85,change,valid,anti,1,1,2,0.25359637818837655,1,f,same,1.3248757696446773,0.04572743534469187,0.5053768475800098,0.03534158777529228,0.353282779527035,1.0010635029275363,4.661769186509446
4,22,female,395,105,105,same,valid,anti,2,2,3,0.241090276516843,1,f,same,0.7071297030979622,0.2027437392895815,0.50505228034217,0.03529540429462941,0.35336327989898564,1.0010118672298631,4.060811135863332
4,22,female,396,45,45,same,catch,clock,4,1,3,0.1938192391407938,1,j,change,1.5431610283258124,0,0.5050663919610088,0.03530662944649521,0.35332928372554306,1.001054202087289,4.801832457877936
4,22,female,397,45,95,change,valid,clock,2,1,2,0.20337440883577074,1,j,change,1.0886982608717517,0.04385598758065684,0.5061555523770949,0.03533966346367379,0.3533093991727583,1.0010500327462069,4.367969126343269
4,22,female,398,75,125,change,catch,clock,4,0,2,0.16403057346451533,1,j,change,1.03464081760103,0,0.5050256606955372,0.0353226653769525,0.3532696300635507,1.0010558056801528,4.260601514176415
4,22,female,399,15,65,change,valid,clock,5,1,1,0.364446353076346,0,j,change,1.0897107695382147,0.041928401205674926,0.5057726143504624,0.035285462017782265,0.3533587898391488,1.0010400904684502,4.556131209834348
4,22,female,400,105,105,same,catch,anti,1,1,1,0.1900427774480704,0,j,change,0.8959842180784108,0,0.5051517031124604,0.03535441651911242,0.3532895146181545,1.0010708794552556,4.130856722807948
4,22,female,401,45,355,change,valid,anti,2,2,1,0.24710214695460309,0,j,change,2.2282778885683,0.20114382735504593,0.5080102681276912,0.035322023940352665,0.3532179943676965,1.0011193079662917,5.535668079324751
4,22,female,402,15,65,change,valid,clock,1,2,2,0.25151395222201245,1,j,change,0.6543843196823218,0.2066890299152237,0.5046670972851643,0.035322986095707165,0.3533167757004776,1.0010394490309409,3.9661824670829446
4,22,female,403,45,355,change,valid,anti,1,1,1,0.11539680269197561,0,j,change,0.9972812683008669,0.04508445886048407,0.5044560644355442,0.035325231126080325,0.353340829597073,1.001034958971104,4.1771761880545455
4,22,female,404,105,55,change,catch,anti,3,1,2,0.4550262700622625,1,f,same,1.001886787611511,0,0.5059387465926193,0.035329721186826646,0.35331132348437677,1.00105901286679,4.532843189764208
4,22,female,405,75,75,same,valid,anti,2,1,2,0.516003217448997,1,f,same,1.1427069549117732,0.048391307745931256,0.5050163598561994,0.03534479496101994,0.3533042676745026,1.0010404111872049,4.731858391185597
4,22,female,406,135,85,change,valid,anti,5,1,2,0.11852926140363707,1,j,change,1.024876539368961,0.04656808066840673,0.5053390027824207,0.035333569810063636,0.3532651400037139,1.0010798595758388,4.213836891492065
4,22,female,407,45,45,same,catch,anti,1,1,1,0.20822271213819477,0,f,same,0.9065849304588482,0,0.5052886499606757,0.03534479496101994,0.35329111821101833,1.0010420147800687,4.225685520003026
4,22,female,408,15,325,change,valid,anti,2,0,1,0.13524543633411668,0,j,change,0.873981317498874,0.05204308506414068,0.5055166808951981,0.03533549412168213,0.3532962497083645,1.0010583714292807,4.10794554711083
4,22,female,409,135,135,same,catch,anti,3,0,2,0.12355812928672094,1,j,change,1.115000073765259,0,0.5054653659180985,0.035355057957531244,0.35330202264412947,1.00103399681484,4.284836295597415
4,22,female,410,45,355,change,valid,anti,4,1,2,0.13986346367073565,1,j,change,1.2240585144700162,0.04482254565401583,0.504900580436697,0.03534126705653762,0.353286628150272,1.0010747280784926,4.413510207510626
4,22,female,411,135,85,change,catch,anti,4,1,2,0.14464954756203952,1,j,change,1.2848209011035578,0,0.5055487527579317,0.03530470513487671,0.3533187000120961,1.0010554849613982,4.472825191035554
4,22,female,412,75,75,same,catch,anti,5,2,2,0.08577715572573652,1,j,change,0.9329912976209016,0,0.5059589518659777,0.03531881675371551,0.35330971989060345,1.0010516363381612,4.084984660029477
4,22,female,413,105,105,same,valid,anti,4,2,2,0.11695421228614578,1,j,change,1.1418519190838197,0.20530485638933277,0.5053107795447431,0.03526589818193315,0.35338284373483475,1.001059975023054,4.307791409744823
4,22,female,414,105,105,same,valid,anti,5,0,1,0.4940737614324462,0,f,same,0.8057564501323213,0.05363012208006013,0.5051565138910519,0.03531496813047852,0.35330234336288413,1.0010843496374946,4.413290515260087
4,22,female,415,45,45,same,catch,anti,4,2,2,0.06682268558233773,1,j,change,2.1381027184752384,0,0.5060538845764313,0.035331966217199806,0.3533164549817229,1.0010618993346725,5.238855509208406
4,22,female,416,165,165,same,valid,anti,5,0,2,0.35614326885479386,1,j,change,1.0952547115166453,0.05516727303204927,0.5060125118752694,0.03535569939413108,0.35331356851384044,1.001058050710526,4.462154241278768
4,22,female,417,45,355,change,valid,anti,1,0,1,0.09848563084415218,0,j,change,0.9849817094172977,0.053527428400842514,0.5051481752070686,0.0353226653769525,0.3533318494755804,1.0010243752567476,4.130833310348862
4,22,female,418,75,75,same,valid,anti,1,1,2,0.08633713042763702,1,j,change,4.2919103860867835,0.043038525760462853,0.5057424668002568,0.035349285021766264,0.35333601881757204,1.0010477877158337,7.45286141941142
4,22,female,419,75,125,change,valid,clock,5,1,2,0.07003532394810463,1,j,change,1.3726551460267729,0.04126888427616221,0.5055756931205906,0.03531817531620618,0.353289514617245,1.0010875568232223,4.496829696491659
4,22,female,420,165,215,change,valid,clock,5,0,2,0.08362994459912443,1,j,change,1.010081468943099,0.055037964795075,0.5052010937788509,0.035330362624335976,0.3532869488690267,1.0010635029275363,4.142659488557001
4,22,female,421,135,135,same,valid,anti,3,0,3,0.6593246692264074,1,f,same,0.8843543196626342,0.0534283493211713,0.5058204014239891,0.03532875903056265,0.35332479366570624,1.0010593335855447,4.614846770266922
4,22,female,422,15,15,same,valid,anti,3,0,3,0.35533890656734,1,f,same,0.7384802684282477,0.05177053580921892,0.505362735961171,0.035309515913468204,0.3532968911458738,1.0010747280784926,4.142822092893766
4,22,female,423,165,165,same,valid,anti,3,0,2,0.7167894270614852,1,f,same,1.5141651790672768,0.050081235496201304,0.5057585027316236,0.035317533879606344,0.3533308873193164,1.0010397697496956,5.309811937017912
4,22,female,424,105,105,same,valid,clock,2,1,2,0.12027429138834123,1,j,change,1.1857008888400742,0.0394939944871211,0.5051642111375259,0.035356020112885744,0.35327700659217953,1.001070558736501,4.354846282774815
4,22,female,425,15,15,same,catch,clock,4,2,2,0.06150837813220278,1,j,change,1.7460309467805928,0,0.5053819790773559,0.035310798788486863,0.3533286422898527,1.0010615786159178,4.873618905464355
4,22,female,426,75,75,same,valid,clock,1,2,2,0.18061525376197096,1,j,change,7.320364541606978,0.20394678046778064,0.5050971809478142,0.035316571722432855,0.3533244729469516,1.0010638236453815,10.549895798521902
4,22,female,427,135,135,same,valid,anti,3,1,1,0.12395229246521922,0,j,change,1.4750936337995881,0.037805043536515315,0.5050003239257421,0.03532587256268016,0.3532564806000664,1.0010894811348408,4.6495142075136755
4,22,female,428,135,135,same,catch,anti,5,2,1,0.837572698891563,0,f,same,1.4041833894698357,0,0.5050105869213439,0.03530342225985805,0.3532959289896098,1.0010638236453815,5.320659282014276
4,22,female,429,75,25,change,valid,anti,2,0,2,0.6186848099332565,1,f,same,0.6456812993474159,0.048424925697165,0.5052841598999294,0.035352171489648754,0.35329111821101833,1.0010731244856288,4.331807140350975
4,22,female,430,135,85,change,valid,anti,2,0,2,0.11635575135096587,1,j,change,1.9366388304288193,0.04686253441651145,0.5049724214059097,0.03533036262342648,0.3532802137779072,1.00105901286679,5.084587289665251
4,22,female,431,15,325,change,catch,anti,3,1,2,0.08517163898068247,1,j,change,1.4943290534502012,0,0.5056077649824147,0.035364358796869055,0.35334339534620085,1.0010631822087817,4.637694122960056
4,22,female,432,165,215,change,valid,clock,4,2,2,0.096935918496456,1,j,change,1.2825935103228403,0.20248727373055253,0.5058399652589287,0.03532202393944317,0.35331549282545893,1.0010593335855447,4.414756199330441
4,22,female,433,165,215,change,valid,clock,1,2,3,0.10717999177722959,1,j,change,1.226179747389324,0.20102548367488898,0.5048034026967798,0.03533228693595447,0.3532728372501879,1.0010535606497797,4.401388647459498
4,22,female,434,135,135,same,catch,clock,2,0,3,0.09825054409884615,1,j,change,1.8630563585993514,0,0.505804686211377,0.035316251004587684,0.353287590306536,1.0010439390916872,5.026857297535571
4,22,female,435,105,55,change,catch,anti,5,1,1,0.2582509674475659,0,f,same,0.8314713479612692,0,0.5057828773469737,0.03530630872774054,0.35336712852222263,1.001045542684551,4.155120048184472
4,22,female,436,15,325,change,catch,anti,2,1,3,0.08671397480065934,1,j,change,1.267686509098894,0,0.506039772956683,0.03529957363662106,0.35333986743989954,1.001058050710526,4.426117976983733
4,22,female,437,135,85,change,valid,anti,3,2,4,0.12957737625220034,1,j,change,0.9081968622176646,0.19953215610765146,0.5056581178050692,0.03530374297861272,0.3533466025319285,1.0010574092739262,4.096628028625673
4,22,female,438,105,105,same,valid,anti,3,1,2,0.03927937092976208,1,j,change,1.0986299542209963,0.040774055276580456,0.5052055838395972,0.0352851412990276,0.35329560827176465,1.0010788974204843,4.201810905587081
4,22,female,439,135,135,same,valid,anti,5,0,2,0.10814054402817419,1,j,change,1.416798214751907,0.045362346708887724,0.5055574121597601,0.03530598800898588,0.35332671797732473,1.0010397697496956,4.5668454566039145
4,22,female,440,105,155,change,valid,clock,1,0,2,0.08556612287793541,1,j,change,0.9577472467908592,0.04389613724811847,0.5058274572338632,0.035359548018277565,0.35331164420313144,1.0010689551436371,4.072696967734373
4,22,female,441,75,75,same,valid,clock,3,1,1,0.11688461634730629,0,f,same,0.918579806658272,0.03907298472323345,0.5055400933551937,0.03530438441612205,0.3533081162977396,1.0010599750221445,4.107549780339468
4,22,female,442,15,325,change,valid,anti,1,1,2,0.10063027622254594,1,j,change,2.148007792179669,0.0419642609143876,0.5059451609658936,0.035329400467162486,0.3533074748602303,1.001083066762476,5.285931228948357
4,22,female,443,105,105,same,catch,anti,3,0,2,0.270303572998273,1,f,same,1.0159618447478351,0,0.5057389388957745,0.035320420347488835,0.35330683342363045,1.0010609371784085,4.355856546411815
4,22,female,444,165,165,same,valid,anti,2,1,2,0.1537755957515401,1,f,same,0.8145232934721207,0.040311389270398124,0.5054288039955281,0.03531977890907001,0.3533100406093581,1.0010137915414816,4.084051689577791
4,22,female,445,105,55,change,valid,anti,2,0,2,0.07251672387246799,1,j,change,1.2120126440104286,0.0423918580036759,0.5057790287228272,0.03531593028583302,0.3533363395354172,1.0010702380177463,4.355895994801358
4,22,female,446,45,95,change,valid,clock,4,0,2,0.040579243475804105,1,j,change,2.6029198864143837,0.04086715786711903,0.5050872386700576,0.0353226653769525,0.3532981740208925,1.0010262995674566,5.73280066247662
4,22,female,447,45,95,change,valid,clock,4,2,2,0.08050806960090995,1,j,change,1.2508718735552975,0.19803885569661955,0.5054172581249077,0.035290914233883086,0.3533382638470357,1.001054202087289,4.390690115900725
4,22,female,448,105,155,change,valid,clock,5,1,1,0.11469603251862281,0,j,change,2.382545466673946,0.03868662611119322,0.505300837267896,0.035326193281434826,0.35332286935408774,1.0010586921480353,5.52089064842221
4,22,female,449,45,95,change,valid,clock,5,1,2,0.051053272002718586,1,j,change,1.1866110882692738,0.041481648326843534,0.5055946155189304,0.03532138250193384,0.3532968911458738,1.001041694061314,4.307777939562584
4,22,female,450,15,65,change,valid,clock,4,0,3,0.33895884474623017,1,f,same,0.9641131905791553,0.03931559637566129,0.505649137684486,0.03533613555919146,0.35331068204686744,1.0018264925120093,4.355508887433643
4,22,female,451,105,105,same,catch,clock,4,1,1,0.03132073849974404,0,j,change,1.11400199743548,0,0.5105452280595273,0.03534736071014777,0.35328342096454435,1.00108338748214,4.2075055853147205
4,22,female,452,105,155,change,valid,clock,3,2,2,0.06930665125491942,1,j,change,1.7171207293904445,0.1965981614786212,0.5050638262109715,0.03534736071014777,0.35327957234130736,1.0010525984944252,4.849714464217868
4,22,female,453,15,15,same,valid,anti,5,0,2,0.10528069613883417,1,j,change,1.2058888427773127,0.0378413780375878,0.5047629921509724,0.035330683342181146,0.35327412012429704,1.001061899333763,4.378300755804958
4,22,female,454,105,105,same,valid,anti,3,2,3,0.5832983215514105,1,f,same,0.5335667309600467,0.19519548769799022,0.5051840956921296,0.03532202393944317,0.35333505666130804,1.0010625407712723,4.225743570073064
4,22,female,455,45,45,same,valid,clock,3,1,2,0.10624509701392526,1,j,change,0.9614762421269916,0.039878172952559354,0.5051577967660705,0.0353095159143777,0.3532378789213908,1.0010750487972473,4.154778482859911
4,22,female,456,105,105,same,valid,clock,1,2,2,0.3864146160449309,1,f,same,0.6298695509103709,0.19381734179102172,0.5053604909298883,0.03531881675371551,0.3532847038386535,1.00108402891874,4.083748289767755
4,22,female,457,105,55,change,valid,anti,5,1,3,0.4772065280349125,1,f,same,1.6428644277511921,0.038330810264895376,0.5059300871907908,0.03529668716964807,0.3533392260032997,1.001072483049029,5.226793602818361
4,22,female,458,105,105,same,valid,anti,1,0,2,0.08560909917196113,1,j,change,1.1539904772225782,0.036439343739229524,0.5059628004892147,0.03541407018292375,0.35323563389101764,1.001049391307788,4.308889550282402
4,22,female,459,75,75,same,valid,clock,2,2,2,0.22573491067032592,1,f,same,0.7890306536437492,0.19233353280758453,0.5052751797793462,0.03534319136906561,0.35329111821101833,1.0010872361044676,4.060854753594867
4,22,female,460,45,95,change,catch,clock,4,2,2,0.17632596300609293,1,f,same,0.953134671670341,0,0.5052030180904694,0.03532491040732566,0.3532718750939239,1.0010461841211509,4.177713712452714
4,22,female,461,135,185,change,valid,clock,5,2,2,0.0802495703974273,1,j,change,1.3887606727139428,0.1908446800147619,0.5061260462643986,0.035325551843925496,0.35328823174404533,1.0010779352651298,4.532893863305617
4,22,female,462,165,165,same,valid,anti,3,1,3,0.18857035828750668,1,f,same,0.9911988397680034,0.036865085927191454,0.5045096244448359,0.035367245264751546,0.353286628150272,1.0010198851950918,4.225188406150664
4,22,female,463,105,105,same,catch,clock,2,0,1,0.08443623119728727,0,j,change,0.8476647515490185,0,0.5049737042809284,0.035329721186826646,0.3533129270763311,1.001062861490027,4.02472836736888
4,22,female,464,165,165,same,valid,clock,4,1,1,0.10306324763496377,0,j,change,1.210008473385642,0.035457636415533456,0.5060615818229053,0.035326514001098985,0.3533007397700203,1.0010442598095324,4.367137502974401
4,22,female,465,45,355,change,valid,anti,3,2,2,0.08548979184706695,1,j,change,1.0065077014160124,0.1893152687698666,0.5058341923240732,0.03532138250193384,0.3534348001503531,1.0009461199142606,4.143678732314584
4,22,female,466,165,215,change,valid,clock,2,2,2,0.14591798968467629,1,j,change,0.9230342675018619,0.1877972470498212,0.5054746667574364,0.035314647411723854,0.3532978533021378,1.0010420147800687,4.107854142305769
4,22,female,467,15,325,change,valid,anti,5,0,1,0.0800019756270558,0,j,change,0.7450229281739666,0.03508432937298761,0.5052748590596821,0.03530598800898588,0.3533353773800627,1.0010442598104419,3.8835348836018966
4,22,female,468,165,115,change,catch,anti,5,0,2,0.08670980545866769,1,j,change,1.286996335468757,0,0.5059162962897972,0.035350888614630094,0.3532831002457897,1.001091726165214,4.4148447176685295
4,22,female,469,15,65,change,valid,clock,3,2,2,0.06493461509580811,1,j,change,1.2567333269616938,0.18632930137720555,0.5047896117957862,0.0353226653769525,0.353298174019983,1.0010609371784085,4.413390258749132
4,22,female,470,165,215,change,catch,clock,1,2,1,0.17298856509842153,0,f,same,0.6370000878769133,0,0.5055250195800909,0.035319137472470175,0.35328630743151734,1.0010859532303584,3.8487577605883416
4,22,female,471,165,165,same,catch,anti,1,0,2,0.14393274145731993,1,j,change,1.4732668205688242,0,0.5057466361422485,0.0353002150732209,0.35330330551823863,1.0010805010142576,4.684944634345811
4,22,female,472,165,165,same,valid,anti,2,2,2,0.17165726212806476,1,f,same,0.6763230765382104,0.1848964317522654,0.5053877520122114,0.03540156215603929,0.3532850245574082,1.0010782559838844,3.931481995819013
4,22,female,473,15,325,change,catch,anti,5,1,2,0.14864890869102965,1,j,change,1.1129878851743342,0,0.5049175785234183,0.03534832286550227,0.35326578144031373,1.0010612578971632,4.307477105501675
4,22,female,474,135,135,same,valid,anti,2,1,1,0.08571365344050719,0,j,change,0.6958346349165367,0.03800205238365162,0.5058992982039854,0.035315930286742514,0.3532808552154165,1.001075369516002,3.861080731930997
4,22,female,475,105,105,same,valid,clock,4,0,1,0.08352057955107739,0,j,change,0.9861953086565336,0.036414842479039033,0.5052245062370275,0.03530695016434038,0.3533193414496054,1.0010352796889492,4.131595658496735
4,22,female,476,105,105,same,catch,anti,3,0,2,0.07288490884184284,1,j,change,0.9533331964939862,0,0.5050234156660736,0.035638893931718485,0.35310157350977533,1.0010631822087817,4.083842581040699
4,22,female,477,105,155,change,catch,clock,2,0,1,0.2002118025729942,0,f,same,0.8153606897758436,0,0.5053720368005088,0.0353226653769525,0.3533052298307666,1.0010384868755864,4.084521542348739
4,22,female,478,105,155,change,catch,clock,3,1,1,0.04641952945439698,0,j,change,1.0663570021533815,0,0.5054567065153606,0.035321703221598,0.3532734786876972,1.0010923676027232,4.2140386235014375
4,22,female,479,165,215,change,catch,clock,3,2,1,1.5971023714573676,0,f,same,2.799969082725511,0,0.5054563857966059,0.03534575711728394,0.35328791102529067,1.0010381661559222,7.535005795385587
4,22,female,480,15,325,change,valid,anti,3,0,2,0.09932206499161111,1,j,change,1.9065474063800139,0.037747915834110246,0.5057710107575986,0.035310157350977533,0.3533061919861211,1.0010625407712723,5.121047223250571
