subject,age,gender,ntrial,memory_ori,test_ori,type,trial_type,which_change,trial,quest,pas,pas_rt,vis,test_key,test,test_rt,contrast,fix_dur,target_dur,mask_dur,retention_dur,trial_dur
5,22,male,1,165,165,same,valid,anti,4,1,2,1.3170494373262045,1,f,same,3.309986504030803,0.2,0.5039528949623673,0.03533230616858418,0.3533217787994545,1.0010731348106674,8.31586854002353
5,22,male,2,165,165,same,catch,clock,4,0,1,1.3257422783040056,0,j,change,1.2679289845177664,0,0.5,0.035300554720379296,0.35332081663409554,1.0010779456360979,6.263385320182806
5,22,male,3,75,75,same,valid,anti,3,2,2,0.5882096929794898,1,f,same,2.4528693046240733,0.2,0.4994900524957302,0.03536052967820069,0.353304459827541,1.0010612681080602,6.662610713131471
5,22,male,4,15,15,same,valid,anti,1,0,2,1.1915343582741116,1,f,same,3.094919511682292,0.2,0.5005577350380008,0.03530761059755605,0.35333300405864065,1.0010442698576298,7.912999427832801
5,22,male,5,165,165,same,valid,clock,2,1,1,1.1212802697141342,0,j,change,1.008330746178217,0.09338226537841544,0.49964207458151577,0.03532364668262744,0.35328136786529285,1.0011003961553797,5.708936397037633
5,22,male,6,75,125,change,catch,clock,4,0,1,1.0284483355826524,0,j,change,0.62724216541028,0,0.5004143724372625,0.03532364668262744,0.3532954796201011,1.0010840393488252,5.332907521822108
5,22,male,7,45,95,change,valid,clock,5,0,1,0.5184328383102184,0,j,change,1.9508833958529976,0.0723357464867447,0.5006177099958222,0.03535475668786603,0.3532996490025653,1.001066078933036,6.051270891811328
5,22,male,8,135,185,change,catch,clock,1,0,1,1.2764127149475826,0,j,change,2.464076603736885,0,0.5006161063870422,0.03529702678133617,0.3533259481814639,1.0010619095514812,7.429917818271406
5,22,male,9,45,45,same,valid,clock,1,2,1,0.5304159632173651,0,j,change,1.214830299733876,0.11397766455402543,0.5001773591002348,0.03535443596592813,0.3532794435350297,1.0010943024431072,5.380246365582025
5,22,male,10,15,15,same,valid,anti,3,1,2,1.0906628932689273,1,f,same,2.348329745526371,0.19541626699530124,0.49993489349481024,0.03535058730540186,0.3533102328183304,1.001071210480859,7.099072857707142
5,22,male,11,15,65,change,valid,clock,2,0,2,1.0427352044666804,1,f,same,2.4561044244201184,0.15406686854268764,0.500248880039635,0.03535219091418185,0.3532650110587383,1.0010949438865282,7.158901887382854
5,22,male,12,15,325,change,valid,anti,2,2,1,1.0290368599034991,0,j,change,1.0620513103403937,0.24043453680453014,0.49915104965793944,0.03529702678133617,0.3533031769406989,1.0010949438865282,5.791409982398818
5,22,male,13,105,105,same,catch,anti,4,1,2,1.8891412612315435,1,j,change,2.040543392362906,0,0.49981526430019585,0.03534160709796197,0.3533121571481388,1.0010702483155,7.616950206031561
5,22,male,14,105,155,change,valid,clock,3,1,2,1.5191041088296515,1,j,change,1.1378372067961209,0.15097428254442063,0.5008056529122769,0.035307931319493946,0.3533355698327796,1.001066078933036,6.381220076665159
5,22,male,15,165,165,same,valid,clock,1,2,1,1.1280237641949498,0,f,same,2.4029816855077115,0.332848985993321,0.5003973741872869,0.03531177998002022,0.35329387601177586,1.0010891708961935,7.240776364606518
5,22,male,16,135,135,same,valid,clock,5,2,1,1.4908575071972336,0,f,same,1.6081528097788578,0.4116764278457769,0.500398015630708,0.03532492956946953,0.35331793013938295,1.0010494014049982,6.734990545124219
5,22,male,17,75,75,same,valid,anti,4,2,2,1.308697523515093,1,f,same,2.4830187481074972,0.48354102056059306,0.4993402754616909,0.03529734750327407,0.353316967974024,1.00107922852294,7.416592793767904
5,22,male,18,75,125,change,valid,clock,4,1,2,1.511213072103601,1,j,change,2.1362637461320446,0.11732462428755351,0.5000638236188024,0.0353226845172685,0.3532476920868248,1.001093981721624,7.322870856917234
5,22,male,19,105,155,change,catch,clock,3,2,2,0.6574887875694913,1,j,change,1.3590572449752472,0,0.5003143072667626,0.03535347380056919,0.3533076670446462,1.00103689325897,5.5808648453094065
5,22,male,20,75,125,change,valid,clock,3,1,1,0.5188385512615241,0,j,change,1.8120266147698203,0.09070231467636285,0.4998778050321562,0.035315307918608596,0.3532845750823981,1.001095264608466,5.992173749057201
5,22,male,21,15,65,change,catch,clock,4,2,1,0.5596750832592079,0,j,change,1.8984960718003094,0,0.49975625150727865,0.03531338358834546,0.3533304382854112,1.0010638338812896,6.180626933951771
5,22,male,22,105,55,change,valid,anti,5,2,1,0.5663258891686382,0,f,same,1.8317865994772546,0.4617758633080117,0.5002251466339658,0.035327495343153714,0.3533330040590954,1.0010638338812896,6.004290614913316
5,22,male,23,75,25,change,valid,anti,3,0,2,0.5556375177679911,1,f,same,1.163222970857987,0.09412333650666384,0.49994483586760907,0.03535187019224395,0.3533156850871819,1.0010340067633479,5.473743476520212
5,22,male,24,45,45,same,valid,anti,3,1,2,0.4714143955293366,1,f,same,1.0359955586459364,0.12840774819981143,0.5003845453193208,0.035361171122076485,0.3533115157051725,1.0010619095514812,5.203983812534716
5,22,male,25,45,45,same,valid,clock,3,2,2,0.37908022147757947,1,f,same,0.9097226142152977,0.5147403366790579,0.49970269098321296,0.035297668225211964,0.353328834677086,1.001070569037438,5.0028643655100495
5,22,male,26,15,325,change,valid,anti,5,1,1,0.5936497744683038,0,j,change,1.6328435699147121,0.10939219715141596,0.4997668353239533,0.03535700173915757,0.3532775192047666,1.0010920573909061,5.979840396052623
5,22,male,27,15,15,same,valid,clock,1,2,2,0.4444378518319354,1,f,same,1.5118881912835604,0.4989736166985666,0.4999271961737577,0.03530568626774766,0.3533211373564882,1.0010481185181561,5.627314007071163
5,22,male,28,75,75,same,valid,anti,1,2,2,0.7704222750203371,1,j,change,1.4088149718022578,0.48639073033994834,0.4999079528715811,0.03532172235281905,0.3533365319976838,1.0010667203769117,5.850929194911714
5,22,male,29,15,325,change,valid,anti,2,1,2,2.3426334073983526,1,j,change,1.0238883144406827,0.13741339256757246,0.5000747281565054,0.035320118744039064,0.353295800342039,1.0010728140891842,7.017055338605132
5,22,male,30,105,105,same,catch,anti,2,2,1,0.26691774899563825,0,j,change,1.0098063867239944,0,0.49950865435448577,0.03533262689006733,0.3533227409643587,1.0010622302734191,4.955402043895447
5,22,male,31,105,105,same,valid,clock,4,0,2,0.3730997239226781,1,j,change,0.5407608416762741,0.05063924580022716,0.500328098299633,0.0353515494707608,0.35331600580866507,1.0010647960466486,4.603165587331205
5,22,male,32,15,15,same,catch,anti,2,2,1,0.22558922990856445,0,j,change,0.7429393117567997,0,0.49958242034563227,0.035338079158918845,0.3533073463231631,1.0010875672874135,4.660646292713409
5,22,male,33,165,215,change,valid,clock,3,0,2,0.25611937005123764,1,j,change,0.5490704202225061,0.016405480674319878,0.5003014783987965,0.03532364668262744,0.3533092706534262,1.0010497221264814,4.461694924386848
5,22,male,34,105,105,same,valid,anti,2,0,1,0.48402453136168333,0,j,change,1.5849168432773695,0,0.49993104483428397,0.035337758437435696,0.3533156850871819,1.0010734555326053,5.76795271792389
5,22,male,35,75,75,same,valid,clock,4,2,2,0.205689089817497,1,j,change,0.9940371421384953,0.47574314400881335,0.5006045604059182,0.035315628640091745,0.3533346076678754,1.0010442698576298,4.908942619038953
5,22,male,36,45,45,same,valid,anti,5,2,2,0.5221314009636444,1,j,change,1.3976920224968126,0.4663780140484978,0.5005981459717077,0.035314345753249654,0.3533352491108417,1.001046835631314,5.591987153171431
5,22,male,37,15,15,same,valid,clock,2,1,1,0.3266823136095809,0,f,same,1.1325780123465847,0.12258563923879928,0.500444199555659,0.03528708440899209,0.3533490401441668,1.0010548536738497,5.144779228010066
5,22,male,38,15,65,change,valid,clock,3,1,1,0.867258098864113,0,f,same,1.0086428083932333,0.1446908736793047,0.4999611926741636,0.03535026658391871,0.3532951588981632,1.0010625509949023,5.544859023569188
5,22,male,39,75,25,change,valid,anti,5,1,2,0.614675968451138,1,j,change,0.3134663344844739,0.16531275355461358,0.4998999348290454,0.03536213328698068,0.3532852165258191,1.0010747384194474,4.602868278314872
5,22,male,40,15,325,change,valid,anti,2,0,1,0.7534548141607047,0,j,change,1.1022858477058435,0.014529707319971191,0.4997501577950061,0.035311138536599174,0.35331632653060296,1.001070569037438,5.543970945179808
5,22,male,41,75,75,same,valid,clock,2,1,2,0.5162490442489798,1,j,change,0.8584501187951901,0.15368484168570395,0.5005631873063976,0.03532364668308219,0.35328233003019704,1.0010856429571504,5.097845455758488
5,22,male,42,75,25,change,valid,anti,1,1,1,0.3364431578515905,0,j,change,1.8700621686944032,0.14292589996013605,0.49940313691467964,0.035325891734828474,0.35333781488452587,1.001068965428658,5.873366885099131
5,22,male,43,165,115,change,valid,anti,5,2,2,4.853646028439016,1,j,change,0.8906245990974639,0.4579083972522619,0.500629255977401,0.03528804657389628,0.35333107972883226,1.0010625509949023,9.42003830700014
5,22,male,44,135,185,change,valid,clock,2,2,4,1.3153146536465101,1,j,change,0.9878234799070924,0.4500975232390493,0.5001295715674132,0.03535283235760289,0.35332434457313866,1.0011302232733215,5.991958544796034
5,22,male,45,135,185,change,valid,clock,1,2,3,3.016459116963233,1,j,change,1.1006219435221283,0.44277271113725736,0.5005413782309915,0.03530568626729291,0.3533419842665353,1.0010673618203327,7.794974483381338
5,22,male,46,165,115,change,valid,anti,5,0,1,0.37285950336899987,0,f,same,1.6586183693993917,0.03492061787925674,0.49981398141335376,0.03531627008351279,0.35329483817668006,1.0010740969760263,5.756882366977152
5,22,male,47,135,185,change,catch,clock,1,0,2,0.5692643413913174,1,f,same,2.2538499432962453,0,0.49971102974768655,0.035299592555020354,0.35333621127620063,1.0010676825418159,6.568913792572403
5,22,male,48,75,75,same,valid,clock,3,1,1,0.3920107582885066,0,j,change,0.509162377548364,0.15899405151668447,0.5001786419870768,0.03530344121554663,0.35330125261043577,1.0010747384194474,4.60282401871973
5,22,male,49,45,355,change,valid,anti,5,2,3,1.0488382177109088,1,j,change,0.9968950932143343,0.4357908350419462,0.49991885740973885,0.035365661225569056,0.3533047805494789,1.0010676825418159,5.697883365063262
5,22,male,50,105,155,change,valid,clock,5,1,1,1.2934497724158973,0,f,same,0.7712628865979241,0.17505281483505922,0.500034637943827,0.03535796390451651,0.353318571582804,1.0010718519238253,5.768968122828937
5,22,male,51,45,45,same,valid,anti,3,0,2,1.173045393666598,1,j,change,1.0582703222098644,0.053784214073873904,0.5014711504413754,0.0353371169944694,0.353270784049073,1.0010943024431072,5.899005057139675
5,22,male,52,105,105,same,valid,anti,4,2,1,0.24659201120721264,0,f,same,1.2937355354515603,0.4295879529623508,0.5004535004850368,0.03534128637647882,0.3532996490021105,1.0010513257352613,5.27379273937413
5,22,male,53,75,75,same,catch,clock,4,1,1,0.16930642007855567,0,j,change,0.40979445587663577,0,0.500615144222138,0.03532364668308219,0.3532887444644075,1.0010862844005715,4.249861448225147
5,22,male,54,75,75,same,catch,clock,2,1,2,0.7643991214790731,1,f,same,1.4092081766070805,0,0.5000978201187536,0.03532076018746011,0.3533166472520861,1.0010567780041129,5.815924345599797
5,22,male,55,105,55,change,valid,anti,2,2,1,0.2785900945746107,0,j,change,3.851145682059723,0.4503889149210475,0.5001218742463607,0.03537881081501837,0.3532576344591689,1.001057419447534,7.782276469803492
5,22,male,56,105,155,change,valid,clock,3,0,1,0.21110447573573765,0,f,same,1.0477981172357431,0.034540065800059194,0.49972000995512644,0.03536020895671754,0.3532508993034753,1.0010859636790883,5.038292246745186
5,22,male,57,105,105,same,catch,clock,5,2,1,0.30461184976866207,0,j,change,0.33169615595807045,0,0.4994570181606832,0.03532621245631162,0.3533102328183304,1.0010872465654757,4.284459622420854
5,22,male,58,135,135,same,catch,anti,3,2,2,0.17231703468405613,1,j,change,0.5655978509080342,0,0.49995253318820687,0.03535603957470812,0.353294196733259,1.0010805114102368,4.367194916689186
5,22,male,59,75,125,change,valid,clock,2,0,2,0.37569340031723186,1,f,same,0.3150115716389337,0.0499867118143012,0.5001517013647572,0.035371754937841615,0.35328393363897703,1.0010686447071748,4.4381780056755815
5,22,male,60,105,55,change,catch,anti,4,1,1,0.2938522781505526,0,j,change,0.390413243497278,0,0.499748874908164,0.03532332596114429,0.3533086292095504,1.001070569037438,4.401836388314678
5,22,male,61,45,95,change,catch,clock,3,2,2,0.3599571900672345,1,j,change,1.0882109758663319,0,0.5005128339994371,0.03535892606987545,0.353306063436321,1.0010359310931563,5.133147934808676
5,22,male,62,105,155,change,valid,clock,1,2,2,0.14878728710482392,1,j,change,0.8542130644059398,0.46913246382023116,0.5002007717848755,0.03532525029095268,0.35335096447442993,1.001058060890955,4.7441102666866755
5,22,male,63,45,45,same,catch,anti,4,0,1,0.20653483294245234,0,j,change,1.2787594356323098,0,0.4999759458723929,0.035357001739612315,0.35330670487974203,1.0010529293435866,5.179788888147414
5,22,male,64,135,85,change,valid,anti,5,0,1,0.21110704150896709,0,j,change,0.6671239089046139,0.03415262381278936,0.5002158457050427,0.03532076018700536,0.353306063436321,1.0010955853299492,4.567197931473402
5,22,male,65,105,105,same,catch,anti,3,0,1,0.17979273680793995,0,j,change,0.7778944492051778,0,0.5003932048052775,0.0353367962725315,0.3532964417850053,1.001071210480859,4.6259175847862934
5,22,male,66,165,115,change,valid,anti,3,0,2,0.14812178957572542,1,j,change,0.6547568801220223,0.04725755620437133,0.5010096319142576,0.03528355646994896,0.3533439085972532,1.0010606266641844,4.497210041924518
5,22,male,67,75,125,change,catch,clock,1,0,1,0.1551074289409371,0,j,change,0.38551037085699136,0,0.5004717816223092,0.03531210070150337,0.35328361291703914,1.0011003961553797,4.249918536688256
5,22,male,68,45,355,change,valid,anti,2,0,2,0.16263508798056137,1,j,change,0.1432359151858691,0.03381014809744767,0.49988935101328025,0.03534770081023453,0.35330125261043577,1.0010551743957876,4.036899031676967
5,22,male,69,165,115,change,catch,anti,3,2,1,0.25893274081090567,0,f,same,0.6971046527737599,0,0.5002690855067158,0.03536918916461218,0.3532897066293117,1.001068965428658,4.661847716205102
5,22,male,70,105,105,same,catch,anti,4,1,1,0.08911284528903707,0,j,change,0.4609460392152869,0,0.5001658131191107,0.03534160709796197,0.3533208166345503,1.00108083213172,4.214040041462795
5,22,male,71,75,75,same,valid,clock,5,2,2,0.26455274717363864,1,f,same,0.7337156763633175,0.46413684314919607,0.500376527276785,0.03535507740934918,0.3532845750823981,1.001081473575141,4.709192653677292
5,22,male,72,105,155,change,valid,clock,4,1,2,0.2679004402866667,1,j,change,0.9238991548340891,0.19114797250819532,0.4996491304591473,0.03525116357832303,0.35333781488452587,1.0010506842918403,4.943651442220926
5,22,male,73,165,165,same,catch,clock,1,2,2,0.39125128930163555,1,f,same,1.074053678549717,0,0.5001658131195654,0.03534192781944512,0.3532980453937853,1.0010965474948534,5.167969010586148
5,22,male,74,15,65,change,valid,clock,4,0,1,0.23677921004946256,0,j,change,0.6621912091463855,0.021507733092912096,0.500375244389943,0.03533262689052208,0.35331119498368935,1.0009990480980377,4.6150794363506975
5,22,male,75,135,185,change,valid,clock,5,0,2,0.39989345625099304,1,j,change,0.4565207211876441,0.031991139377778144,0.4990230816993062,0.035330381838321046,0.35330285621921576,1.0010494014049982,4.590222221651857
5,22,male,76,45,95,change,valid,clock,3,1,1,0.3454887927009622,0,f,same,1.25479254437505,0.18231722582524185,0.49926169864511394,0.03530600698923081,0.35331857158234925,1.0010689654291127,5.308482319253926
5,22,male,77,135,135,same,valid,clock,2,0,2,0.3233346204965528,1,j,change,0.9614325740353706,0.02116150869508146,0.5001183463077723,0.035336475550593605,0.35327591559644134,1.0010920573909061,4.990965269688786
5,22,male,78,75,25,change,valid,anti,2,2,2,0.7297592534623618,1,j,change,0.8984527743709805,0.45920968691946856,0.5004477274942474,0.0353367962725315,0.3532980453937853,1.0010673618203327,5.368908212014958
5,22,male,79,135,135,same,valid,anti,5,1,2,0.6890837237583582,1,j,change,0.49498134682607997,0.19592585618935995,0.4997424604744083,0.035306969154135004,0.3533297968419902,1.0010670410983948,4.837922967778923
5,22,male,80,165,165,same,valid,clock,3,1,1,0.40022572393263545,0,f,same,0.7952009129021462,0.18820096510939482,0.4999720972123214,0.03532492956946953,0.3532929138464169,1.001081473575141,4.896871616385852
5,22,male,81,165,115,change,catch,anti,1,2,1,0.5029281891279425,0,j,change,0.8389938575378437,0,0.5000638236183477,0.03536245400846383,0.35330317694115365,1.0010340067633479,5.061828088037146
5,22,male,82,105,155,change,valid,clock,2,0,2,0.2613426436705595,1,j,change,0.2545783022787873,0.011284003514658858,0.5002421448839414,0.03536598194750695,0.3532499371385711,1.001081473575141,4.27290145376719
5,22,male,83,165,165,same,catch,anti,5,1,2,0.32613804888296727,1,j,change,0.1385460017550031,0,0.5002100727142533,0.03533262689052208,0.35327880209160867,1.0010647960466486,4.213816819159092
5,22,male,84,165,165,same,valid,anti,3,1,2,0.33820584431941825,1,j,change,0.2652111888255604,0.20088786558855642,0.5005224556507528,0.035318515135259076,0.3533220995209376,1.0010692861505959,4.309024659650277
5,22,male,85,135,85,change,catch,anti,2,1,2,0.4540354487280638,1,j,change,0.6515868668311668,0,0.49975593078534075,0.035322684517723246,0.3533355698327796,1.0010439491361467,4.766983176222766
5,22,male,86,135,85,change,valid,anti,1,0,1,0.32911145977095657,0,f,same,1.4237557922338056,0.0021723282663785592,0.5006343875238599,0.035356681018129166,0.3532637281718962,1.0010721726457632,5.439252744095029
5,22,male,87,165,215,change,valid,clock,3,1,2,0.5497436150722024,1,j,change,1.0033637291980995,0.19375782474997427,0.5002344475633436,0.03535315307908604,0.3532669353885467,1.001083718627342,5.2859410359569665
5,22,male,88,105,105,same,catch,anti,5,0,2,0.4825832080382497,1,j,change,0.9313876858263939,0,0.4999977549482537,0.035336475550593605,0.3533217787994545,1.0010330445984437,5.09687014106612
5,22,male,89,15,15,same,valid,anti,2,0,2,2.741657707840659,1,j,change,0.4524735340451116,0.010096366874332158,0.5000586920709793,0.03531177998002022,0.35331985446919134,1.0010702483155,6.781589163198532
5,22,male,90,75,125,change,valid,clock,3,0,1,0.26293085753286505,0,j,change,0.9600608473210741,0.0018360202171481266,0.499887747404955,0.03534096565454092,0.3533285139551481,1.0010465149098309,4.95590814273919
5,22,male,91,15,325,change,catch,anti,3,1,2,0.3078309334800906,1,f,same,2.165088288269544,0,0.5000182811368177,0.03532621245631162,0.3533105535402683,1.0010975096602124,6.1920244210332385
5,22,male,92,15,15,same,catch,anti,4,2,1,0.22937374597813687,0,j,change,0.2876415024147718,0,0.500863382818352,0.03532396740456534,0.353327231068306,1.0010692861505959,4.250125402184949
5,22,male,93,105,55,change,catch,anti,2,1,2,0.19082652548058832,1,f,same,0.2987298137763901,0,0.5003771687202061,0.03532492956946953,0.3533144022003398,1.0010875672874135,4.226203091244315
5,22,male,94,45,95,change,valid,clock,1,1,2,0.1841054815190546,1,j,change,0.2748084650002056,0.18704016167691762,0.5002309196247552,0.03530921420633604,0.3533275517902439,1.0010737762540884,4.1671431522067905
5,22,male,95,105,105,same,valid,anti,5,1,1,0.28673963299161187,0,f,same,1.1138655047134307,0.18100621402351985,0.4999355349382313,0.03533968276769883,0.3532999697240484,1.0010920573909061,5.132886225901075
5,22,male,96,15,15,same,catch,clock,4,0,1,0.2156754014154103,0,j,change,0.9223388437599169,0,0.49966773231790285,0.035312742144924414,0.35332306168629657,1.0010413833624625,4.813862746506857
5,22,male,97,135,135,same,valid,clock,3,2,1,0.2656242783759808,0,j,change,1.5315564495854233,0.4547418808831956,0.5006719119628542,0.035328457508512656,0.35328970662976644,1.0010866051220546,5.557163190898336
5,22,male,98,75,125,change,valid,clock,3,2,1,0.1562908920168411,0,j,change,2.392165987591852,0.46932752863841837,0.5001048759963851,0.035345455758033495,0.3533051012714168,1.001055815838754,6.274933546463217
5,22,male,99,165,165,same,catch,anti,5,1,1,0.06731242912064772,0,j,change,0.799102813114132,0,0.5002767828277683,0.035296385337915126,0.3533192130257703,1.0010295166598553,4.637980890118342
5,22,male,100,105,105,same,valid,clock,5,2,1,0.18215164491721225,0,j,change,0.9472945200209324,0.48378434465475345,0.5005840342173542,0.0353297403949,0.35329066879467064,1.0010856429571504,4.885235512359486
5,22,male,101,135,185,change,valid,clock,4,0,1,0.2418777229272564,0,j,change,0.21922001765278765,0.009101566384571408,0.5092043920913056,0.03532525029095268,0.3532938760113211,1.001035931093611,4.199851954862879
5,22,male,102,15,15,same,valid,anti,2,2,1,0.18001211045157106,0,j,change,0.1817379139233708,0.49724120872976074,0.49910197923782107,0.035342248541383015,0.3532977246718474,1.0010526086216487,4.024245919137229
5,22,male,103,45,45,same,valid,anti,1,2,1,0.271681428417196,0,j,change,0.6628557445105798,0.510964772032112,0.5004118066635783,0.03531594936202964,0.3533127985920146,1.0010715312023422,4.614847233839555
5,22,male,104,105,105,same,catch,clock,1,0,1,0.3943472158794066,0,j,change,0.0354253154619073,0,0.5000166775284924,0.03533134400322524,0.3533208166345503,1.001070569037438,4.095907334520234
5,22,male,105,165,115,change,valid,anti,1,2,1,0.3793284600737934,0,j,change,0.4028880347714221,0.5240195308147189,0.5006331046374726,0.035348021532172424,0.35327719848328343,1.0010609473861223,4.49719753377849
5,22,male,106,45,45,same,valid,clock,4,1,2,0.3606970950309005,1,f,same,1.3825286212045285,0.19087442795361168,0.5001356652796858,0.0353143457537044,0.35333107972883226,1.0010551743957876,5.320972825891658
5,22,male,107,75,75,same,catch,anti,3,1,2,0.5720690526650287,1,j,change,0.7507103985672074,0,0.4999737008206466,0.0353149871966707,0.35330959137490936,1.0010817942970789,4.943644386343749
5,22,male,108,165,115,change,valid,anti,5,1,1,0.2501533049730824,0,j,change,0.4219321686432522,0.18519466796336265,0.5008823053990454,0.03527938708793954,0.3533557752998604,1.0010676825422706,4.403215170906151
5,22,male,109,45,45,same,catch,anti,3,1,2,1.0631513857742902,1,f,same,0.9250229636736549,0,0.500125722906887,0.03534128637647882,0.353306063436321,1.0010776249146147,5.697985996007901
5,22,male,110,75,75,same,valid,anti,1,1,2,0.31726849024744297,1,j,change,0.5754026340227938,0.19475759777662166,0.5003887147017849,0.035318515135713824,0.3533461536485447,1.001069606872079,4.532186988448757
5,22,male,111,105,55,change,catch,anti,1,0,2,0.35310400876460335,1,f,same,1.0093833547998656,0,0.4996674115964197,0.03532236379578535,0.3533034976626368,1.0010362518150941,5.085355269842239
5,22,male,112,105,105,same,catch,clock,4,2,2,0.19589136257991413,1,j,change,2.188673520703105,0,0.4995532346706568,0.03531210070150337,0.35334070138014795,1.0010731348111221,6.038749275168811
5,22,male,113,105,105,same,valid,clock,5,1,2,0.44777079174627943,1,f,same,0.43435788949727794,0.1893642241359526,0.5004490103810895,0.03534513503700509,0.35322011002062936,1.0011279782215752,4.544013280444233
5,22,male,114,165,165,same,catch,anti,2,1,2,0.3881620978791034,1,j,change,0.46225426303317363,0,0.5002674818983905,0.03532781606463686,0.35329034807273274,1.00102470583397,4.5559171870913815
5,22,male,115,105,105,same,valid,anti,4,0,2,0.2919494362995465,1,j,change,0.9190062245666013,0.016432652297217104,0.5000981408406915,0.03531370430982861,0.35330285621921576,1.0010914159479398,4.920165633515353
5,22,male,116,105,55,change,valid,anti,1,2,1,0.1534861807431298,0,j,change,0.8257079610825713,0.5365308597449336,0.5004390680082906,0.03533968276769883,0.35330959137490936,1.0010971889382745,4.64979146675023
5,22,male,117,165,165,same,valid,anti,3,2,1,0.3221145951465587,0,j,change,0.10776890590295807,0.549528599364717,0.5003210424224562,0.035343852150163,0.3533073463227083,1.0010433076927256,4.084761613974024
5,22,male,118,165,115,change,valid,anti,4,1,1,0.5319246380977347,0,j,change,1.1379414413486302,0.18444441646604537,0.4997517614037861,0.03533519266420626,0.3533156850871819,1.0010510050137782,5.4266705110508155
5,22,male,119,45,45,same,valid,anti,1,0,1,0.1602482770831557,0,j,change,0.4319274604486054,0.009017236056966554,0.50013662744459,0.03534866297559347,0.35328874446395275,1.001080190688299,4.237880568370201
5,22,male,120,45,95,change,valid,clock,1,2,2,0.1968663565503448,1,j,change,1.1409998434878617,0.5621320453110352,0.4998181507953632,0.03531947730061802,0.3533115157051725,1.0010606266646391,4.943907378138647
5,22,male,121,135,185,change,catch,clock,4,1,2,0.1909018950805148,1,j,change,0.2445201490204454,0,0.5001164219775092,0.03533872060233989,0.3532890651863454,1.0010641546032275,4.107892063036161
5,22,male,122,105,105,same,valid,clock,1,2,2,0.26064218747615087,1,j,change,0.4056350161390583,0.5585776260953248,0.500477875334127,0.03533358905542627,0.353294196733259,1.0010635131598065,4.379148214477937
5,22,male,123,45,95,change,catch,clock,4,1,2,0.3790151149723897,1,j,change,0.7731480887550788,0,0.4999127636974663,0.03532813678657476,0.3532993282806274,1.0010490806830603,4.861574910326453
5,22,male,124,135,185,change,valid,clock,3,0,1,0.32501744726050674,0,j,change,0.4208218301150737,0.015792358217495583,0.5002264295208079,0.035355718852770224,0.35330830848806727,1.0010721726457632,4.508062622836405
5,22,male,125,15,325,change,valid,anti,4,2,2,0.9246685661946685,1,j,change,1.3760093111923197,0.5553343533201589,0.5004422752253959,0.03533390977690942,0.3532861786907233,1.0010965474953082,5.980755735786715
5,22,male,126,105,55,change,catch,anti,3,2,1,0.8767909099774442,0,j,change,0.8838795010083231,0,0.4999640791697857,0.03534128637602407,0.3532762363179245,1.0010740969760263,5.450637723030013
5,22,male,127,135,185,change,valid,clock,3,2,2,0.18295152483915444,1,f,same,1.6033297968419902,0.5523114931521607,0.5001648509542065,0.03533294761200523,0.353315364365244,1.00107185192428,5.474130266892189
5,22,male,128,15,65,change,valid,clock,4,2,2,0.9974332642282207,1,f,same,0.9529010560727329,0.5492046162589355,0.5002633125163811,0.035343852149708255,0.35327912281354656,1.00108083213172,5.663022840516533
5,22,male,129,165,115,change,valid,anti,2,2,2,0.22377426580396786,1,f,same,1.090421069106469,0.5463345037695888,0.49978736151251724,0.035328778229995805,0.3533253067384976,1.0010737762545432,5.0028268410706005
5,22,male,130,165,215,change,valid,clock,1,0,2,0.25325596670654704,1,f,same,0.8394386985369238,0.022646355865716478,0.499920781740002,0.035337758437435696,0.3533314004503154,1.001059985221218,4.767746814592101
5,22,male,131,15,15,same,valid,anti,1,2,2,0.1925542532826512,1,f,same,1.2133052680460423,0.5436526782614046,0.4995897969447469,0.035300554720379296,0.3532954796201011,1.0010975096602124,5.061810769064778
5,22,male,132,135,185,change,valid,clock,4,1,2,0.24545537349968072,1,j,change,0.8221424979346921,0.19232911477794493,0.49974406408273353,0.03531306286640756,0.3532794435350297,1.0011007168773176,4.731893656381089
5,22,male,133,75,125,change,catch,clock,5,1,2,0.23642320896169622,1,j,change,0.7255196332994274,0,0.5000025657736842,0.03533904132427779,0.353315364365244,1.0010654374900696,4.661866638785341
5,22,male,134,165,215,change,valid,clock,1,1,2,0.21054032626398111,1,j,change,0.8230979278810082,0.1876001480920325,0.5000093009293778,0.03531819441377593,0.3533150436437609,1.0010564572826297,4.661235779200069
5,22,male,135,15,15,same,valid,anti,4,1,3,0.8191973105563193,1,f,same,2.907620283466713,0.1832654204045927,0.5002703683935579,0.03533294761200523,0.35328938590782855,1.0010766627492558,7.428971689254013
5,22,male,136,105,105,same,catch,anti,2,1,3,0.7782203024535193,1,j,change,0.8696817927575466,0,0.5002549737519075,0.035284518635307904,0.35334807797880785,1.0010612681080602,5.3686535589845334
5,22,male,137,105,105,same,catch,anti,5,2,2,0.24032158123509362,1,j,change,0.8445365699712966,0,0.49966420437931447,0.03533294761200523,0.3532974039499095,1.0010567780045676,4.754784205611031
5,22,male,138,15,325,change,catch,anti,2,2,2,0.22214852750221326,1,j,change,0.6625600391025728,0,0.5009406767485416,0.03530440338090557,0.3533156850871819,1.0010532500655245,4.615195858328207
5,22,male,139,45,45,same,valid,clock,5,2,3,0.19206771846302217,1,j,change,1.015196435627331,0.54088574116173,0.5002729341676968,0.03533294761200523,0.3533166472520861,1.0010288752159795,4.885001064795688
5,22,male,140,45,45,same,valid,anti,1,1,3,0.17021598682185868,1,j,change,0.7816950013598216,0.17895179886040144,0.49993489349481024,0.035330702559804195,0.35328938590782855,1.0010715312023422,4.579259633196671
5,22,male,141,75,75,same,valid,clock,3,0,2,0.7593137581911833,1,j,change,2.0505669076783306,0.01573693813764579,0.4997892858423256,0.035321401630881155,0.3533067048792873,1.0010538915089455,6.52199220774537
5,22,male,142,105,105,same,valid,anti,1,1,2,0.24013844914406945,1,j,change,1.5457191991704349,0.1749685340466372,0.4999964720609569,0.03533294761200523,0.3533237031297176,1.001049080683515,5.485761880815062
5,22,male,143,45,45,same,valid,clock,4,0,1,0.18637619116043425,0,j,change,0.5983605348096717,0.009367412756211085,0.4999438737027049,0.03535058730540186,0.35331632653060296,1.0010285544944963,4.508692520256773
5,22,male,144,45,45,same,catch,anti,1,2,1,0.1557196866679078,0,f,same,0.6157644979039105,0,0.49966195932711344,0.03530279977212558,0.35331215714859354,1.0010840393488252,4.495835107993571
5,22,male,145,15,15,same,catch,anti,3,2,1,0.12410165851633792,0,f,same,1.23180160925358,0,0.5007530545535701,0.03532525029140743,0.35328585796924017,1.001093660999686,5.05116794014566
5,22,male,146,75,75,same,valid,anti,5,0,2,0.13621788292903148,1,f,same,0.7882255366316713,0.015222061409087523,0.5000272613447123,0.03533455122033047,0.3533022147757947,1.0010596644992802,4.579159568026171
5,22,male,147,105,105,same,catch,clock,4,0,1,0.9898783438443388,0,f,same,0.23140904589126876,0,0.4999830017500244,0.03533615482865571,0.35331376075737353,1.0010708897589211,4.908920489242064
5,22,male,148,15,15,same,valid,anti,4,2,2,0.510743856254976,1,j,change,0.911309865912699,0.5382460619743208,0.5002100727142533,0.0353371169944694,0.3533342869459375,1.0010760213058347,5.1092435842833765
5,22,male,149,75,75,same,catch,clock,3,0,2,0.0788026047735002,1,j,change,0.6745005080233568,0,0.5000275820666502,0.03534738008829663,0.35330285621921576,1.0010179706782765,4.413845170957757
5,22,male,150,15,325,change,valid,anti,5,0,2,0.11490015292019962,1,j,change,0.9085237564977433,0.009271228623926375,0.5005846756603205,0.035315949361574894,0.35333524911129643,1.0010619095514812,4.66209050253201
5,22,male,151,105,105,same,valid,anti,3,0,1,1.166774322251058,0,f,same,0.7267050207055945,0.0036086153676504473,0.5027986175614387,0.03531755297035488,0.35329034807273274,1.0011071313110733,5.629948094399879
5,22,male,152,15,15,same,valid,clock,5,1,2,0.2503127036584374,1,f,same,0.7696323374711938,0.1710234701979484,0.49943007753745405,0.035349625140497665,0.3533047805494789,1.0010817942966241,4.743234696443324
5,22,male,153,105,155,change,valid,clock,2,1,1,0.06410040128730543,0,j,change,2.208263843631812,0.16727166751274886,0.5001840942563831,0.03532396740411059,0.3533002904455316,1.0010542122308834,5.897932563771974
5,22,male,154,45,45,same,valid,clock,1,1,2,0.31225400645553236,1,f,same,0.5202182960183563,0.17361355190270927,0.49993617638165233,0.03534192781944512,0.35330381838411995,1.0010423455273667,4.461396653204702
5,22,male,155,75,125,change,valid,clock,1,1,2,0.2743145535810072,1,j,change,0.4796437936502116,0.17000440834293518,0.49978575790373725,0.03534866297513872,0.35333909777136796,1.0010676825418159,4.413840039410388
5,22,male,156,105,105,same,catch,anti,1,1,2,0.19579899473001205,1,f,same,1.2844682819068112,0,0.5002280331295879,0.03533390977690942,0.35325057858199216,1.0011036033720302,5.19194937215525
5,22,male,157,45,45,same,valid,clock,2,2,3,0.2470772631404543,1,f,same,1.7145708358780212,0.5357913802296551,0.4999894161837801,0.03532011874358432,0.35332851395560283,1.001049080683515,5.686170929271611
5,22,male,158,45,45,same,catch,clock,1,0,2,0.25631019946331435,1,f,same,0.40810425251311244,0,0.499966324221532,0.035356681018129166,0.3533182508608661,1.0010635131598065,4.354874713274967
5,22,male,159,105,55,change,valid,anti,3,0,2,0.28232361589334687,1,j,change,0.29593568631889866,0.008606399066286519,0.5007065499066812,0.03534128637647882,0.3532900273512496,1.001049722126936,4.297139034139946
5,22,male,160,45,355,change,valid,anti,4,1,2,0.24371353394235484,1,j,change,0.64199472220389,0.16660580105642148,0.49967286386481646,0.03531627008396754,0.35333589055426273,1.001069927594017,4.54354278170922
5,22,male,161,105,105,same,valid,clock,1,0,3,0.26696072570348406,1,j,change,1.0672784326202418,0.0032887648805865755,0.49986433472076897,0.03536020895671754,0.35331632653060296,1.0010663996549738,4.943932715153096
5,22,male,162,75,25,change,valid,anti,1,0,2,0.8387154711017502,1,j,change,0.21427577191298042,0,0.49991116008914105,0.03533262689006733,0.3533105535402683,1.0010477977962182,4.684625050673731
5,22,male,163,15,15,same,valid,clock,3,1,3,0.21874118015330168,1,f,same,1.052756154007966,0.16341732395752812,0.500294422521165,0.03531498719712545,0.3532967625069432,1.0010917366698777,4.896816131531978
5,22,male,164,15,15,same,catch,clock,2,0,1,0.7346380719750414,0,j,change,3.157439075705497,0,0.5006064847361813,0.035306327711168706,0.353339739214789,1.0010516464567445,7.60609249357276
5,22,male,165,45,45,same,valid,anti,5,0,2,0.3384604973493879,1,j,change,0.5928678549616961,0,0.500613861335296,0.03533904132427779,0.3533124778700767,1.0010500428484193,4.615097076044549
5,22,male,166,165,165,same,valid,anti,2,0,3,0.43377193095011535,1,j,change,1.1197010360592685,0,0.49995509896189105,0.0353518701926987,0.3532874615775654,1.0010840393483704,5.202950767935818
5,22,male,167,15,15,same,valid,clock,4,2,1,0.3808018555673698,0,j,change,2.032905725780438,0.5334695862131967,0.4998563166777785,0.035365661225569056,0.3532842543604602,1.0010830771834662,6.086529752710703
5,22,male,168,15,325,change,valid,anti,1,1,1,0.18464750119301243,0,j,change,0.290360260271882,0.1601752759107568,0.4995962113789574,0.03536052967820069,0.3533031769406989,1.0010253472773911,4.201545044721115
5,22,male,169,165,165,same,valid,clock,1,0,2,0.4340823895563517,1,j,change,0.4051423876062472,0,0.5000651065051898,0.035309855649302335,0.3533038183845747,1.0010782663580358,4.519652222216337
5,22,male,170,135,135,same,catch,anti,1,1,1,0.3037603336529173,0,j,change,0.4655025324186681,0,0.5005311151367096,0.03533936204621568,0.35328329219510124,1.0010971889387292,4.426823816023898
5,22,male,171,105,105,same,valid,clock,1,1,2,0.6694449718534088,1,f,same,0.37638615919058793,0.1654830099978808,0.500008018042081,0.035294781729589886,0.35333492838935854,1.0010686447071748,4.744153884837942
5,22,male,172,15,15,same,valid,anti,3,0,1,0.6585324159837,0,j,change,0.29421373150717045,0,0.49984028059270713,0.035320118744039064,0.3533002904455316,1.001048759962032,4.684915303812886
5,22,male,173,105,105,same,valid,clock,4,2,2,0.277008615867544,1,j,change,0.5177384758280823,0.5417366415269028,0.5,0.03534288998480406,0.3533137607569188,1.0010750591409305,4.484894970057212
5,22,male,174,135,185,change,catch,clock,4,0,1,0.13898955986724104,0,j,change,1.0640882138623056,0,0.5000035279385884,0.03535507740934918,0.35332145807797133,1.0010721726457632,4.955961061819835
5,22,male,175,135,135,same,valid,anti,3,1,1,0.1148215761031679,0,j,change,1.1292075479927917,0.16254530823254193,0.5001494563125561,0.03536373689530592,0.3532954796201011,1.0010718519238253,4.909033704002013
5,22,male,176,15,15,same,valid,clock,2,2,1,0.10698377917924518,0,j,change,0.6353089576291495,0.5393618689585293,0.4997905687291677,0.03532236379578535,0.3533362112757459,1.0010750591413853,4.4967055466895545
5,22,male,177,45,355,change,valid,anti,3,2,1,0.12491693307947571,0,f,same,0.5416107541836936,0.5474641931520267,0.4994752992975009,0.03529702678133617,0.3533362112757459,1.0010734555326053,4.307583015604905
5,22,male,178,45,45,same,valid,clock,2,0,2,0.1217081124627839,1,f,same,0.27875398336345825,0,0.500148494147652,0.03531947730061802,0.3533182508608661,1.0010554951172708,4.060900240156116
5,22,male,179,45,95,change,valid,clock,3,2,2,0.3392539628371196,1,f,same,0.4832923237186151,0.5555644191002536,0.5001590779634171,0.035343852150163,0.3533025354977326,1.001057419447534,4.543938552288182
5,22,male,180,165,165,same,catch,anti,5,0,2,0.5696783931070968,1,j,change,0.17948452325344988,0,0.500044901038109,0.03532396740456534,0.35331760941744506,1.0010737762540884,4.496956030337969
5,22,male,181,165,115,change,valid,anti,4,2,2,0.30324012305436554,1,j,change,0.17318041750286284,0.5534984793441468,0.500066068670094,0.03530087544231719,0.3533275517902439,1.001068323985237,4.20218103585421
5,22,male,182,75,75,same,valid,clock,2,2,2,0.2556918480240711,1,j,change,0.25679673428294336,0.5513372194391398,0.5001401553831784,0.03532621245631162,0.35328585796924017,1.0010782663580358,4.225897122741117
5,22,male,183,45,45,same,valid,clock,5,1,2,0.23112296213412264,1,j,change,0.4044371205859534,0.16749142080202217,0.49994611875445116,0.035340644933057774,0.35331728869550716,1.0010715312023422,4.295846846407585
5,22,male,184,75,125,change,valid,clock,2,1,1,1.7730675876082387,0,f,same,0.37886822443351775,0.16465169686263906,0.5005407367875705,0.03530440338090557,0.35333781488452587,1.001034327484831,5.862923545078047
5,22,male,185,135,85,change,valid,anti,3,2,2,0.210956623031052,1,j,change,0.5591866241093157,0.5492298756257331,0.5004480482161853,0.03533070256025894,0.35330542199289994,1.0010542122304287,4.402911126734125
5,22,male,186,45,45,same,valid,anti,4,2,1,0.10159565460571685,0,j,change,0.5224335208058619,0.5472465451862351,0.4999304033908629,0.035316911526933836,0.3532996490021105,1.0010962267733703,4.354825642854848
5,22,male,187,165,165,same,valid,anti,1,2,2,0.23237377676741744,1,f,same,0.4113740102529846,0.5544427110866685,0.5004634428578356,0.03531242142298652,0.35330349766218205,1.001059664499735,4.31992502809544
5,22,male,188,135,135,same,catch,clock,4,1,2,0.15439446460004547,1,f,same,0.16562228990142103,0,0.5005080231744614,0.03526976543662386,0.35335545457837725,1.0010885294527725,3.978827556921715
5,22,male,189,165,115,change,catch,anti,2,1,2,0.22288201803257834,1,j,change,0.9350670051776433,0,0.5001834528125073,0.03532813678657476,0.3532752741530203,1.0010853222356673,4.778960848860606
5,22,male,190,135,85,change,catch,anti,1,0,2,0.16403824542157963,1,f,same,0.3625999368819066,0,0.5004172589324298,0.03530312049406348,0.3533435878753153,1.001082115018562,4.190778096503891
5,22,male,191,75,25,change,valid,anti,4,2,2,0.12848752777472328,1,j,change,0.34356670754823426,0.5524830909937213,0.5003460587149675,0.03533070256025894,0.3533320418941912,1.0010625509944475,4.1791506519630275
5,22,male,192,135,135,same,valid,clock,3,1,2,0.7774752659424848,1,f,same,0.6534868221865509,0.16934218704836934,0.49993232772112606,0.03535315307908604,0.35329195168151273,1.0010753798628684,5.073990496374336
5,22,male,193,45,45,same,valid,clock,3,0,1,0.260951683917483,0,j,change,0.38494237272470855,0,0.4996645251007976,0.03533358905542627,0.3532807264218718,1.0010545329523666,4.436828729480567
5,22,male,194,45,45,same,valid,anti,4,0,2,0.3766632627407489,1,j,change,0.5096829088688537,0,0.5006266902032621,0.03526559605506918,0.35335513385643935,1.001046194187893,4.5559258465768835
5,22,male,195,45,45,same,valid,clock,5,0,2,0.5591776439014211,1,j,change,0.24907952871853922,0,0.500240861997554,0.035334871942268364,0.353281688586776,1.0010532500650697,4.437861453356618
5,22,male,196,75,125,change,catch,clock,1,0,2,0.37605709872605075,1,j,change,0.40096594961869414,0,0.5001491355906182,0.03533102328174209,0.353291951681058,1.0010667203769117,4.496927165384477
5,22,male,197,45,45,same,valid,clock,4,2,2,0.3213637856447349,1,j,change,0.482072298368621,0.550565653450054,0.500090122797701,0.03534256926332091,0.35330798776612937,1.0010853222352125,4.449108201238687
5,22,male,198,135,135,same,valid,anti,4,1,2,0.27077154095240985,1,j,change,0.7870330933483274,0.16655988329285504,0.5005384917353695,0.035308252040977095,0.35330189405431156,1.0010975096602124,4.7209038065821005
5,22,male,199,15,15,same,valid,anti,4,0,2,0.05443288705964733,1,f,same,0.5106476397445476,0,0.5000570884626541,0.03532974039535475,0.35330253549727786,1.0010667203769117,4.225877879439395
5,22,male,200,15,15,same,valid,anti,3,2,1,0.3418822771750456,0,j,change,0.29649213846960265,0.5487021644960618,0.4999589476224173,0.03535507740934918,0.35328810302098645,1.001093660999686,4.284908312080461
5,22,male,201,15,325,change,valid,anti,1,0,2,0.27214519199651477,1,j,change,0.2704148984207677,0,0.512190311125778,0.03532781606463686,0.3532900273512496,1.0010769834711937,4.214655827128354
5,22,male,202,135,85,change,catch,anti,2,2,1,0.2347916976700617,0,f,same,0.4405407624453801,0,0.4996536205630946,0.03532172235281905,0.3533339662239996,1.0010670410983948,4.389817342576862
5,22,male,203,105,55,change,catch,anti,3,0,2,0.8594087559590662,1,j,change,0.812271646148929,0,0.5007485644496228,0.035277142036193254,0.353352247361272,1.001047156353252,5.3691878813378935
5,22,male,204,135,85,change,valid,anti,3,0,1,0.3159092716791747,0,j,change,0.7013324062336324,0,0.49999262340088535,0.03531979802210117,0.35333140045077016,1.0010654374900696,4.755133150821166
5,22,male,205,75,75,same,catch,clock,5,1,2,0.23950694811492212,1,f,same,0.9677453392723692,0,0.5006866651610835,0.03533230616858418,0.35329900755914423,1.0010532500650697,4.838986160217246
5,22,male,206,15,15,same,catch,clock,4,2,2,0.2970720033044927,1,j,change,0.28751257229077964,0,0.4995352742553223,0.03532813678657476,0.35333556983232484,1.0010532500655245,4.248532377497213
5,22,male,207,165,165,same,catch,clock,5,0,2,0.739414900986958,1,j,change,1.013838499945905,0,0.5003810173807324,0.03535539813083233,0.3532695011622309,1.0010795492448779,5.37995515027751
5,22,male,208,165,165,same,catch,anti,4,2,2,0.2391631344517009,1,j,change,0.5884511964200101,0,0.500079218259998,0.03534417287164615,0.3532810471438097,1.0010657582115527,4.425580698711656
5,22,male,209,45,355,change,valid,anti,5,1,1,0.7253730634824933,0,j,change,2.825006542722349,0.1639273283332174,0.5007722978557467,0.035343852149708255,0.3532903480731875,1.0010837186268873,7.253303754239823
5,22,male,210,45,95,change,catch,clock,4,1,1,0.4198468361441883,0,j,change,0.1887370235999697,0,0.5000121874249999,0.03533423049884732,0.35331087426175145,1.0010519671786824,4.284863411042352
5,22,male,211,165,165,same,valid,anti,1,0,1,0.3015787846443345,0,j,change,0.8320155947722014,0,0.49999871711361266,0.035323005239206395,0.3533227409648134,1.0010433076927256,4.838091025950234
5,22,male,212,135,185,change,valid,clock,2,0,2,0.27396079754498714,1,f,same,0.2275847603314105,0,0.4995240489961361,0.03536983060757848,0.35325635157278157,1.0011485044105939,4.154332886033444
5,22,male,213,135,185,change,valid,clock,5,2,2,0.16361842071501087,1,f,same,0.13994691414382032,0.5552242424838627,0.5000282235096165,0.03532492956992428,0.3533034976626368,1.001061588829998,3.931545480902969
5,22,male,214,135,185,change,catch,clock,3,2,1,0.11996466929713279,0,f,same,0.223865671488511,0,0.4998874266830171,0.03532685389973267,0.3533182508608661,1.0010477977962182,4.060920124901713
5,22,male,215,15,325,change,valid,anti,3,2,1,0.15701796811254098,0,f,same,0.27999132768536583,0.5535642224139519,0.5000022450517463,0.0353890739097551,0.3532820093087139,1.0010381761453573,4.06103943337439
5,22,male,216,45,45,same,valid,clock,2,1,1,0.12657602643776045,0,f,same,0.4032786738030154,0.1683187136467958,0.4995827410671154,0.03534641792339244,0.3533410221016311,1.0010718519238253,4.26065052624017
5,22,male,217,75,125,change,catch,clock,2,2,1,0.09993976846453734,0,f,same,0.3404685359182622,0,0.4994108342357322,0.03529895111159931,0.3533419842665353,1.0010731348111221,4.119193654328683
5,22,male,218,135,85,change,catch,anti,3,2,1,0.08766703186165614,0,f,same,0.11682063446460234,0,0.5001998096199713,0.035272651932245935,0.35337566004545806,1.0010481185181561,3.8490587459527887
5,22,male,219,105,55,change,valid,anti,4,1,1,0.009152755897503084,0,f,same,0.17978054938339483,0.1729672191756909,0.5002010925063587,0.03535443596592813,0.3532864994126612,1.0010795492448779,3.9080481262158173
5,22,male,220,165,165,same,valid,clock,4,0,2,0.009749939704306598,1,f,same,0.1882341319733314,0,0.4997886443993593,0.035329098951478954,0.35331311931349774,1.0010622302729644,3.918697690290628
5,22,male,221,15,325,change,valid,anti,5,2,1,1.2754813391284188,0,j,change,0.061841558348533,0.5595699400169524,0.5006940417606529,0.03532204307384745,0.35330670487974203,1.0010635131598065,4.944931442529196
5,22,male,222,105,55,change,valid,anti,2,0,1,0.09065166800928637,0,j,change,0.3638016810946283,0,0.4997572136726376,0.03534738008875138,0.35331055353981355,1.0010401004756204,4.107705082284156
5,22,male,223,165,215,change,valid,clock,2,0,1,0.1889207971344149,0,j,change,1.559013434390181,0,0.4996423953039084,0.035357001739612315,0.35330381838411995,1.0010644753251654,5.402542617499421
5,22,male,224,105,105,same,valid,clock,3,0,1,0.09154038784254226,0,j,change,1.027433251399998,0,0.5005144376082171,0.035311138536144426,0.35331183642665565,1.001069927594017,4.779773557650515
5,22,male,225,105,155,change,catch,clock,5,0,2,0.7696878223255226,1,j,change,1.0877969241505525,0,0.500068313722295,0.035330381838321046,0.35331664725254086,1.001024064390549,5.485931221872761
5,22,male,226,105,155,change,valid,clock,1,1,1,0.3176770896943708,0,f,same,0.5830496015355493,0.1773110047032305,0.5002431070488456,0.03532396740456534,0.3533134400349809,1.001093660999686,4.6030597491699154
5,22,male,227,105,105,same,valid,anti,2,1,2,0.05119680509869795,1,j,change,0.15570878212975003,0.1819207884669987,0.49990538709835164,0.03529125379100151,0.3533297968419902,1.001070569037438,3.8839324200889678
5,22,male,228,75,75,same,catch,anti,4,0,2,0.06874477223618669,1,j,change,0.23567432379013553,0,0.49998652968815804,0.03531498719712545,0.3533121571481388,1.0010154049045923,3.919607898477807
5,22,male,229,105,105,same,valid,anti,2,2,1,0.006299936369032366,0,j,change,0.2180057652931282,0.5657230764381773,0.4998322625506262,0.035350908027339756,0.35331087426175145,1.001057419447534,3.942818848686329
5,22,male,230,75,125,change,valid,clock,5,0,2,0.030605189020661783,1,j,change,0.6971501952557446,0,0.5001889050818136,0.03533551338568941,0.35328970662976644,1.0010837186268873,4.3549375747279555
5,22,male,231,15,325,change,catch,anti,3,0,2,0.05630686395761586,1,j,change,0.05581263181647955,0,0.5006231622646737,0.03532396740456534,0.3532977246718474,1.0010837186268873,3.7318763374096307
5,22,male,232,165,165,same,valid,anti,5,0,1,0.1324503651098894,0,j,change,0.5345952877000855,0,0.49945188661331485,0.035373037824683706,0.35330959137490936,1.001069606872079,4.283464102261405
5,22,male,233,75,75,same,valid,clock,5,1,2,0.32027653907925924,1,j,change,0.02221703365785288,0.17929242170949153,0.5006706290764669,0.03532813678657476,0.35330862921000517,1.0010692861501411,3.966890615939519
5,22,male,234,135,135,same,catch,clock,3,2,2,0.10657068962837002,1,j,change,1.189924014614462,0,0.5004608770841514,0.03533583410717256,0.35330253549727786,1.0010538915084908,4.885943024431526
5,22,male,235,105,105,same,valid,anti,5,0,1,0.06972008692855525,0,j,change,1.0720879752452674,0,0.5000551641323909,0.03533872060279464,0.35331889230428715,1.0010676825422706,4.791139934726743
5,22,male,236,135,135,same,valid,clock,4,1,1,0.287366323194874,0,f,same,0.5590009262446074,0.17681704729450196,0.5000163568065545,0.035335834107627306,0.3532900273512496,1.0010837186268873,4.496873925582349
5,22,male,237,165,115,change,valid,anti,3,1,1,0.19323739050560107,0,j,change,1.225949400378795,0.18115986892908403,0.4998226408993105,0.03532749534269897,0.35327880209160867,1.0010840393483704,5.131933682449471
5,22,male,238,45,45,same,valid,anti,2,2,1,0.16617425194863245,0,f,same,0.664562946123624,0.5720089685712579,0.5002520872567402,0.03528932946073837,0.3533426257104111,1.0010397797536825,4.508637676845865
5,22,male,239,75,125,change,valid,clock,4,0,2,0.46340661610383904,1,f,same,1.1351601427595597,0,0.49997466298600557,0.03536341617336802,0.3533195337477082,1.0010606266646391,5.2858368014040025
5,22,male,240,135,135,same,valid,anti,2,2,2,0.18971618695240977,1,f,same,0.5628861489281007,0.5778531352147748,0.4996933900542899,0.0353448143150672,0.35330959137490936,1.0010397797536825,4.389729464830907
5,22,male,241,15,15,same,catch,anti,1,0,2,0.19465273537116445,1,j,change,0.4471492330903857,0,0.5004759510038639,0.03532364668308219,0.35327463270959925,1.0010962267733703,4.320716248530971
5,22,male,242,15,325,change,valid,anti,3,0,2,0.1463937410521794,1,f,same,0.5942129617751561,0,0.49996407916933094,0.035293178121264646,0.35334166354505214,1.0010663996549738,4.414080259964521
5,22,male,243,165,215,change,valid,clock,1,2,2,0.26017072657577955,1,j,change,0.45866699080943363,0.5762609084412282,0.5001292508454753,0.035311138536144426,0.3533124778700767,1.0010962267729155,4.425949849388871
5,22,male,244,45,95,change,valid,clock,4,0,2,0.2145814196937863,1,j,change,0.8792469967620491,0,0.5001119318735618,0.03530600698923081,0.353327231068306,1.0010237436686111,4.790833966224
5,22,male,245,15,15,same,valid,anti,5,0,1,0.2850815017986861,0,f,same,1.0516028387719416,0,0.5002588224128885,0.03534353142777036,0.35325603085084367,1.0011026412075807,4.991786958686134
5,22,male,246,45,95,change,catch,clock,3,1,2,0.1817834564049008,1,f,same,0.679132691547693,0,0.4997985867717034,0.03533390977690942,0.35330413910605785,1.001068965428658,4.495926513678114
5,22,male,247,105,155,change,valid,clock,4,2,2,0.1354542445592415,1,j,change,0.6714568590828094,0.5747351849858552,0.5004698572915913,0.03529510245152778,0.35334005993627216,1.0010798699668157,4.496825817327135
5,22,male,248,165,215,change,valid,clock,2,1,2,0.10336026540335297,1,j,change,0.8169150549333608,0.18527124174519943,0.5002700476720747,0.03536085040013859,0.3532993282806274,1.0010657582115527,4.590896378666912
5,22,male,249,165,165,same,valid,clock,4,1,2,0.17129810184087546,1,f,same,0.5534457056646716,0.18296909981882312,0.5003284190215709,0.035333268333943124,0.35327174621397717,1.0010744176975095,4.355926039009773
5,22,male,250,135,85,change,valid,anti,2,2,2,0.17109251923056945,1,j,change,0.8977247361103764,0.5731357528804275,0.49971327479943284,0.035307931319493946,0.35333621127620063,1.0010378554238741,4.707898541614213
5,22,male,251,165,215,change,valid,clock,5,1,1,0.04400269662801293,0,j,change,0.3429477146651152,0.1805910972344457,0.5033656535283626,0.03528900873925522,0.35331760941744506,1.0010603059427012,4.122702991178812
5,22,male,252,75,125,change,valid,clock,1,2,1,0.079505626741593,0,f,same,0.23008125805017698,0.5715676675015564,0.5000708794959792,0.03534770081023453,0.35330542199289994,1.0010439491361467,4.001546520041302
5,22,male,253,75,75,same,valid,clock,3,2,2,0.07419607898464164,1,j,change,0.027043895255246753,0.576900977056577,0.5005638287498186,0.035305365545809764,0.35333140045077016,1.0010625509949023,3.8258551723429264
5,22,male,254,75,25,change,valid,anti,5,2,1,0.03394293976089102,0,j,change,0.09509205995709635,0.5754748420173508,0.500088839910859,0.03535219091418185,0.35331760941744506,1.0010663996554285,3.8369235989594017
5,22,male,255,135,85,change,valid,anti,5,2,2,0.23551941520918263,1,j,change,0.9977751535616335,0.5809770520283803,0.5002992333470502,0.03533519266375151,0.3532743119881161,1.0010885294527725,4.826905215191346
5,22,male,256,135,135,same,catch,anti,3,2,1,0.7446394574926671,0,f,same,2.4245720289623023,0,0.4997584965594797,0.03533519266375151,0.3532964417850053,1.0010513257352613,6.898956948884916
5,22,male,257,75,25,change,valid,anti,2,1,2,0.5557905020195903,1,f,same,0.6379946811516675,0.18451069799564238,0.5002030168366218,0.03532653317824952,0.3533166472520861,1.001068965428658,4.9320416373739135
5,22,male,258,165,165,same,valid,anti,2,1,2,1.003572519025056,1,j,change,2.3769047661812692,0.18223036236004556,0.500398015630708,0.035293498842747795,0.3533227409643587,1.0010789078014568,7.111825393974414
5,22,male,259,45,95,change,valid,clock,2,2,3,0.32781029183115606,1,j,change,0.9914255053290617,0.5794788240097368,0.49963598086969796,0.03530664843219711,0.35333268333761225,1.0010769834711937,4.919750298912277
5,22,male,260,45,355,change,valid,anti,3,1,2,0.3116677271864319,1,j,change,2.5536836811666035,0.17996612305396034,0.5000676722788739,0.035274255540571176,0.3533371734411048,1.0010795492448779,6.58149217695609
5,22,male,261,45,45,same,valid,anti,2,0,1,0.25672296829179686,0,j,change,1.1174200633231521,0,0.49981622646510004,0.0353223637962401,0.35330125261043577,1.0010744176979642,5.061907306296689
5,22,male,262,15,15,same,valid,clock,2,0,2,0.719118348873053,1,f,same,2.244321622287316,0,0.49974278119589144,0.035407355046572775,0.3533092706534262,1.0010744176975095,6.662959016898185
5,22,male,263,135,135,same,valid,clock,1,0,1,0.23385358669474954,0,j,change,2.247735704792376,0,0.5005663945235028,0.03529510245152778,0.35334102210117635,1.0010558158392087,6.227942685748985
5,22,male,264,75,75,same,valid,clock,5,0,3,0.5743272541603801,1,j,change,0.19883783284512901,0,0.5000490704201184,0.035334871942268364,0.35330798776612937,1.0010984718251166,4.46141236856829
5,22,male,265,135,85,change,valid,anti,2,1,1,0.2650623739564253,0,f,same,1.9387893012371933,0.17779530993012127,0.4999727386552877,0.035334871942268364,0.35329868683720633,1.001092378112844,5.932949921230829
5,22,male,266,105,155,change,valid,clock,2,2,2,0.7352038250555779,1,f,same,0.510141861622742,0.578053251186381,0.5005198898770686,0.035295102451073035,0.35330670487974203,1.0011212430658816,4.908914074807399
5,22,male,267,105,105,same,valid,anti,1,2,2,0.5250740225687878,1,f,same,0.34695673592523235,0.5766965878966576,0.5003739615031009,0.03534577647997139,0.35330157333237366,1.0010413833624625,4.472800233998441
5,22,male,268,135,185,change,catch,clock,5,2,2,0.4739532285129826,1,j,change,0.8258256659464678,0,0.5004987222446289,0.03531306286686231,0.3533144022003398,1.001035931093611,4.97972461551899
5,22,male,269,165,115,change,valid,anti,1,1,1,0.12149707758362638,0,j,change,0.9810097473737187,0.18156139875637817,0.5004602356407304,0.035330061116837896,0.3532752741530203,1.0010885294523177,4.791053019145693
5,22,male,270,15,65,change,valid,clock,5,2,2,0.1007896809715021,1,j,change,0.5205906539126772,0.575393503083332,0.5005192484336476,0.03535058730540186,0.3533089499314883,1.0010439491361467,4.261939186033942
5,22,male,271,15,15,same,valid,clock,3,2,1,0.365837622451636,0,j,change,1.1020353640574285,0.5741304328258072,0.49972353789416957,0.035294781729589886,0.3533086292095504,1.0010846807917915,5.131934323893347
5,22,male,272,105,105,same,catch,clock,3,0,2,0.3210914929209139,1,j,change,1.0261651177947897,0,0.5004227112017361,0.03533519266375151,0.35330061116746947,1.0010670410983948,5.050891478039375
5,22,male,273,45,45,same,catch,clock,2,0,2,0.450382428555713,1,j,change,2.6224095308225515,0,0.4999627962829436,0.03533968276815358,0.3533092706534262,1.0010670410983948,6.6752586941238405
5,22,male,274,75,25,change,valid,anti,4,1,1,0.16895907847674607,0,f,same,0.6561241167328262,0.18510776088775832,0.5003287397435088,0.035357001739612315,0.353283292195556,1.0010195742870565,4.567040777839793
5,22,male,275,15,15,same,valid,clock,1,1,1,0.19903379380411934,0,j,change,0.4103797729803773,0.18880788269605533,0.5005558107072829,0.03530023399889615,0.3533304382854112,1.0010766627497105,4.2968244061517
5,22,male,276,135,135,same,valid,clock,3,0,1,0.25465752053924007,0,j,change,0.3116898569837758,0,0.5002168078694922,0.03532525029140743,0.3532848958038812,1.0010779456365526,4.34394644204167
5,22,male,277,45,95,change,valid,clock,2,1,2,0.17140618505391103,1,j,change,0.5062473380098709,0.19248969052703138,0.49948043084486926,0.03537143421590372,0.3532909895161538,1.001058381612438,4.342560603572565
5,22,male,278,75,75,same,valid,clock,4,0,2,0.08758043700254348,1,j,change,0.09427293673343229,0,0.5004996844099878,0.03531659080499594,0.35329098951660853,1.0011241295615037,3.9318729377596355
5,22,male,279,135,85,change,valid,anti,1,1,2,0.21478636086067127,1,j,change,0.5689384881434307,0.1903830629752314,0.49995606112679525,0.035327174621670565,0.35329644178546005,1.0010458734664098,4.496860455270962
5,22,male,280,165,165,same,catch,clock,2,1,2,0.3875985898507679,1,j,change,1.4181899878385593,0,0.49905547459093214,0.0353297403949,0.35330830848806727,1.001093340278203,5.520268328603834
5,22,male,281,135,185,change,valid,clock,1,0,3,1.4404156809819142,1,f,same,1.0289849029877587,0,0.5002366926150899,0.03534288998480406,0.3533291553990239,1.0010545329523666,6.122140766037319
5,22,male,282,135,135,same,valid,clock,5,1,3,0.5085058602271602,1,f,same,0.4270563392569784,0.18833065104284422,0.4999855675237086,0.03532717462121582,0.35332915539856913,1.0010388175887783,4.613807454085418
5,22,male,283,135,135,same,catch,clock,3,2,2,0.2711259384313962,1,f,same,0.9439230935022351,0,0.5006478578357019,0.03530857276291499,0.35332434457313866,1.0010417040844004,4.909015422865195
5,22,male,284,45,355,change,valid,anti,1,0,2,0.2862328927044473,1,f,same,1.0985446290660548,0,0.5007565824921585,0.03534641792339244,0.353260520954791,1.001090774504064,5.0391258024455965
5,22,male,285,165,215,change,valid,clock,4,2,3,0.24297202537036355,1,j,change,0.7047041534742675,0.578718541429712,0.49951635167508357,0.035330381838321046,0.35331536436569877,1.0010301581028216,4.613336313906984
5,22,male,286,135,135,same,catch,clock,1,0,1,0.17807847931726428,0,f,same,0.5180126928821664,0,0.5006638939207733,0.03531402503131176,0.353327231068306,1.001046194187893,4.414976356395982
5,22,male,287,135,135,same,valid,clock,4,2,2,0.18714913045914727,1,j,change,0.6098340329344865,0.5774270338292113,0.5000038486605263,0.03533647555104835,0.3533099120963925,1.001069927594017,4.378971496821123
5,22,male,288,135,135,same,valid,clock,4,0,2,0.2081175945359064,1,f,same,0.47516267004675683,0,0.49992687545227454,0.035345135036550346,0.35331311931349774,1.0010740969760263,4.42590045824727
5,22,male,289,75,75,same,valid,clock,1,2,3,0.3170067813393871,1,f,same,0.9091328070076088,0.5761901760614486,0.5000788975380601,0.03531915657868012,0.3533346076678754,1.0010535707870076,4.872978491120193
5,22,male,290,165,215,change,valid,clock,5,2,1,0.34544517454969537,0,j,change,0.5535505816610566,0.5749955398872506,0.5004490103810895,0.035346417923847184,0.35329163095957483,1.001057419447534,4.696732615600922
5,22,male,291,105,155,change,valid,clock,5,0,1,0.23384139927065917,0,j,change,1.09375689551689,0,0.5006045604059182,0.03537656576327208,0.3532351839403418,1.0010869258439925,5.038876601684024
5,22,male,292,105,155,change,valid,clock,3,2,2,0.3272066935901421,1,f,same,0.28487046691952855,0.5793138123673334,0.5001863393081294,0.035305044824326615,0.35327206693591506,1.001116752962389,4.2959565332294005
5,22,male,293,165,165,same,valid,anti,5,1,2,0.4774811672218675,1,f,same,0.36753327808355607,0.18640055559456303,0.5006998147509876,0.03526559605506918,0.35335513385643935,1.0010673618203327,4.567925328290585
5,22,male,294,45,45,same,valid,clock,1,0,2,0.33780333858476297,1,j,change,0.04664480199880927,0,0.49996055123074257,0.03532813678657476,0.3533224202428755,1.0010619095514812,4.048760923781174
5,22,male,295,45,355,change,valid,anti,4,2,2,0.3727203101507257,1,f,same,0.4089762948178759,0.578077694323065,0.5002216186953774,0.03533390977690942,0.35327880209160867,1.0010984718255713,4.484781755297263
5,22,male,296,105,155,change,valid,clock,4,0,2,0.2712830920650049,1,j,change,0.23852265321511368,0,0.5002924981913566,0.03533006111638315,0.3533314004503154,1.0010680032637538,4.178852060059398
5,22,male,297,105,105,same,valid,anti,3,1,2,0.2858842682157956,1,f,same,0.19903058658746886,0.18455179401960747,0.5001869807515504,0.03533390977690942,0.3533012526108905,1.0010680032637538,4.201966473036009
5,22,male,298,75,75,same,valid,clock,4,1,3,0.201941777464981,1,j,change,0.17523720576991764,0.18265914325527924,0.5004518968762568,0.035306648432651855,0.353294196733259,1.0010856429571504,4.037859593171106
5,22,male,299,15,15,same,valid,clock,5,0,3,0.2062025652603552,1,j,change,0.1730890118183197,0,0.49965041334598936,0.03535507740934918,0.3533134400349809,1.0010676825422706,4.036627059675084
5,22,male,300,165,215,change,valid,clock,5,0,3,0.301265760264414,1,j,change,0.3790324339443032,0,0.5003797344938903,0.035329419672962104,0.35333107972883226,1.0010744176975095,4.355891080344918
5,22,male,301,15,325,change,valid,anti,3,1,2,0.09201986678544927,1,f,same,0.3555912055544468,0.1807769714422722,0.5009951994379662,0.03531979802210117,0.35331247786962194,1.0010689654282032,4.1321607534137
5,22,male,302,105,105,same,catch,clock,4,2,2,0.2972727750893682,1,j,change,0.8266954631990302,0,0.500201733949325,0.03530344121554663,0.35331247786962194,1.00107922852294,4.826689048765729
5,22,male,303,165,165,same,valid,anti,1,1,1,0.14772730188360583,0,f,same,0.2922945328491551,0.17891015808382518,0.5000525983596162,0.03533102328219684,0.35330381838411995,1.0010952646080113,4.143060480415443
5,22,male,304,135,185,change,catch,clock,3,2,2,0.13908032410836313,1,j,change,0.25921241013384133,0,0.5003483037671685,0.035343210706741957,0.35329323456790007,1.001071531202797,4.0848696971870595
5,22,male,305,105,155,change,valid,clock,1,0,1,0.1927207078460924,0,j,change,0.2395608293609257,0,0.49991981957464304,0.03530536554626451,0.3533423049884732,1.001048759962032,4.14281448687143
5,22,male,306,45,355,change,valid,anti,1,2,2,0.11677316765235446,1,j,change,0.6421685533650816,0.5768969142079687,0.5004445202775969,0.035318515135259076,0.3533041391056031,1.0010821150181073,4.437915655325014
5,22,male,307,45,45,same,catch,anti,4,0,1,0.1061457333744329,0,j,change,0.207125281594017,0,0.5003117414935332,0.03533166472516314,0.3532855372468475,1.001069606872079,4.048908135041529
5,22,male,308,75,75,same,valid,anti,3,0,1,0.15944326561384514,0,j,change,0.7054976189619993,0,0.5006587623729502,0.035304082658512925,0.35332530673804285,1.0010753798633232,4.544045673335859
5,22,male,309,105,55,change,valid,anti,5,0,1,0.3086144565950235,0,f,same,0.33653488425807154,0,0.5004377851209938,0.0354185803062137,0.3532169028039789,1.0010484392396393,4.331904304342061
5,22,male,310,15,15,same,catch,clock,3,0,2,0.1543986339820549,1,f,same,0.3059197528646109,0,0.5003810173802776,0.03531402503085701,0.3533073463231631,1.0010769834716484,4.107969998409317
5,22,male,311,135,135,same,valid,anti,1,2,2,0.24270710924611194,1,j,change,0.23597772651919513,0.5757599900757545,0.5006456127839556,0.03536085040013859,0.35328585796924017,1.0010875672869588,4.132146641658437
5,22,male,312,15,65,change,valid,clock,5,1,2,0.15884191242548695,1,j,change,0.2853226845172685,0.1820838835060297,0.5001100075432987,0.0353374377154978,0.35333204189373646,1.001057740169017,4.154911147260464
5,22,male,313,105,55,change,valid,anti,2,1,2,0.19140927681110043,1,j,change,0.26334073986618023,0.18026969889586583,0.500207186219086,0.03533551338568941,0.3533275517893344,1.0010484392396393,4.107768264459082
5,22,male,314,135,135,same,catch,anti,3,2,2,0.28110551487407065,1,j,change,0.2941098176761443,0,0.5001228364108101,0.035319156578225375,0.35332530673804285,1.0010644753247107,4.284562574087431
5,22,male,315,105,105,same,valid,anti,5,2,2,0.33093829057906987,1,j,change,0.34018726298654656,0.5746566461773555,0.5004810825512322,0.035337437716407294,0.35326212456311623,1.0010885294523177,4.285131534384163
5,22,male,316,15,325,change,catch,anti,4,1,2,0.2964116373223078,1,j,change,0.05110539941324532,0,0.5000093009293778,0.03535347380056919,0.353320175191584,1.001069606872079,4.0138532531436795
5,22,male,317,15,15,same,valid,anti,1,1,2,0.26184104519415996,1,j,change,0.21528059300180757,0.17849482258864205,0.500237654779994,0.03530568626774766,0.35331183642665565,1.0010971889378197,4.049188766530278
5,22,male,318,15,65,change,valid,clock,1,1,2,0.36207363257108227,1,j,change,0.2618317442638727,0.17682093171355495,0.5001430418788004,0.0352851600791837,0.3533336455029712,1.0010622302734191,4.284832942480534
5,22,male,319,165,165,same,valid,anti,3,0,3,0.3979181312952278,1,j,change,0.46651889948770986,0,0.4997767776967521,0.0353669441119564,0.3532999697235937,1.0010692861505959,4.5547571366996635
5,22,male,320,165,165,same,catch,anti,4,2,3,0.3084640381175632,1,f,same,0.8901512138672842,0,0.5006613281466343,0.035304403379996074,0.35333075900689437,1.001067361819878,4.838955691655428
5,22,male,321,45,95,change,valid,clock,4,1,2,0.2131263053370276,1,f,same,1.1535737377671467,0.17521731597354612,0.5001513806428193,0.03535251163611974,0.3532993282806274,1.001057740169017,5.062201728817854
5,22,male,322,75,75,same,valid,anti,3,1,2,0.2426458514009937,1,f,same,0.28283260123225773,0.1736571122299425,0.499894803281677,0.03532396740411059,0.3533368527187122,1.0010378554234194,4.272816141794465
5,22,male,323,15,15,same,valid,anti,5,2,4,0.4427951152802052,1,f,same,0.7691666495611571,0.5734882600345441,0.499659393553884,0.03533102328219684,0.3533269103463681,1.0010622302725096,4.896610228199279
5,22,male,324,135,85,change,valid,anti,3,1,1,0.22256482427019364,0,j,change,0.8218823926354162,0.1720381503621265,0.5000076973210525,0.03530921420588129,0.3533371734411048,1.0010757005838968,4.767793639960473
5,22,male,325,75,25,change,catch,anti,5,2,3,0.41148369707389065,1,j,change,1.0047614343702662,0,0.49982264089885575,0.03531210070104862,0.35329644178455055,1.001093340278203,5.07299273116314
5,22,male,326,75,75,same,valid,anti,2,2,2,0.07719803410418535,1,f,same,0.20303800423789653,0.5723354274655972,0.5008335557004102,0.035300875441862445,0.353337494162588,1.001058702334376,3.9790982460372106
5,22,male,327,45,355,change,valid,anti,2,1,2,0.058310091700150224,1,j,change,0.22761170095327543,0.17469972920338844,0.4997700425410585,0.035325250291862176,0.3533275517902439,1.0010272716071995,4.0254579264446875
5,22,male,328,45,95,change,catch,clock,1,0,1,0.09950743561148556,0,j,change,1.0700135472852708,0,0.499409872070828,0.03535187019224395,0.35327367054378556,1.0010994339900208,4.896451150236317
5,22,male,329,165,165,same,valid,clock,1,1,3,0.19817874974978622,1,j,change,0.1506378513186064,0.173126996825697,0.5003508695408527,0.03532076018746011,0.3533182508608661,1.0010384968672952,3.9671779825830527
5,22,male,330,105,105,same,valid,clock,2,2,3,0.28094130536373996,1,j,change,0.17312268759633298,0.5711882125586125,0.499818792239239,0.03534770081023453,0.3533304382854112,1.0010651167685864,4.154843474981135
5,22,male,331,15,325,change,valid,anti,4,1,1,0.08342548736891331,0,j,change,0.238681731178076,0.17156252508352177,0.4998537509045491,0.035327495343153714,0.35330381838502944,1.0010753798633232,4.072655011212191
5,22,male,332,165,165,same,valid,anti,2,2,2,0.1720104247378913,1,j,change,0.6272671817023365,0.5700372020331621,0.4999047456549306,0.03534096565454092,0.3533127985920146,1.0010708897589211,4.448927314198954
5,22,male,333,165,115,change,catch,anti,4,2,2,0.5307710021397725,1,j,change,0.7281296665005357,0,0.5004579905880746,0.03527810420109745,0.35333011756392807,1.0011045655382986,4.89782095262035
5,22,male,334,15,15,same,catch,anti,5,0,3,0.1349798971632481,1,f,same,0.6148465923961339,0,0.4996754296389554,0.0353146664756423,0.35332594818191865,1.0010401004756204,4.425845294114879
5,22,male,335,165,215,change,catch,clock,2,1,2,0.08252265578084916,1,f,same,0.8629334874503911,0,0.4999958306179906,0.035354115244444984,0.353314722921823,1.0010580608905002,4.638134515813363
5,22,male,336,135,135,same,valid,clock,2,2,2,0.4212320331707815,1,j,change,0.8472546863849857,0.5689116115908592,0.5001436833217667,0.035337437716407294,0.3533342869459375,1.0010721726457632,4.956162475047677
5,22,male,337,165,115,change,catch,anti,4,2,2,0.26175188455999887,1,j,change,0.49338511492078396,0,0.49998364319344546,0.03535636029573652,0.3532919516819675,1.0009862192300716,4.378928199391339
5,22,male,338,165,165,same,catch,clock,2,0,1,0.0674699034761943,0,f,same,0.07149271576872707,0,0.4996808819078069,0.03530183760722139,0.35331793013938295,1.001092378112844,3.8605845217143724
5,22,male,339,75,125,change,valid,clock,5,2,3,0.07057865892147674,1,f,same,0.2012583195210027,0.5678385818659439,0.4994201351646552,0.0353361548295652,0.3532881030214412,1.001092378112844,3.9075118795317394
5,22,male,340,105,155,change,valid,clock,5,2,3,0.04375670308309054,1,j,change,0.23407231889450486,0.5668084974787749,0.49963630159072636,0.035314025031766505,0.35334134282311425,1.0010631924378686,3.9658168396854308
5,22,male,341,15,325,change,valid,anti,4,0,1,0.6301982573259011,0,f,same,0.1797321204066975,0,0.5005311151362548,0.03530568626774766,0.3533089499314883,1.0010484392396393,4.579912301857803
5,22,male,342,75,75,same,valid,anti,1,0,2,0.190967963750154,1,j,change,0.12541020305525308,0,0.4995641392088146,0.035319156578225375,0.3532881030205317,1.0010593437782518,3.98972119021073
5,22,male,343,135,135,same,valid,anti,1,1,1,4.6183924496290274e-05,0,f,same,0.17060822946223198,0.17414834994936113,0.500111611151624,0.035315628640091745,0.3533403806577553,1.001068323985237,3.9429259697344605
5,22,male,344,15,65,change,valid,clock,1,2,1,1.940482070373946,0,f,same,0.24804455979028717,0.5658127861772868,0.500377489442144,0.03533294761200523,0.353306063436321,1.0010295166594005,5.827995668974836
5,22,male,345,165,215,change,valid,clock,2,2,2,0.16759857702163572,1,j,change,0.6258973793183031,0.5696920846331361,0.49935053855551814,0.03533936204621568,0.3533076670446462,1.001046835631314,4.472373674136179
5,22,male,346,135,135,same,catch,clock,2,1,4,1.2725518671131795,1,j,change,0.6778408245363607,0,0.4998040390410097,0.03531659080545069,0.3533054219924452,1.0011096970847575,5.685690488164255
5,22,male,347,165,165,same,valid,clock,2,0,3,0.44049874790198373,1,j,change,0.8111369327716602,0,0.500105196718323,0.03532236379578535,0.35330445982799574,1.0010449113015056,5.026719004172264
5,22,male,348,75,25,change,catch,anti,2,1,2,0.07747674126312631,1,f,same,0.8629979525130693,0,0.4994493208396307,0.03533936204621568,0.35332338240823447,1.0010352896497352,4.660336154829565
5,22,male,349,135,185,change,valid,clock,3,1,3,0.07933949290054443,1,f,same,0.4155648807172838,0.17662867632568546,0.5007665248649573,0.035304082658512925,0.3533073463231631,1.0010519671786824,4.190955455604126
5,22,male,350,165,115,change,valid,anti,3,2,2,0.09741953734010167,1,f,same,0.30272151606368425,0.5686449750428912,0.5000179604148798,0.03537752792817628,0.3532935552902927,1.0010638338817444,4.10768968764296
5,22,male,351,45,95,change,catch,clock,2,0,2,0.42202293288482906,1,j,change,1.1816651100971285,0,0.5078137427963156,0.03533904132382304,0.3533089499314883,1.0010689654282032,5.292921543775265
5,22,male,352,15,15,same,valid,clock,3,0,2,0.2087888650557943,1,j,change,0.615107018416893,0,0.5001978852887987,0.035373037824683706,0.3532707840495277,1.001057740169017,4.543477675203576
5,22,male,353,75,75,same,valid,clock,2,0,2,0.11449283636011387,1,j,change,0.2628295094746136,0,0.49995060885794373,0.035284197913824755,0.353337494162588,1.0010458734668646,4.107297445002587
5,22,male,354,135,85,change,valid,anti,5,1,2,0.2774877740885131,1,j,change,0.3546989577826025,0.17518364939718817,0.5007049462983559,0.03531017637124023,0.35330189405431156,1.0010776249146147,4.308901181795591
5,22,male,355,75,25,change,valid,anti,4,0,1,0.20559287330706866,0,j,change,0.30226352547560964,0,0.4998986519422033,0.035299913277413,0.3533249860165597,1.0010750591409305,4.260791323066769
5,22,male,356,15,65,change,valid,clock,2,1,1,0.19472425631010992,0,f,same,0.9917491135247474,0.17377414882366862,0.5001577950770297,0.035297668225211964,0.35331247787053144,1.0010785870790642,4.861866446351996
5,22,male,357,165,165,same,valid,clock,5,1,2,0.18151276728895027,1,f,same,0.25437143678209395,0.1761698268330278,0.4997453469695756,0.035332626889612584,0.3533121571481388,1.0010724933672464,4.072560077588605
5,22,male,358,105,105,same,valid,anti,4,1,2,0.14111594474343292,1,j,change,0.1904012485056228,0.17478348249556397,0.49969980448804563,0.03542114607989788,0.35330317694115365,1.0010728140887295,3.954755148224649
5,22,male,359,165,165,same,valid,clock,2,2,2,0.04599983065872948,1,f,same,0.08520837930336711,0.5676437491477302,0.49977036326163216,0.035329419672962104,0.3533230616858418,1.0010612681071507,3.871755258553094
5,22,male,360,45,45,same,valid,anti,2,1,2,0.09980570679363154,1,j,change,0.23560055779853428,0.17335755824595717,0.5003887147013302,0.03536405761678907,0.35330189405340207,1.0010612681080602,4.025829642895587
5,22,male,361,135,135,same,valid,anti,1,0,2,0.08798101840693562,1,f,same,0.25204395939908864,0,0.4999348934943555,0.03530344121554663,0.353348398700291,1.001038176145812,3.9786258229714804
5,22,male,362,165,165,same,valid,clock,5,2,2,0.05689218106090266,1,j,change,0.15246949295215018,0.5666801636238048,0.4998438085312955,0.035314025031766505,0.3533070256016799,1.0010753798633232,3.8839202326644227
5,22,male,363,45,45,same,catch,clock,3,0,2,0.10237308400883194,1,j,change,0.6477051720858071,0,0.5001334202279395,0.03532492956946953,0.35332177879899973,1.0010689654291127,4.437940671617071
5,22,male,364,135,185,change,valid,clock,5,1,2,0.24152524977762369,1,f,same,0.10589621189137688,0.17193939896095595,0.5001991681756408,0.03530504482387187,0.3533378148840711,1.001073776254998,4.049085814864156
5,22,male,365,45,355,change,valid,anti,2,2,2,0.13138749339304923,1,j,change,0.231507186732415,0.5657467752559666,0.5002607467431517,0.035335834108082054,0.3532967625069432,1.001035931093611,4.025901484556016
5,22,male,366,105,55,change,valid,anti,4,2,2,0.23907621887155983,1,j,change,1.1682704889853994,0.5648367988659813,0.499829696776942,0.035357001739612315,0.3533108742612967,1.0010500428479645,5.073839436453454
5,22,male,367,15,15,same,valid,anti,2,1,2,0.21833546720154118,1,j,change,0.08108646400432917,0.1705090337892351,0.4997915308940719,0.03531370430937386,0.35330927065297146,1.0010593437773423,3.977889125224465
5,22,male,368,45,355,change,valid,anti,1,1,2,0.21744129509988852,1,j,change,0.8318885889784724,0.16908005117223796,0.5002912153040597,0.03536117112253123,0.35329098951569904,1.0010731348111221,4.7908993934506725
5,22,male,369,165,115,change,valid,anti,2,1,2,0.1595160694396327,1,j,change,0.32004016718565254,0.1677266230589542,0.5004310499662097,0.035277783478704805,0.3533525680823004,1.001057419447534,4.214746912090959
5,22,male,370,45,355,change,catch,anti,4,1,2,0.10821278473667917,1,j,change,0.0837587172163694,0,0.49938357289101987,0.03532621245631162,0.35333011756392807,1.0010468356322235,3.9066164245432446
5,22,male,371,75,75,same,valid,anti,5,1,2,0.07486414228696958,1,f,same,0.210045452678969,0.16643421886303542,0.5002835179839167,0.035302158328704536,0.3533317211722533,1.0010651167685864,3.9315833260634463
5,22,male,372,45,45,same,valid,anti,3,2,2,0.20456880891651963,1,f,same,0.08961541619373747,0.5638700627946642,0.4999906990706222,0.035330061116837896,0.35331857158234925,1.001058702334376,3.9898244625983352
5,22,male,373,105,105,same,valid,anti,1,0,2,0.1547944045614713,1,f,same,0.9063582435746866,0,0.5001776798226274,0.0353367962725315,0.3532922724034506,1.0010760213062895,4.7796808690791295
5,22,male,374,15,65,change,valid,clock,3,0,3,0.17802139085415547,1,f,same,1.3298670800986656,0,0.4998136606918706,0.035330061116837896,0.3533002904459863,1.001047797796673,5.1209072703759375
5,22,male,375,135,85,change,valid,anti,4,2,1,1.1390254806974554,0,j,change,0.2173720192122346,0.562914627463464,0.49980596337081806,0.03529830966817826,0.35331472292273247,1.0010926988352367,5.284934611259814
5,22,male,376,165,115,change,valid,anti,2,0,1,0.09819921179496305,0,f,same,0.2760782022132844,0,0.5000750488779886,0.03529895111114456,0.3533310797283775,1.0010699275935622,4.084349807309991
5,22,male,377,105,105,same,valid,clock,4,1,1,0.13120949284893868,0,f,same,0.23998931355254172,0.16518499582445456,0.5001436833217667,0.03532460884798638,0.3533144022003398,1.0010798699668157,4.048905569267845
5,22,male,378,45,45,same,catch,anti,4,1,1,0.08140141271451284,0,f,same,0.041051094815884426,0,0.5003027612856386,0.035357001739612315,0.3533002904459863,1.0010484392396393,3.836821288736246
5,22,male,379,75,75,same,valid,anti,4,0,1,0.21850512898072338,0,j,change,0.2588509567767687,0,0.5009361866441395,0.03530279977258033,0.35330125261043577,1.0010651167685864,4.238152219650146
5,22,male,380,165,215,change,valid,clock,4,1,1,0.1494114115348566,0,j,change,0.2553621461156581,0.1674549176002345,0.5003130243794658,0.03533872060233989,0.35327174621488666,1.00106864470672,4.107843954780947
5,22,male,381,135,185,change,valid,clock,4,2,1,0.18908596881101403,0,f,same,0.03075336244637583,0.5661756891689101,0.5002251466339658,0.035340324211574625,0.35330798776612937,1.0010532500655245,3.789656596860368
5,22,male,382,105,55,change,valid,anti,1,0,1,0.2999325201535612,0,f,same,0.7471510291316008,0,0.5006112955625213,0.03532492956946953,0.35333877705033956,1.0010439491361467,4.6859380853175026
5,22,male,383,165,165,same,valid,anti,5,2,1,0.20777538448146515,0,j,change,0.18413498791505845,0.5696693694793926,0.49912539192246186,0.03534160709750722,0.35330317694115365,1.0010747384194474,4.048224677097096
5,22,male,384,75,25,change,valid,anti,1,2,1,0.19967844442271598,0,f,same,0.2770679493823991,0.5730989731252414,0.5000224505192818,0.03535732246200496,0.35332049591306713,1.0010506842918403,4.142892742966069
5,22,male,385,135,135,same,valid,clock,2,1,1,0.11585365853625262,0,j,change,0.1783039466727132,0.16976631657943717,0.5004486896596063,0.035343531428225106,0.35330061116746947,1.0010538915084908,4.001853129986557
5,22,male,386,165,165,same,valid,clock,4,2,1,0.2542710508896562,0,j,change,0.3526155496138017,0.5762589929825881,0.500514116886734,0.035344172871191404,0.3532967625069432,1.0010821150181073,4.296781750165792
5,22,male,387,15,65,change,catch,clock,4,1,1,0.34556544518727605,0,j,change,0.3085727627731103,0,0.5001677374502833,0.03530857276291499,0.3533243445735934,1.0010157256265302,4.378852509069475
5,22,male,388,75,75,same,valid,anti,5,2,1,0.569319826246101,0,j,change,0.2788944594685745,0.5796593929672559,0.5003909597526217,0.03531627008396754,0.35330574271483783,1.0010343274843763,4.544050804883227
5,22,male,389,135,135,same,valid,anti,5,0,3,0.3400727653397553,1,j,change,0.6320728756672906,0,0.49981943368311477,0.03532460884798638,0.3533342869459375,1.001067361819878,4.6376839018230385
5,22,male,390,105,105,same,valid,clock,5,0,2,0.19038777819423558,1,j,change,0.2839503163604604,0,0.5000715209389455,0.03532492956946953,0.35333204189373646,1.0010731348111221,4.095854415439135
5,22,male,391,45,95,change,valid,clock,5,1,2,0.24661510316946078,1,f,same,0.26118773508915183,0.17206566050053757,0.5004794789419975,0.03532621245631162,0.35330991209684726,1.0010638338817444,4.107860632308984
5,22,male,392,75,75,same,valid,anti,2,0,3,0.3431879352192482,1,j,change,0.44339614774798974,0,0.5004332950175012,0.03525950234325137,0.3533759807669412,1.0010635131602612,4.47371044218562
5,22,male,393,45,355,change,valid,anti,4,0,2,0.12669597635431273,1,f,same,0.5332155429432532,0,0.49921038317279454,0.03530023399889615,0.35334936086655944,1.0010612681080602,4.30726902906008
5,22,male,394,135,135,same,valid,anti,2,1,2,0.19239485459729622,1,j,change,0.2079405561571548,0.17075490319706027,0.5002203358080806,0.035355718852770224,0.3533217787999092,1.0010519671786824,4.119992572085721
5,22,male,395,45,355,change,valid,anti,5,0,2,0.1640789770781339,1,j,change,0.42882576087959023,0,0.4996189826188129,0.03533487194181362,0.35331728869550716,1.0010516464571992,4.284425305198965
5,22,male,396,105,155,change,catch,clock,1,0,2,0.25801355241583224,1,j,change,0.19257926957561722,0,0.49984220492297027,0.03537849009353522,0.3532672561104846,1.0010757005838968,4.083898872599093
5,22,male,397,165,115,change,catch,anti,3,0,1,0.10556618926148076,0,j,change,0.2596989449530156,0,0.5006885894918014,0.03533711699401465,0.3533054219933547,1.0010474770742803,4.049145789822433
5,22,male,398,75,25,change,valid,anti,5,0,2,0.17148989341785636,1,j,change,0.3043289732286212,0,0.5009932751072483,0.03530600698923081,0.353306063436321,1.00107922852294,4.144211550598811
5,22,male,399,135,135,same,valid,anti,2,0,1,0.06683904389046802,0,j,change,0.03725952286913525,0,0.49989384111722757,0.03530312049406348,0.3533342869459375,1.0010115562445208,3.813609055641791
5,22,male,400,15,65,change,valid,clock,1,0,2,0.1048939565771434,1,j,change,0.8707703222098644,0,0.4995150687882415,0.03532621245631162,0.35333460766742064,1.0010413833624625,4.660614861986687
5,22,male,401,165,165,same,valid,clock,5,0,2,0.2273862335978265,1,j,change,0.5805601596939596,0,0.5090318438160466,0.035345135036550346,0.3533054219933547,1.0010311202677258,4.494045160181486
5,22,male,402,105,105,same,valid,clock,3,1,2,0.22298529042018345,1,j,change,0.5033271669244641,0.1694301070237105,0.4991901777048042,0.03534609720099979,0.35330798776612937,1.0010538915094003,4.378247948664466
5,22,male,403,135,135,same,valid,anti,4,0,3,0.2455028403110191,1,j,change,0.451046322476941,0,0.499750478516944,0.03534000348918198,0.3533365319981385,1.0010763420277726,4.366793693841828
5,22,male,404,165,165,same,valid,clock,3,0,3,0.15149995125011628,1,j,change,0.4595027915611354,0,0.5000253370144492,0.035327495343153714,0.3533872060261274,1.0010615888295433,4.260865730501791
5,22,male,405,75,125,change,valid,clock,4,2,3,0.1341229287791066,1,j,change,0.7163441061620688,0.5830110781445104,0.5003226460312362,0.035316911526933836,0.35334487076215737,1.0010635131593517,4.5438997449628005
5,22,male,406,45,95,change,valid,clock,3,0,1,0.10833562114839879,0,j,change,0.34104679714437225,0,0.5002674818979358,0.03529029162564257,0.3533371734411048,1.001024064390549,4.095934275143009
5,22,male,407,75,125,change,valid,clock,1,0,1,0.18176260949439893,0,j,change,0.24306631755007402,0,0.5005590179243882,0.03529029162564257,0.35332113735603343,1.0011003961553797,4.11989827990601
5,22,male,408,105,105,same,catch,clock,5,2,3,0.3074758945567737,1,f,same,0.49920653451226826,0,0.5003373992294655,0.035317552969900134,0.35331728869550716,1.00106864470672,4.5317713331241976
5,22,male,409,15,325,change,valid,anti,1,2,2,0.09153108691316447,1,j,change,0.2790856096016796,0.5821105757347267,0.5007334905294556,0.03531562864100124,0.35333268333761225,1.0011010375992555,4.026122141086489
5,22,male,410,45,45,same,valid,clock,3,1,2,1.7511860288495882,1,j,change,0.16840070199577895,0.16816660028223246,0.5001911501340146,0.03532685389927792,0.35325635157278157,1.0010952646080113,5.603887211158508
5,22,male,411,45,95,change,valid,clock,5,2,2,0.9192445207909259,1,f,same,0.27000726113965356,0.5812085920581559,0.49969467294067726,0.03533807915937359,0.3533249860165597,1.0010708897589211,4.9315676107007675
5,22,male,412,45,45,same,catch,anti,3,1,1,0.5630269457542454,0,j,change,0.3396667316665116,0,0.5004923078104184,0.03527329337612173,0.35334743653584155,1.001070569037438,4.614853648273311
5,22,male,413,15,65,change,valid,clock,4,1,1,0.34949204097028996,0,f,same,0.7046493100633597,0.16696309464913264,0.49964496107713785,0.035315949361574894,0.35332915539856913,1.0010734555326053,4.802484182006083
5,22,male,414,105,55,change,valid,anti,3,2,2,0.6328650582690898,1,j,change,0.1064683794065786,0.5802993906773375,0.49999422700966534,0.03534930441855977,0.35332594818100915,1.001068323985237,4.472885225249229
5,22,male,415,15,65,change,valid,clock,2,2,1,0.869650041308887,0,f,same,1.2259192525389153,0.5793919641750316,0.500260426020759,0.03534000348918198,0.3532557101289058,1.0010843600703083,5.780969528872447
5,22,male,416,45,355,change,catch,anti,5,2,2,0.9840777711633564,1,j,change,0.09204071369549638,0,0.499591079831589,0.035292857400236244,0.3533330040590954,1.0010583816128928,4.813816562581451
5,22,male,417,75,125,change,valid,clock,2,2,2,0.47299010124515917,1,j,change,0.05283569298990187,0.5826023562682234,0.5006780056755815,0.03531498719712545,0.3533156850871819,1.001068323985237,4.167140907155044
5,22,male,418,75,75,same,valid,clock,1,1,3,0.26725931760665844,1,f,same,0.4979140260584245,0.16911588599719068,0.5003588875833884,0.035328457508512656,0.3533009318889526,1.0010680032637538,4.425821881430238
5,22,male,419,135,135,same,valid,anti,3,2,1,0.3726151134333122,0,j,change,1.5107143498589721,0.5817443902417669,0.5005240592590781,0.03529221595636045,0.35333140045077016,1.0010991132685376,5.544922205745024
5,22,male,420,165,165,same,valid,anti,4,0,2,0.18749583061799058,1,f,same,0.9249761383061923,0,0.5004320121315686,0.03533839988085674,0.3532839336385223,1.0010898123391598,4.802902723825355
5,22,male,421,15,15,same,valid,clock,4,1,2,0.1110418708594807,1,j,change,0.2802556023671059,0.16790064131399882,0.5004044300640089,0.03533904132382304,0.35329836611526844,1.0010692861505959,4.096880724882794
5,22,male,422,165,215,change,valid,clock,3,2,3,0.19517454957804148,1,j,change,0.7253756292557227,0.584701643892042,0.49964624396397994,0.035298951112054056,0.35328297147407284,1.001095585330404,4.590784767515288
5,22,male,423,75,125,change,valid,clock,5,1,3,0.077626839018194,1,f,same,1.8944889748709102,0.16673981438273192,0.49979441739014874,0.03532460884798638,0.3532954796201011,1.0010757005848063,5.626998737639042
5,22,male,424,165,165,same,valid,clock,3,2,1,0.10062033991380304,0,j,change,0.30531230596352543,0.5838721703871472,0.49997338009870873,0.035357001739612315,0.35329227240254113,1.001102961929064,4.178793688710357
5,22,male,425,165,115,change,valid,anti,4,0,3,0.059857894629203656,1,f,same,0.25058499638180365,0,0.49989512400406966,0.035368868442674284,0.35326757683196774,1.0010975096593029,3.965908566091457
5,22,male,426,135,85,change,valid,anti,1,2,3,0.1388904568621001,1,j,change,0.31907864352706383,0.5866893448697195,0.500670308354529,0.03529734750281932,0.353316967974024,1.0010654374900696,4.0968432004428905
5,22,male,427,75,75,same,valid,anti,2,1,3,0.05457111811301729,1,j,change,0.1084000862101675,0.16561890936592932,0.4995153895097246,0.035330381838321046,0.35331728869641665,1.0010808321321747,3.8363729197990324
5,22,male,428,105,105,same,valid,anti,3,2,2,0.13191443914729462,1,f,same,2.2881556193005963,0.5859201719690839,0.5002450313795634,0.03533551338568941,0.35327495343153714,1.00107185192428,6.098913138300304
5,22,male,429,135,185,change,valid,clock,1,1,2,0.13048979335235344,1,j,change,0.01864708040648111,0.16452474894567987,0.4997209721204854,0.0353220430743022,0.35329098951660853,1.0010529293440413,3.859873481703289
5,22,male,430,165,115,change,valid,anti,1,0,1,0.6472532752095503,0,f,same,0.5372816526660245,0,0.5005397746226663,0.03529542317301093,0.3533336455029712,1.0010798699668157,4.955943101404046
5,22,male,431,135,85,change,valid,anti,4,0,1,0.17466920763854432,0,j,change,0.34047495035247266,0,0.500079218259998,0.03531498719621595,0.353314722921823,1.0010699275935622,4.225359593170651
5,22,male,432,15,65,change,valid,clock,3,2,1,0.11404575030974229,0,j,change,0.02873987160910474,0.5851690332533146,0.5005150790520929,0.03530536554626451,0.35334070138014795,1.0010481185181561,3.9319300262222896
5,22,male,433,135,85,change,catch,anti,4,0,2,0.09715718698771525,1,f,same,0.2807928112151785,0,0.4996613178846019,0.03530472410238872,0.35333653199722903,1.0010651167685864,4.083583603167426
5,22,male,434,15,15,same,valid,clock,5,2,4,0.87055800444341,1,f,same,0.8899254257903522,0.5881208412652403,0.5007280382606041,0.035287405130475236,0.35334262570995634,1.0010429869716972,5.5101457102828135
5,22,male,435,45,45,same,valid,anti,5,1,4,0.4230954262520754,1,f,same,1.3749342520513892,0.1633913013224795,0.5000410523780374,0.035327495343153714,0.3533208166345503,1.001045873465955,5.556851770126741
5,22,male,436,105,105,same,valid,clock,2,0,1,0.0676636193829836,0,j,change,1.3651913682242593,0,0.4998082084230191,0.03533294761200523,0.3532925931249338,1.0010782663584905,5.143950803857479
5,22,male,437,105,105,same,catch,clock,2,1,1,0.23714322918021935,0,f,same,0.480116537437425,0,0.5002700476725295,0.0353294196738716,0.353283292195556,1.001092378112844,4.484885669127834
5,22,male,438,45,95,change,valid,clock,4,2,1,0.21900802060827118,0,j,change,0.7674873507357916,0.5873446046004127,0.5000279027881334,0.03532974039535475,0.35327623631837923,1.00107505914184,4.672670790720076
5,22,male,439,135,85,change,valid,anti,4,1,3,0.08790949746708066,1,j,change,0.44713351772679744,0.16225937509660893,0.5005875621563973,0.0352925366778436,0.3533144022003398,1.0010866051225094,4.214792775294882
5,22,male,440,135,135,same,valid,anti,3,0,2,0.0770132984043812,1,f,same,0.11918114618219988,0,0.4993033924665724,0.0353220430743022,0.35330317694024416,1.0010545329523666,3.930362979992424
5,22,male,441,45,45,same,catch,clock,5,1,2,0.22413571916058572,1,j,change,0.641148658356542,0,0.5000753695994717,0.03535251163611974,0.3532640488938341,1.0011048862597818,4.567712048359681
5,22,male,442,45,95,change,valid,clock,2,0,2,0.11398288885629881,1,j,change,0.23230033149866358,0,0.49996824855134037,0.03530472410147922,0.35334326715383213,1.0010680032637538,4.049157977246978
5,22,male,443,105,55,change,valid,anti,4,0,2,0.3325274666058249,1,j,change,0.601966408892622,0,0.5000237334052144,0.035288046573441534,0.3533371734411048,1.0010561365606918,4.637987304552553
5,22,male,444,15,65,change,catch,clock,1,2,2,0.30127858913238015,1,j,change,0.0901802071093698,0,0.5000667101130603,0.03532460884798638,0.35333877704943006,1.001050042848874,4.072901004757114
5,22,male,445,165,165,same,catch,anti,3,1,2,0.2313577304194041,1,j,change,0.2243996731203879,0,0.5001100075432987,0.035318515135259076,0.35330574271392834,1.001076983470739,4.120131444581602
5,22,male,446,135,135,same,catch,anti,4,1,1,0.32077237482826604,0,j,change,0.06487847213338682,0,0.5000359208306691,0.03532653317779477,0.3533317211722533,1.001045552744472,4.119216746291386
5,22,male,447,165,215,change,valid,clock,4,0,2,0.19430539376935485,1,j,change,0.9505068685757578,0,0.5009256028288291,0.0353226845172685,0.3532852165253644,1.0010914159483946,4.851197638975464
5,22,male,448,15,15,same,valid,anti,5,1,1,0.26139909068933775,0,j,change,0.26560856301330205,0.16111615046642463,0.4992107038942777,0.035295743895403575,0.35334390859679843,1.001068323985237,4.248389977062288
5,22,male,449,105,55,change,valid,anti,1,1,3,0.10619736956869019,1,j,change,0.24648424871611496,0.16302598891980352,0.49967382603063015,0.03533038183923054,0.3532845750823981,1.00103689325897,4.013395903998571
5,22,male,450,105,55,change,valid,anti,3,1,2,0.16788049139631767,1,f,same,0.017984148650612042,0.16191895007452367,0.500122515689327,0.03534641792339244,0.3533163265310577,1.0010615888295433,3.9079416466101975
5,22,male,451,135,135,same,valid,anti,4,2,2,0.17983090269081003,1,f,same,0.26058445757007576,0.5903476872028253,0.5071796759939389,0.035335513384779915,0.3533195337477082,1.0010420248063383,4.1146015610165705
5,22,male,452,45,45,same,valid,anti,4,1,3,0.31623448348364036,1,j,change,0.9614168586722371,0.16079672928640576,0.5000827461990411,0.035313704310283356,0.35335288880378357,1.0010471563527972,4.9084515941158315
5,22,male,453,135,135,same,valid,anti,5,2,3,0.1791185797928847,1,f,same,2.80365417476969,0.5895187337317103,0.4998967276123949,0.03530696915458975,0.35331921302622504,1.0010510050133234,6.63938180250716
5,22,male,454,15,15,same,valid,clock,1,0,3,0.25309753018609626,1,j,change,0.42182825481177133,0,0.5003367577855897,0.03530825204052235,0.3533336455020617,1.0010307995462426,4.331542209541112
5,22,male,455,135,185,change,valid,clock,2,1,1,0.1751409892594893,0,f,same,0.25025593591726647,0.15965303937673705,0.5003396442816666,0.0353294196738716,0.3533490401441668,1.001046835631314,4.1437054517555225
5,22,male,456,15,65,change,valid,clock,5,0,2,0.5060417553995649,1,j,change,1.0177974886209995,0,0.49989159606502653,0.03538394236238673,0.3532858579683307,1.0010760213062895,5.226849345471237
5,22,male,457,75,75,same,catch,anti,2,2,1,0.16533235748465813,0,j,change,0.7472591123450911,0,0.49937683773532626,0.035385225249228824,0.353316967974024,1.0010535707870076,4.62536754706889
5,22,male,458,15,325,change,catch,anti,1,1,1,0.13907519256099476,0,f,same,0.22479191576076119,0,0.5004525383201326,0.03531627008396754,0.35332113735603343,1.0010641546032275,4.096110672078794
5,22,male,459,75,75,same,valid,anti,4,1,2,0.1094132460630135,1,j,change,0.0768073950721373,0.16159291950944865,0.5004288049140087,0.035302479050187685,0.3533294761200523,1.0010407419194962,3.943699229754202
5,22,male,460,45,95,change,valid,clock,1,0,2,0.2987564336772266,1,f,same,0.2187010899406232,0,0.4997296316059874,0.035335192663296766,0.353328834677086,1.0010715312018874,4.189805989028173
5,22,male,461,45,355,change,catch,anti,4,2,3,0.35631122577342467,1,j,change,0.31599490437292843,0,0.5002424656058793,0.0353374377154978,0.3532916309604843,1.0010526086225582,4.3557435483617155
5,22,male,462,75,25,change,valid,anti,2,0,2,0.9739362302634618,1,j,change,1.1711104796449945,0,0.5000272613451671,0.03533968276769883,0.35330798776612937,1.0010965474948534,5.839168330143366
5,22,male,463,75,25,change,valid,anti,3,2,2,0.38011037958040106,1,f,same,0.5508699896854523,0.5887226906696483,0.49964913046005677,0.035340644933057774,0.3533262689034018,1.0010202157309323,4.531393202239087
5,22,male,464,105,55,change,valid,anti,5,1,2,0.7335594848955225,1,j,change,0.47126269416457944,0.16048950502407022,0.4996606764407261,0.03531979802210117,0.3532986868367516,1.0010763420277726,4.849273308770535
5,22,male,465,15,325,change,catch,anti,5,2,2,0.44280473693106615,1,j,change,0.8523750083386403,0,0.500365622739082,0.035335192663296766,0.3533054219924452,1.001069606872079,4.967941941675235
5,22,male,466,165,215,change,catch,clock,4,1,2,0.6976258255381254,1,f,same,0.6492318073824208,0,0.5002796693233904,0.03533166472516314,0.3532922724034506,1.001048759962032,4.980019679483121
5,22,male,467,45,355,change,valid,anti,3,0,3,0.4284934931974931,1,j,change,0.3849167149883215,0,0.49953559497771494,0.03531627008396754,0.3533144022003398,1.0010375347019362,4.460607677820917
5,22,male,468,75,75,same,valid,clock,1,0,2,0.15117666377591377,1,f,same,0.34740478414187237,0,0.499693069332352,0.035357001739612315,0.35329387601086637,1.0010747384194474,4.119361712499995
5,22,male,469,135,135,same,valid,clock,5,0,2,0.26643249706194183,1,j,change,0.3264869940931021,0,0.5001767176572685,0.0353374377154978,0.353294196733259,1.0010811528536578,4.2609343649455695
5,22,male,470,135,85,change,valid,anti,2,0,2,0.26413420535391197,1,j,change,0.3240819020593335,0,0.5004246355319992,0.03531306286640756,0.35331921302622504,1.0010436284146635,4.296916453279664
5,22,male,471,45,355,change,catch,anti,2,0,3,0.46852020290134533,1,j,change,0.26108863208355615,0,0.4998117363611527,0.03534449359267455,0.3532868201336896,1.0010968682163366,4.4377559359172665
5,22,male,472,105,105,same,valid,clock,3,2,3,0.6085097730310736,1,j,change,0.805424237837542,0.5879584897488386,0.5000577299060751,0.03533198544755578,0.3533416635445974,1.0010442698576298,5.073211784085288
5,22,male,473,75,25,change,valid,anti,3,1,2,0.17049212820620596,1,f,same,1.196435948028011,0.15937387954558196,0.5006767227878299,0.03534096565454092,0.35331600580957456,1.001069606872079,5.073970611629193
5,22,male,474,105,105,same,valid,clock,2,1,3,0.24537391018748167,1,f,same,0.26821474755342933,0.15831082344593705,0.5005529242116609,0.03535379452205234,0.35326757683196774,1.0010551743953329,4.190940702406806
5,22,male,475,15,65,change,catch,clock,3,1,1,0.2694501675450738,0,j,change,0.6153174118526294,0,0.49998556752325385,0.03531306286640756,0.3533214580775166,1.0010702483159548,4.543829506909788
5,22,male,476,15,15,same,valid,clock,4,0,1,0.22425951773766428,0,f,same,0.8198108511696773,0,0.5002023753932008,0.03535603957425337,0.35325955878943205,1.0011231673961447,4.779222237047179
5,22,male,477,135,135,same,valid,clock,1,2,2,0.2191744751708029,1,j,change,0.31610298758732824,0.5872213175864429,0.5003547182004695,0.03537913153650152,0.35323678754866705,1.001069606872079,4.201895914262423
5,22,male,478,135,135,same,valid,clock,1,1,1,0.2782831639069627,0,j,change,0.4763092501270876,0.15729660257060601,0.5005259835888864,0.035315307918608596,0.3533089499314883,1.001072814089639,4.473738344972844
5,22,male,479,45,355,change,catch,anti,2,0,1,0.3907317201465048,0,f,same,0.23023007291885733,0,0.4992456625595878,0.03534930441946926,0.35330991209684726,1.0010689654291127,4.319279415311939
5,22,male,480,165,165,same,valid,anti,4,2,2,0.21995318746121484,1,f,same,0.545327277252909,0.586506769289993,0.5002347682848267,0.03533936204621568,0.35329323456790007,1.001104244815906,4.414169099875835
