subject,age,gender,ntrial,memory_ori,test_ori,type,trial_type,which_change,trial,quest,pas,pas_rt,vis,test_key,test,test_rt,contrast,fix_dur,target_dur,mask_dur,retention_dur,trial_dur
6,23,male,1,165,115,change,valid,anti,4,1,2,1.469093238084497,1,j,change,1.4691147261696642,0.2,0.5093304793733751,0.035309093276509884,0.3533163973011142,1.0010096192856963,6.590468847568445
6,23,male,2,75,25,change,valid,anti,1,2,3,1.2826318221864312,1,j,change,1.2853669026401349,0.2,0.49905949537651395,0.03532609131411846,0.3532888155798446,1.0010878744019465,6.179924868674107
6,23,male,3,105,55,change,valid,anti,2,2,3,1.1907102838447372,1,j,change,1.3464402100444204,0.11397766455402543,0.4992160056085595,0.035383820498054774,0.3533295467263997,1.0009836411529704,6.133283857284596
6,23,male,4,165,165,same,valid,anti,3,1,2,1.4337036446679576,1,f,same,2.009050653189661,0.09338226537841544,0.4994417908619653,0.03527670079006384,0.3533459033287727,1.0010541990443471,7.0397080571019615
6,23,male,5,165,215,change,valid,clock,1,2,2,1.885589737290502,1,j,change,1.758045764489907,0.056143516159837065,0.5001387104005062,0.035312300453597345,0.3533051721819902,1.0009945455542493,7.263837124163047
6,23,male,6,75,75,same,valid,anti,3,2,1,1.0211962320802286,0,f,same,2.788996625087748,0.012132942594039436,0.5000550030836166,0.03528054940215952,0.35334301686930303,1.001030465935628,7.45242329475218
6,23,male,7,75,125,change,valid,clock,3,0,2,2.9578477533887053,1,j,change,1.1111046254866324,0.2,0.5002807883370224,0.0352593820346101,0.35326861036537593,1.001059330527596,7.723844430111967
6,23,male,8,105,155,change,valid,clock,4,1,1,2.484385378224033,0,j,change,3.759164107072138,0.020575447070561637,0.4996528231013144,0.03533410925638236,0.35336193921307313,1.0010432946430683,9.901750060214908
6,23,male,9,15,15,same,valid,clock,1,0,2,1.3132924332753646,1,f,same,1.5394596612513851,0.0723357464867447,0.5001274852813822,0.03531711121877379,0.3533327539034872,1.0010657448813163,6.451771917125143
6,23,male,10,15,325,change,valid,anti,1,2,2,1.7763414257888144,1,j,change,1.073083864147975,0.10452473464041458,0.499372195123442,0.035351107293990935,0.35330645505291614,1.0010269380409227,6.521297418511267
6,23,male,11,75,25,change,valid,anti,2,1,2,1.1202158943196991,1,j,change,1.4778023269352616,0.10418102663402222,0.5001011864310385,0.035329298490978545,0.35331703873680453,1.0010282209116212,6.333623048312575
6,23,male,12,45,45,same,valid,anti,1,2,1,0.33403549126092,0,j,change,6.097234868298756,0.08278292005740336,0.5002445472380259,0.035344051504807794,0.35328496696752154,1.001047784690627,10.066880863320648
6,23,male,13,165,115,change,valid,anti,5,2,2,1.1221244852881682,1,j,change,1.2016310418800913,0.13622167930619003,0.500214079057514,0.03524655332716975,0.3533818237096966,1.0010307866532457,5.968529897463213
6,23,male,14,135,135,same,valid,anti,5,0,1,1.281800201218175,0,j,change,2.8860833218141124,0,0.49971728735704346,0.035319035524935316,0.3532933056276306,1.0010439360785313,7.829208850396981
6,23,male,15,165,115,change,valid,anti,3,0,1,2.2054742019499827,0,j,change,5.606356881174406,0.05517235490842054,0.5000222898793254,0.035322563419640574,0.35327277969554416,1.0010246930171434,11.46899349488308
6,23,male,16,135,85,change,valid,anti,1,1,2,0.4369172359138247,1,j,change,1.5963267561619432,0.06737796641710639,0.49960792262481846,0.03532865705551558,0.3533000406989686,1.0010487468437077,5.685747017245376
6,23,male,17,105,55,change,catch,anti,4,1,2,1.7060664071632345,1,f,same,2.33752105110716,0,0.49939207962029286,0.03529562313360657,0.3533221702195988,1.0010279001940035,7.664353864503937
6,23,male,18,165,165,same,valid,clock,5,2,2,1.1912907828620973,1,f,same,1.1285109366335746,0.12241569512620039,0.49980644687457243,0.03528824662657826,0.3533292260087819,1.001050991867487,6.015963402262969
6,23,male,19,165,165,same,catch,clock,2,0,1,1.023104823048925,0,j,change,3.4084410330060564,0,0.4994815598554396,0.03533699571562465,0.35328175979066145,1.0010837050717782,8.040757124663287
6,23,male,20,15,15,same,catch,anti,2,0,1,1.5008766818034474,0,j,change,4.544216546018106,0,0.5004077925418642,0.03535431447062365,0.3532737418486249,1.00105163330295,9.738126950965807
6,23,male,21,105,105,same,catch,clock,5,0,2,0.41040222167566753,1,f,same,2.181737244336091,0,0.4996977235778104,0.035314545477149295,0.3532833633792052,1.001082422201307,6.309832530844005
6,23,male,22,135,135,same,valid,clock,2,0,1,0.6414607151298242,0,j,change,2.8117037582019293,0.10305495082542576,0.5002939377620805,0.0353328263856838,0.35330581361745317,1.0010490675613255,7.135032410126087
6,23,male,23,75,75,same,valid,clock,3,2,2,1.252183526207773,1,j,change,1.348716343484739,0.10995861500008976,0.4998766840485587,0.03532128054894201,0.3532904191683883,1.0010602926804495,6.262816600475844
6,23,male,24,165,115,change,valid,anti,2,1,1,0.7180798503659389,0,j,change,8.198192948251744,0.039060975609891524,0.5001553877202696,0.03535591805916738,0.35325642309339855,1.0010641412927725,12.587993227725292
6,23,male,25,135,135,same,valid,anti,5,2,3,2.3127013505743435,1,f,same,0.9254668126145589,0.09914460353200868,0.49947931483143293,0.03532063911325167,0.3533305088794805,1.0010429739254505,6.921727885793871
6,23,male,26,45,95,change,valid,clock,3,0,3,0.43935180389257766,1,j,change,1.6074428312701912,0.14227292683624698,0.5000149133725245,0.03527381433082155,0.35332826385570115,1.0010487468437077,5.662332380908765
6,23,male,27,15,65,change,catch,clock,1,1,2,0.6319966568387372,1,j,change,1.2132958649547163,0,0.5000238934678691,0.03529690600430513,0.3532878534269912,1.001066707034397,5.544679341643587
6,23,male,28,45,45,same,valid,anti,5,2,3,0.5259673887840108,1,f,same,1.1163698477907928,0.08946210899145678,0.5003157465648655,0.03535399375300585,0.3532820805085066,1.0010683106227134,5.321110889103011
6,23,male,29,105,105,same,valid,anti,2,2,2,0.7831646946269757,1,f,same,1.1714155869437946,0.08059420140724234,0.5001027900193549,0.035332505668066005,0.3532968335221085,1.0010699142112571,5.685769788201242
6,23,male,30,105,105,same,catch,anti,5,0,1,0.6732605154509201,0,f,same,2.0493513965814145,0,0.5001358239412639,0.0353581630829467,0.3532798354847273,1.0010599719628317,6.416588545182776
6,23,male,31,135,135,same,valid,clock,4,1,2,2.236249629972008,1,f,same,3.0787220811241696,0.07895759315026386,0.4999366582562743,0.035356559494630346,0.35328913629768977,1.0010118643094756,9.007073107917904
6,23,male,32,45,355,change,valid,anti,5,1,3,0.8302819717853254,1,j,change,0.7678135424328048,0.058899643196053425,0.5000556445190796,0.03531935624255311,0.3533022857229753,1.001074083541198,5.20277151398318
6,23,male,33,165,165,same,valid,clock,5,1,2,1.1116245088610412,1,f,same,1.491264772657587,0.04177613825106399,0.5003420454154366,0.03529273667436428,0.35336482567208805,1.0010064121088362,6.286696918897405
6,23,male,34,75,75,same,valid,clock,4,1,2,7.998740541634334,1,j,change,3.3601428733161356,0.026529571602768504,0.5002974656567858,0.035330581361677105,0.35332056663105504,1.0010285416294664,14.9781007547449
6,23,male,35,135,135,same,valid,clock,3,0,3,0.9476402714940377,1,f,same,1.0033194280833868,0.10574954264446025,0.5002281906358803,0.03532865705574295,0.35332601883192183,1.0010580476568975,5.591547421157202
6,23,male,36,105,155,change,valid,clock,5,0,3,0.36203478696484126,1,j,change,1.0072799708275397,0.07819687085050991,0.49993280964395126,0.035264192800013916,0.3533536005531914,1.001062216986611,5.014193040618466
6,23,male,37,45,355,change,valid,anti,5,2,4,0.3826867611264788,1,j,change,1.7637997605522742,0.0723156996151326,0.5004526930183602,0.03527221074227782,0.3533738057676601,1.0010336731122607,5.768756131721375
6,23,male,38,105,105,same,valid,anti,3,0,2,0.6483949522882995,1,j,change,2.2786639029354774,0.05557503412361586,0.49957969946831327,0.035343730786962624,0.35327855261402874,1.0010429739254505,6.616311958247479
6,23,male,39,105,55,change,valid,anti,4,2,2,0.2877151975603738,1,j,change,1.3498699650128856,0.06446929263172463,0.4996233170741107,0.03538061332142206,0.35328753270914603,1.0010266173230775,5.296741476205625
6,23,male,40,15,325,change,catch,anti,1,0,1,0.268566427208043,0,f,same,3.7634809671692437,0,0.5002237005880943,0.03532577059650066,0.353276949025485,1.0010782528711388,7.723762967818857
6,23,male,41,45,95,change,catch,clock,3,1,1,0.44796820533110804,0,j,change,1.211623001487851,0,0.5001393518359691,0.03532865705574295,0.353336923233428,1.0010028842143583,5.321018522408622
6,23,male,42,135,85,change,valid,anti,5,1,1,0.2581957000095372,0,j,change,1.2307724132754174,0.013234612306181143,0.5003805315382124,0.035348220834748645,0.35331511443041563,1.0010359181362674,5.121107810213289
6,23,male,43,75,75,same,valid,clock,1,0,1,0.3383023193982808,0,j,change,0.7718812048849486,0.03654784992975349,0.49952838463786975,0.035309413994355054,0.35330356859367384,1.0010618962689932,4.767259983701251
6,23,male,44,165,215,change,valid,clock,5,0,1,0.3601457597753779,0,f,same,1.7596557672898143,0.05323554054869506,0.499752245585114,0.035353993753233226,0.3532692518008389,1.001076970000213,5.791897195869069
6,23,male,45,45,95,change,valid,clock,5,2,2,0.6410822682566959,1,j,change,0.840511262482778,0.05695008890968989,0.4999084350997691,0.035320318395633876,0.35330709648815173,1.0010336731122607,5.108818229080271
6,23,male,46,45,45,same,valid,clock,3,0,3,1.0087552721979591,1,f,same,0.727640123963738,0.06835967090356027,0.49991837734819455,0.03530716897057573,0.3532939470628662,1.001041691054752,5.34465156749161
6,23,male,47,75,125,change,valid,clock,5,0,1,1.3813923445329692,0,j,change,1.0531156600995928,0.05303056517519583,0.4992570574727324,0.03531967696039828,0.35328721199152824,1.0010192408162766,6.074331135240982
6,23,male,48,75,75,same,valid,clock,2,0,3,1.162076929269233,1,f,same,0.6913663118780278,0.06589966965352026,0.49932280459916,0.035302037487554117,0.35330709648815173,1.001059651245214,5.555482717004907
6,23,male,49,15,325,change,valid,anti,5,1,1,0.5494057582295682,0,j,change,0.9393176474586653,0.03361789631988055,0.5001124115501625,0.03531679050115599,0.35331447299518004,1.0010529161736486,5.144617699703758
6,23,male,50,165,215,change,valid,clock,3,1,1,0.5034613456609804,0,j,change,1.2550667782336404,0.05226326840495121,0.49969676142472963,0.03537195394369519,0.3532884948622268,1.0010612548335303,5.449731831904046
6,23,male,51,15,15,same,catch,anti,4,2,1,1.3406188632673093,0,j,change,6.7291673815998365,0,0.500225945612101,0.035322563419640574,0.3533208873489002,1.0010420117723697,11.751247832349236
6,23,male,52,105,155,change,valid,clock,2,1,3,1.255031499287952,1,j,change,1.2713951572270616,0.06999235433371265,0.4999340925148772,0.03530492394656903,0.3533013235698945,1.0010785735887566,6.168481340805101
6,23,male,53,165,215,change,valid,clock,3,2,1,0.5347011728968027,0,j,change,2.430446435816293,0.050234549025461706,0.5003959259872772,0.0353139040419137,0.3532673274946774,1.0010535576091115,6.687895184327772
6,23,male,54,15,65,change,valid,clock,3,0,4,0.67499848460875,1,j,change,1.0613866485866765,0.05282728223484401,0.4995569285122201,0.03535752164771111,0.3532779111785658,1.0010763285649773,5.402771706413887
6,23,male,55,165,165,same,valid,anti,2,1,3,1.1624447924587002,1,f,same,0.9688429179282139,0.059969599328154016,0.5001974017377506,0.035320639113479047,0.35323429357276837,1.0011061553100262,5.827832650792516
6,23,male,56,75,125,change,valid,clock,1,2,2,2.531104644729794,1,j,change,1.8438720631481829,0.07240758485882309,0.49930292010230914,0.035287925909187834,0.35332794313808336,1.001055481915273,8.028441886114933
6,23,male,57,165,165,same,valid,clock,1,2,3,0.9347140657478121,1,f,same,1.703544283255269,0.06669074721081147,0.5000181205493845,0.035330902079522275,0.35331126581831995,1.0010641412927725,6.310293722881397
6,23,male,58,75,25,change,valid,anti,5,1,2,0.3610710303087217,1,j,change,1.472702274241101,0.05086235169502892,0.4999623156713824,0.035356238776785176,0.3533237738081425,1.0010618962689932,5.485824117777611
6,23,male,59,15,65,change,valid,clock,1,2,1,0.12643428959586345,0,j,change,4.790744215776158,0.06152727240944944,0.5000152340901423,0.03535463518846882,0.35329009845077053,1.0010638205751548,8.582939679096171
6,23,male,60,165,165,same,valid,clock,3,0,2,2.415015745634946,1,f,same,1.2782158603235985,0.04084581283167832,0.5002730911121489,0.03528568088518114,0.35333948897482514,1.0010394460307452,7.334792385007404
6,23,male,61,105,155,change,valid,clock,2,2,2,0.7246924076821415,1,j,change,0.9791751590039439,0.0788922574934103,0.49996648500132324,0.03533859930416838,0.353299399263733,1.0010298244999376,5.356465524291707
6,23,male,62,105,55,change,catch,anti,2,0,1,1.5399391341968567,0,j,change,3.7941653113671236,0,0.49978912811934606,0.035352390164689496,0.3532442358211938,1.0011067967454892,9.006927822804755
6,23,male,63,15,15,same,valid,clock,3,1,2,0.29534378851622023,1,f,same,1.3077087383062462,0.04246017289297882,0.4997628292690024,0.03532288413725837,0.35336193921307313,1.0010121850270934,5.308489685879522
6,23,male,64,45,355,change,valid,anti,4,0,1,0.4579912745546153,0,f,same,7.760857496471317,0.030039717068665234,0.5003478183339212,0.03530460322895124,0.35335937347144863,1.0010012806258146,11.880851454149933
6,23,male,65,135,85,change,valid,anti,5,0,2,0.42583676046911023,1,j,change,1.7939289424302842,0.039505374466582754,0.5003221609188131,0.03533154351475787,0.35331254868879114,1.0010314280884813,5.8748152265213776
6,23,male,66,105,155,change,catch,clock,5,2,2,0.8063003065740304,1,f,same,0.8150026603532297,0,0.49976988505795816,0.035317752654236756,0.3533131901242541,1.001055481915273,5.273587904068336
6,23,male,67,135,135,same,catch,anti,1,1,2,1.2574118659772466,1,j,change,1.360899125627384,0,0.5002272284827995,0.03535848380079187,0.3533022857229753,1.001062858422074,6.251065825060778
6,23,male,68,15,15,same,valid,anti,5,2,3,0.6932726578227175,1,f,same,0.8089657912892108,0.07434161480089416,0.5008054824766077,0.03532769490266219,0.3533138315597171,1.001021806557901,5.16806825642152
6,23,male,69,135,185,change,valid,clock,2,2,2,0.10589264231930429,1,j,change,2.3526704718751716,0.06979296562933923,0.500385021585771,0.035278625095997995,0.3533273017026204,1.001048105408472,6.11063669837813
6,23,male,70,105,55,change,valid,anti,5,0,1,0.369803531550815,0,j,change,1.3683163636258087,0.029868562386413305,0.4991419198224776,0.035342447916264064,0.35330068213443155,1.0010461811023106,5.3551467331535605
6,23,male,71,45,45,same,valid,anti,5,1,1,0.4250968647602349,0,f,same,2.3179165409185316,0.03460839974766927,0.4998324250072983,0.035337957868705416,0.35330100285204935,1.0010580476568975,6.404396462227396
6,23,male,72,45,45,same,valid,clock,4,1,2,1.9759137808221112,1,f,same,5.229510068450736,0.04662985044478457,0.49982216204125507,0.03531743193661896,0.3533404511279059,1.001047784690627,10.879906619837584
6,23,male,73,45,45,same,valid,anti,4,0,2,0.6016144287041243,1,f,same,1.2334603482288458,0.03841602218098264,0.499631655733765,0.035319035524935316,0.3533013235698945,1.001074724976661,5.438721914351163
6,23,male,74,45,355,change,valid,anti,1,0,2,0.6624683652089516,1,j,change,2.4376112689933507,0.029714722511774705,0.49926635828592225,0.035328015620279984,0.35325930955241347,1.0011029481333935,6.792458451825269
6,23,male,75,45,45,same,valid,clock,5,1,3,1.3564443569241575,1,f,same,0.9361768591281816,0.03976068475352351,0.4998622517525746,0.03530428251133344,0.3533051721819902,1.001044898231612,5.956787139990411
6,23,male,76,75,25,change,valid,anti,2,0,2,0.7702869172519513,1,j,change,1.2626947277537965,0.021621592616268448,0.4999340925146498,0.03534020289248474,0.3533010028522767,1.001050991867487,5.709771337908933
6,23,male,77,15,15,same,valid,clock,5,0,2,0.5096861552908649,1,f,same,2.112922774066874,0.013997476352542282,0.4995267810495534,0.03531967696039828,0.353288174144609,1.0010490675615529,6.297551929806332
6,23,male,78,105,55,change,valid,anti,1,2,3,0.526574186651942,1,j,change,1.0636188437038072,0.06559142121918274,0.5004279977563328,0.035328015620279984,0.35332249093744394,1.0010602926806769,5.226869920433046
6,23,male,79,15,65,change,catch,clock,4,2,2,0.7439887081716279,1,j,change,1.30298905679183,0,0.5002942584796983,0.03533859930394101,0.35324551869189236,1.0010651034460807,5.7567619315800584
6,23,male,80,75,75,same,valid,anti,5,1,1,0.4215705737672124,0,j,change,1.0877384175212228,0.03325413472812366,0.500478671151086,0.03531133830028921,0.3532968335221085,1.001064141293,5.133062882796594
6,23,male,81,165,165,same,valid,clock,3,1,2,1.6662845849930363,1,f,same,1.8884511805138118,0.043607750491325925,0.49931863526921916,0.035336354280161686,0.353321849501981,1.0010500297144063,7.1922766690390745
6,23,male,82,135,185,change,valid,clock,3,0,1,1.087192556014088,0,j,change,1.4257536945874563,0.006765123027491937,0.5006066375090086,0.0352863223206441,0.35335007265848617,1.0010458603844654,6.145809807354453
6,23,male,83,105,105,same,valid,clock,5,1,3,0.15211319281843316,1,j,change,1.618797841056903,0.03751103856943577,0.5000322321277508,0.035306206817267594,0.3533157558658786,1.0010378424424289,5.391716567666435
6,23,male,84,75,75,same,valid,anti,4,2,3,0.8236511335608157,1,f,same,1.5147496461684113,0.06170765433723918,0.4993064479972418,0.03529947174592962,0.35333147103256124,1.0010602926806769,6.038213191952536
6,23,male,85,135,135,same,valid,clock,3,1,3,0.9635937315085812,1,f,same,0.9324783427362036,0.03196158601253318,0.5002676389115095,0.035317752654236756,0.3533080586412325,1.0010744042588158,5.55659785241005
6,23,male,86,15,15,same,catch,clock,4,2,1,5.352956552054138,0,f,same,2.246425360815465,0,0.49991613232441523,0.03533507140923575,0.35330068213443155,1.00101122287424,11.268745387678791
6,23,male,87,75,25,change,valid,anti,5,0,1,0.35039209341084643,0,j,change,1.1827798975436963,0.013366671349547637,0.4998186341467772,0.035311979735752175,0.3533327539034872,1.0010426532076053,5.191064997608919
6,23,male,88,135,135,same,valid,anti,5,1,2,0.5622023940293275,1,f,same,1.1239689327187534,0.026541607999617967,0.5001611606389815,0.03541364724333107,0.3531919588376695,1.0010987788032253,5.4267697282271
6,23,male,89,135,135,same,valid,clock,1,1,2,0.4393649533178632,1,j,change,0.9826639260272714,0.02155652018635451,0.5003882287626311,0.035309413994355054,0.3533192837603565,1.0010301452177828,5.0858519560731565
6,23,male,90,45,45,same,valid,clock,5,0,1,0.8957824661713403,0,j,change,2.297843782903783,0.019495454417365138,0.4997830344832437,0.035510824703123944,0.3532628374471187,1.001070876364338,6.863831287100993
6,23,male,91,165,215,change,catch,clock,1,2,1,0.8367524511652391,0,j,change,2.8920871569562223,0,0.4996281278395145,0.03532320485487617,0.3533263395495396,1.0010362388538852,7.369646379882852
6,23,male,92,105,105,same,valid,clock,1,2,2,0.3999596537146317,1,f,same,1.0856515075174684,0.05773907324327707,0.500282071207721,0.035349182987602035,0.3532528951986933,1.0010840257896234,5.144889668304131
6,23,male,93,75,75,same,valid,anti,1,0,2,0.4043611832814804,1,j,change,1.5598727007347861,0.0257638910128552,0.49964608802997645,0.03533859930416838,0.35330837935907766,1.0010641412927725,5.614789832094857
6,23,male,94,75,25,change,catch,anti,5,0,1,0.24175154193039816,0,j,change,4.151379711463051,0,0.49983916007886364,0.035342447916264064,0.353288174144609,1.0010343145477236,8.053468128839995
6,23,male,95,105,105,same,valid,clock,3,0,3,0.8956987588546781,1,f,same,1.097540191538883,0.019391262042236457,0.49921953350326476,0.03527990796692393,0.35336450495447025,1.0010317488063265,5.649400081526437
6,23,male,96,75,125,change,valid,clock,2,1,2,0.07735261659126991,1,f,same,3.692620318043055,0.016640153223565185,0.5004831611986447,0.035307489687966154,0.35333179175017904,1.0010301452177828,7.464816146981093
6,23,male,97,105,105,same,catch,anti,4,1,2,0.2728239545326687,1,f,same,2.4215324083620544,0,0.5000248556209499,0.035284398014482576,0.3533850308867841,1.001018599381041,6.380818901304565
6,23,male,98,15,15,same,valid,anti,5,0,1,1.7980482404304894,0,j,change,4.020837028268261,0.013340076673300422,0.4999966324642173,0.035314866194994465,0.3533128694066363,1.0010189200986588,9.477776348802308
6,23,male,99,165,115,change,valid,anti,3,2,2,0.7159352111780208,1,f,same,1.9904384435315023,0.054070408569553446,0.5003260095311362,0.03530813112342912,0.3533013235698945,1.0010612548335303,6.404654639967248
6,23,male,100,165,165,same,catch,anti,3,2,3,1.0412218445949293,1,j,change,0.9197378325322916,0,0.500043136529257,0.03534854155236644,0.353309982947394,1.0009906969419262,5.579747896653089
6,23,male,101,75,75,same,catch,clock,5,1,2,1.443557695669142,1,j,change,2.324858154584035,0,0.5102544670360203,0.03534886226998424,0.35331543514803343,1.0010221272755189,7.427010587211726
6,23,male,102,165,165,same,catch,anti,3,0,2,0.27347918077157374,1,j,change,1.628638101197339,0,0.5001797622646791,0.03532416700795693,0.3533269809850026,1.0010737628233528,5.53348372854839
6,23,male,103,15,15,same,catch,clock,3,0,2,0.5422669031852365,1,j,change,2.709655238105597,0,0.4998956063921014,0.035336354280161686,0.35326219601165576,1.0011067967454892,6.911084227841684
6,23,male,104,15,15,same,valid,clock,1,1,3,0.42427197886354406,1,j,change,0.7234403258235034,0.012092247680919682,0.49998572806271113,0.03530492394656903,0.3533019650051301,1.0010699142112571,4.79105531193477
6,23,male,105,75,125,change,valid,clock,5,2,2,1.337165054472507,1,j,change,0.843967637019432,0.05032592440283423,0.4998276142418945,0.03535239016446212,0.35330837935907766,1.0010513125853322,5.803777861948447
6,23,male,106,45,45,same,valid,anti,3,1,2,1.264018650375192,1,j,change,1.4725258795122045,0.007554749584142623,0.4999174151948864,0.03529947174570225,0.3533266602671574,1.0010266173230775,6.368859659391319
6,23,male,107,45,355,change,catch,anti,1,1,2,0.9119774266059721,1,f,same,2.6482980955463518,0,0.49953351612089136,0.03532737418481702,0.3533125486890185,1.0010388045952823,7.205260603969009
6,23,male,108,15,325,change,catch,anti,2,1,1,0.46895212230106154,0,j,change,2.2449923941801444,0,0.4992958643133534,0.035375161120555276,0.3532747040017057,1.0011173804291502,6.368609178876113
6,23,male,109,15,65,change,catch,clock,3,2,2,1.211447568911808,1,j,change,4.559759166672848,0,0.49970894869716176,0.035309413994355054,0.35331639730134157,1.0010609341159125,9.45471001187616
6,23,male,110,75,75,same,valid,anti,5,2,1,0.4468056037076167,0,f,same,13.165191418749373,0.0467746248236513,0.4998285763952026,0.035361049542188994,0.35327823189618357,1.001070234928875,17.2512435026606
6,23,male,111,45,95,change,valid,clock,2,0,1,0.38321081383082856,0,j,change,1.1070879571470869,0.01868115300506465,0.4997079865438536,0.0353331471033016,0.3533455826111549,1.0010407289014438,5.108713995831295
6,23,male,112,135,135,same,valid,clock,1,2,2,0.6627627840477999,1,j,change,0.971008724483454,0.05909730361961571,0.5000412122230955,0.03530107533447335,0.3533321124680242,1.0010304659354006,5.273833573818365
6,23,male,113,15,325,change,valid,anti,2,0,1,0.3489552781632028,0,j,change,1.3028235664639851,0.024217873477676177,0.4997538491736577,0.03533603356254389,0.3533103036650118,1.0009823582820445,5.3085179090358
6,23,male,114,45,95,change,valid,clock,2,1,2,0.808369577105168,1,j,change,2.799755420689962,0.0033473726045538388,0.5004363364164419,0.03529626456929691,0.35334237543384006,1.0010064121088362,7.299885792430814
6,23,male,115,165,165,same,valid,clock,3,2,2,1.4168031053172854,1,f,same,1.3591136902514336,0.05595883477237573,0.49957873731500513,0.03532288413725837,0.35329875782827,1.001062216986611,6.451287633414722
6,23,male,116,15,325,change,catch,anti,3,2,2,0.434975611023674,1,j,change,0.7535775256437773,0,0.4994077947867481,0.035370029637761036,0.3532301242430549,1.001109683204504,4.872430049066679
6,23,male,117,165,165,same,valid,anti,4,1,2,3.189385399070943,1,j,change,2.520876316185422,0,0.500627163441095,0.035332505668066005,0.353277590460948,1.0010538783267293,9.432138863062391
6,23,male,118,75,125,change,valid,clock,4,1,1,2.2851440038461988,0,j,change,1.229401986589437,0,0.4996258828155078,0.03532801562005261,0.35331447299495267,1.001032069523717,7.228790377956102
6,23,male,119,135,185,change,valid,clock,3,2,2,1.1760121128659193,1,j,change,0.9009745648422722,0.05301104434789103,0.4996839327172893,0.03533186423283041,0.3532920227567047,1.0010554819150457,5.7328110552671205
6,23,male,120,105,55,change,valid,anti,4,0,2,0.5289381967390909,1,j,change,1.9443198812577975,0.02941450139915175,0.4997326818061083,0.03535559734154958,0.35327919404926433,1.0010667070341697,6.156528513245576
6,23,male,121,135,135,same,valid,anti,1,0,2,1.6462519166893799,1,j,change,2.713315268375027,0.023849240291492574,0.5001823280063036,0.035363936001431284,0.3532743832838605,1.0010529161736486,8.053765113420013
6,23,male,122,75,75,same,valid,clock,1,2,3,0.48671571295426475,1,f,same,1.9560081167232966,0.049945528449939075,0.49966019960811536,0.03531486619476709,0.35332601883192183,1.0010593305273687,6.09774256440096
6,23,male,123,75,75,same,catch,anti,4,2,1,1.613005038153915,0,j,change,7.592772883447651,0,0.5000152340899149,0.03531743193661896,0.35330870007692283,1.0010269380409227,12.857886143296128
6,23,male,124,165,165,same,catch,clock,1,0,3,0.4415737360432104,1,j,change,1.874052559856409,0,0.5007083050168148,0.03531326260690548,0.35333435749180353,1.0010461811020832,5.981055526815453
6,23,male,125,45,45,same,catch,clock,1,1,2,0.8962462239501292,1,f,same,0.993361785268462,0,0.5000796983458713,0.035326732749581424,0.35333628179796506,1.0010384838778918,5.568800839767391
6,23,male,126,165,165,same,valid,clock,4,1,2,0.3159611251676324,1,f,same,2.526086054328971,0.002086541432542055,0.49972658816977855,0.03528856734419605,0.35334494117569193,1.0010525954558034,6.486936687441812
6,23,male,127,75,75,same,valid,anti,4,1,3,0.46376740013738527,1,j,change,0.9308048378338754,0,0.49967848051664987,0.03530139605209115,0.3532965128047181,1.0010647827280081,5.0378094083816904
6,23,male,128,165,165,same,valid,clock,4,2,2,3.335519131291221,1,f,same,1.3032860413718481,0.04702377162007135,0.4997362097005862,0.035332826385911176,0.35330388931106427,1.0010044878026747,8.311481661202379
6,23,male,129,45,355,change,valid,anti,2,1,1,0.29050640360947,0,f,same,1.171746246881412,0,0.5005620577503578,0.035313583324295905,0.3532968335221085,1.0010551611976553,5.156731848261188
6,23,male,130,45,45,same,catch,clock,3,0,1,1.3109178395043273,0,j,change,2.5329510164665408,0,0.4999591084942949,0.035345013657661184,0.3532884948622268,1.001077290718058,7.487982227108205
6,23,male,131,165,115,change,catch,anti,1,0,2,1.6932800343297458,1,f,same,0.958595025604609,0,0.5002413400611658,0.035313583324295905,0.35331896304296606,1.0010429739254505,6.334084561067357
6,23,male,132,105,105,same,valid,clock,2,1,3,0.42225883392802643,1,j,change,0.8272710741189258,0.001020044265165082,0.4995331954037283,0.03531197973597955,0.3533135108418719,1.0011055138747906,4.884426494231775
6,23,male,133,135,135,same,valid,anti,2,0,1,1.8522248346457673,0,j,change,3.9505754797855843,0.0184246834548962,0.50001555480776,0.03531807337185455,0.3533513555294121,1.0010407289014438,9.43161897968821
6,23,male,134,165,215,change,valid,clock,2,0,2,0.23195137150105438,1,f,same,1.2012577264899846,0.02336341390231425,0.49940715335151253,0.03533667499777948,0.35332024591343725,1.0010686313403312,5.108619063395054
6,23,male,135,15,325,change,catch,anti,4,0,1,2.405803130012373,0,j,change,0.9358205417752288,0,0.49956687076064554,0.03529850959284886,0.3533032478758287,1.001069593493412,6.94565791545665
6,23,male,136,135,85,change,catch,anti,5,2,2,1.5240248017403246,1,j,change,6.73923310627606,0,0.5002211348464698,0.03532833633789778,0.353309982947394,1.001022447993364,11.904117598196535
6,23,male,137,15,15,same,valid,clock,2,0,1,0.2877158389960641,0,f,same,1.8771708979488722,0.018237488577149158,0.5007358867378571,0.0352574577282212,0.3533439790221564,1.0010744042588158,5.828006479780015
6,23,male,138,105,105,same,valid,anti,1,1,2,0.5242682264665746,1,j,change,6.156812348400763,0,0.5000800190637165,0.03530684825273056,0.35330485146414503,1.0010647827280081,10.325927106642212
6,23,male,139,15,65,change,valid,clock,3,1,1,0.8904062755468658,0,f,same,2.1787391753769043,0,0.5001387104007335,0.035326412031736254,0.3532997199813508,1.001026296605687,6.781554371109451
6,23,male,140,75,25,change,catch,anti,3,2,2,0.42423990709448844,1,f,same,2.180570152664586,0,0.4998548752455463,0.035361370260034164,0.35330966222954885,1.0010801771773004,6.239882078520168
6,23,male,141,15,15,same,catch,clock,1,2,2,0.46041750387348657,1,j,change,1.2538438816845883,0,0.4998208791707839,0.03532352557249396,0.3532884948622268,1.0010625377044562,5.321005693700954
6,23,male,142,15,15,same,valid,clock,3,2,3,1.0926797149586491,1,f,same,0.8305856914371361,0.0442825366293369,0.5000303078218167,0.035209029357247346,0.35330773792384207,1.0010907608611888,5.532996558378272
6,23,male,143,45,95,change,valid,clock,3,1,2,0.8837696644040989,1,j,change,2.9358968725855448,0.00010206655564534706,0.4997576977857534,0.03527156930704223,0.35335071409372176,1.0010368802895755,7.463745591334373
6,23,male,144,75,75,same,valid,anti,1,2,2,0.7065904598675843,1,j,change,2.834486259973346,0.04144281806733108,0.5002172862341467,0.03535303160015246,0.35325674381101635,1.0010814600477715,7.181652254148503
6,23,male,145,75,75,same,valid,anti,4,0,2,0.7025853373643258,1,f,same,3.1096161746909274,0.022926254862364187,0.5003228023542761,0.035329619208823715,0.35328143907327103,1.0010763285649773,7.405881385128396
6,23,male,146,45,95,change,valid,clock,1,2,1,0.5736799179735499,0,j,change,1.3214409076053926,0.03867882473706444,0.49955436277105036,0.03532865705574295,0.3533568077300515,1.0010509918679418,5.497440191763417
6,23,male,147,135,135,same,valid,clock,2,2,1,0.7855732844732302,0,j,change,1.0589100665906699,0.04815608927509768,0.4995293467909505,0.035307810405811324,0.35327566615478645,1.0010766492823677,5.4385381431147835
6,23,male,148,165,215,change,catch,clock,5,2,2,0.3927050195843549,1,j,change,0.8649021634651035,0,0.4996502573599173,0.035307810405811324,0.353327301702393,1.0010394460309726,4.884796281727176
6,23,male,149,105,55,change,valid,anti,1,1,2,0.5436180868100564,1,j,change,4.283180249434736,0,0.5000043296886361,0.03530428251133344,0.3533112658178652,1.0010718385174187,8.465803636745932
6,23,male,150,105,105,same,valid,anti,3,1,2,0.038438977205260016,1,j,change,2.4024246898743513,0,0.4993131830688071,0.03533635428038906,0.3533138315597171,1.0010532368914937,6.085505901686702
6,23,male,151,105,55,change,valid,anti,1,0,1,0.21711208473880106,0,f,same,2.5362685202435387,0.018068109032047502,0.5027012447376364,0.035349824423065,0.35330292715843825,1.001050991867487,6.371665618454244
6,23,male,152,135,135,same,valid,clock,1,0,2,0.3707756268668163,1,f,same,1.162070194197895,0.022530624818767442,0.49974775553755535,0.03531807337185455,0.3532714968246182,1.0010676691872504,5.202346883762857
6,23,male,153,75,75,same,valid,clock,5,1,2,0.40335316758410045,1,j,change,1.0843234155663595,0,0.500473539667837,0.0353225634194132,0.3532570645288615,1.0010990995206157,5.109709503538852
6,23,male,154,15,325,change,valid,anti,5,2,2,0.6917559838707348,1,j,change,0.9414533065514661,0.057128331730707194,0.4995094622945544,0.035335392127308296,0.35327310041338933,1.0010776114354485,5.261594986797718
6,23,male,155,75,125,change,catch,clock,4,2,3,0.3224854851191594,1,j,change,0.8661577732186743,0,0.4995450619580879,0.035305244663959456,0.35331351084232665,1.0010574062212072,4.7433536871471915
6,23,male,156,165,165,same,valid,clock,2,2,3,0.4877426509947327,1,f,same,0.8184378675223343,0.054845223549723376,0.5001197880569634,0.03532544987865549,0.35331254868879114,1.00102341014599,4.931859678313685
6,23,male,157,135,135,same,catch,clock,2,0,3,1.736964670060388,1,j,change,1.7925716651698167,0,0.5005392867947194,0.03531999767756133,0.3533561662943612,1.0010311073706362,7.146854705585611
6,23,male,158,15,15,same,valid,clock,4,1,2,0.31949832056170635,1,j,change,0.8768415208814986,0,0.5003644956541393,0.03534854155213907,0.35325321591653847,1.0010320695241717,4.8270584382908055
6,23,male,159,105,105,same,valid,anti,5,2,2,0.27023929067490826,1,j,change,1.7203771511735795,0.052476883508759314,0.4996265242507434,0.03534437222242559,0.3533051721819902,1.0010465018199284,5.6267849943887995
6,23,male,160,45,45,same,valid,anti,1,1,2,2.1582077910666158,1,f,same,1.1114840345130688,0,0.49994114830406033,0.035308451841501665,0.35330036141704113,1.0010907608611888,6.981819797068965
6,23,male,161,45,95,change,valid,clock,2,2,3,0.6139412130887649,1,j,change,2.450534908998179,0.05016601057819017,0.49942383067127594,0.03532031839586125,0.35334975194109575,1.0010583683747427,6.662644118502612
6,23,male,162,75,25,change,catch,anti,5,1,2,1.0087745152591197,1,j,change,0.8922241034097169,0,0.500170461451944,0.03531390404168633,0.3532840048142134,1.0010490675613255,5.556595286668653
6,23,male,163,15,65,change,valid,clock,2,1,1,0.24708732212593532,0,f,same,0.4837686381079038,0,0.5002686010643629,0.035326091313891084,0.3532464808449731,1.0011263605247223,4.35499631655739
6,23,male,164,165,165,same,valid,clock,5,0,2,2.7961653068773558,1,f,same,0.8154003502882006,0.017914159623929754,0.5004305634979573,0.03530203748732674,0.3533240945257603,1.0010570855038168,7.299760712532134
6,23,male,165,135,185,change,catch,clock,1,2,1,1.8201630079724964,0,j,change,1.582941924120405,0,0.4995729643969753,0.035316790501383366,0.35330549289983537,1.0010750456945061,7.075308682758077
6,23,male,166,15,15,same,valid,anti,2,0,2,0.9070858404102182,1,j,change,1.1082287499675658,0.013623285945136981,0.500100224277503,0.035326412032191,0.3533539212708092,1.0010670277520148,5.650905209642133
6,23,male,167,105,155,change,valid,clock,1,0,3,1.3938717905380145,1,f,same,0.654050808737793,0.00935184711324022,0.49993537538557575,0.03532448772557473,0.3533253773962315,1.0010044878026747,5.709784166616828
6,23,male,168,135,135,same,valid,clock,5,1,1,0.4555249555246519,0,j,change,0.8058734313299283,0,0.4996941956833325,0.03532993992621414,0.35327277969554416,1.0010564440681264,4.919721475930146
6,23,male,169,75,75,same,catch,clock,2,0,2,0.8892937058831194,1,j,change,1.5813174890240589,0,0.5005024042598052,0.035300754616855556,0.35334911050586015,1.0010237308638352,6.086862858229779
6,23,male,170,75,75,same,catch,clock,4,1,2,1.2637716977542368,1,j,change,5.0692833595308,0,0.5001387104007335,0.03533956145702177,0.35325738524625194,1.0010840257896234,9.984963151141073
6,23,male,171,15,15,same,valid,clock,1,2,2,0.8805397165560862,1,f,same,0.8616587454739602,0.04793106148231335,0.5001213916452798,0.03535142801138136,0.3532942677807114,1.0010413703366794,5.427055808405839
6,23,male,172,15,65,change,catch,clock,3,2,2,2.4819296428777307,1,f,same,0.8683332013042673,0,0.4993282567997994,0.03536265313050535,0.3532737418486249,1.0010404081840534,6.992172884794854
6,23,male,173,15,15,same,catch,anti,1,1,2,0.657424758828256,1,j,change,1.2571514432133881,0,0.500750639751459,0.0353142247595315,0.3533446204583015,1.0010137886156372,5.545073503683398
6,23,male,174,135,135,same,valid,clock,4,2,3,1.9773547653994683,1,f,same,0.5453804305120684,0.04582289122629074,0.5005524362200049,0.03532609131434583,0.3532891362974624,1.0010481054082447,6.1929530626453015
6,23,male,175,75,125,change,valid,clock,5,1,2,0.7234069711835218,1,j,change,2.2088292296971304,0,0.4999812380151525,0.03530235820517191,0.3532872119917556,1.0010721592352638,6.533765639397188
6,23,male,176,75,75,same,catch,clock,5,0,2,0.9115774916476767,1,j,change,1.6945750923587184,0,0.49999053882811495,0.03531967696017091,0.3532692518010663,1.001107117463107,6.239640578100079
6,23,male,177,165,215,change,valid,clock,1,0,2,0.5593669289391983,1,f,same,4.5754900486113,0.005344411303233099,0.5002403779080851,0.03532833633789778,0.35330132356966715,1.0010612548335303,8.819196685575207
6,23,male,178,75,75,same,valid,clock,2,1,3,0.9775539310849126,1,j,change,0.9923986700478054,0,0.49975352845603993,0.03539183844031868,0.3533022857227479,1.0010570855038168,5.567824575120994
6,23,male,179,165,165,same,catch,anti,5,1,2,0.8939338494105868,1,f,same,1.0192793024516504,0,0.5003118979525425,0.03532352557249396,0.353266365341824,1.0010262966052323,5.556791886612245
6,23,male,180,105,105,same,valid,clock,5,0,2,1.1991525355779231,1,j,change,0.921707359861557,0.001527252248675337,0.5002689217826628,0.03534629652858712,0.35330837935907766,1.0010131471804016,5.757139095582261
6,23,male,181,45,45,same,valid,anti,1,0,2,1.1258233223979914,1,j,change,0.8801763434139502,0,0.4996489744894461,0.03532577059604591,0.353332433185642,1.0010564440681264,5.638627495063247
6,23,male,182,165,165,same,valid,clock,2,0,1,0.2341011421717667,0,f,same,0.431270680277521,0,0.4999000964398874,0.03535399375277848,0.35325578165839033,1.001091081579034,4.3547323658990535
6,23,male,183,135,85,change,valid,anti,2,0,2,0.5994643373155668,1,j,change,1.4936178783436844,0,0.5002593002518552,0.035329619208823715,0.3533372439510458,1.0010551611976553,5.662693188309277
6,23,male,184,165,165,same,valid,anti,1,0,1,0.250299951218949,0,f,same,1.2052099305742558,0,0.499768602187487,0.03533635428038906,0.35328913629791714,1.0010715177995735,5.120518331100811
6,23,male,185,135,85,change,valid,anti,3,1,2,0.6298558662633695,1,j,change,0.5092547899989768,0,0.4998590445757145,0.03532737418481702,0.35328689127391044,1.0010262966052323,4.755598367803486
6,23,male,186,165,215,change,valid,clock,1,1,3,0.6765420988467667,1,j,change,1.0958147303708756,0,0.4998465365856646,0.03529850959284886,0.35328689127391044,1.001094609473057,5.391762430295785
6,23,male,187,45,95,change,valid,clock,3,2,3,2.2628724053538463,1,j,change,0.6572079536704223,0.04380617494734229,0.4997076658264632,0.035297226721922925,0.3533045307467546,1.0010683106229408,6.4868337370635345
6,23,male,188,15,15,same,valid,anti,4,2,3,1.2926394969608737,1,f,same,0.7345945663369093,0.04168578568571171,0.49946295822974207,0.03534693796427746,0.3533414132807593,1.0010429739254505,5.6385832360219865
6,23,male,189,165,115,change,valid,anti,2,2,2,0.3879741129512695,1,j,change,0.8398252473452885,0.039594921915040326,0.49990298289867496,0.03533378853899194,0.35331832160773047,1.0010301452180101,4.849814320493806
6,23,male,190,15,15,same,valid,anti,4,1,1,0.26176272214934215,0,j,change,2.7818936904245675,0,0.49977020577580333,0.03534373078719,0.35335809060097745,1.0010506711496419,6.66372686142131
6,23,male,191,45,45,same,valid,anti,5,0,2,0.5356844933317007,1,j,change,0.7244842619020346,0,0.4996531438191596,0.0353248084434199,0.3533237738083699,1.0010025634965132,4.919812880471454
6,23,male,192,135,135,same,catch,clock,3,0,1,0.4537510659856707,0,j,change,3.394143117703152,0,0.500207985421639,0.03531454547737667,0.35328111835542586,1.0010798564594552,7.49969676142473
6,23,male,193,45,95,change,valid,clock,1,1,2,0.45207691964787955,1,j,change,0.8024856903784894,0,0.5000360807403013,0.03532737418481702,0.3532718175424634,1.001062216986611,4.9085489545082055
6,23,male,194,45,45,same,valid,anti,4,2,2,1.3693676762113682,1,f,same,0.6332362307080075,0.03758399960370637,0.5001778379587449,0.03530460322917861,0.3533103036652392,1.0010580476568975,5.662800628734658
6,23,male,195,135,185,change,valid,clock,1,0,2,1.2738868129545153,1,f,same,1.1175013397983093,0,0.4997227395574555,0.035321601266332436,0.3533208873491276,1.0010593305273687,6.1216520681323345
6,23,male,196,165,115,change,valid,anti,1,0,2,0.5566587887710739,1,j,change,1.2699554555201757,0,0.49988887132076343,0.03534469294027076,0.3532884948622268,1.001043615360686,5.461859129886307
6,23,male,197,15,15,same,valid,anti,2,1,2,0.3893291451877303,1,f,same,2.995237983750485,0,0.5003571191473384,0.03532320485464879,0.35329298490978545,1.0010394460305179,7.052878329009673
6,23,male,198,165,165,same,valid,clock,1,1,2,0.4750852066722473,1,j,change,0.607722817812828,0,0.499621072050104,0.035315828347847855,0.35333339533872277,1.0010506711500966,4.7317510833040615
6,23,male,199,75,75,same,catch,clock,2,2,2,1.5979608127886422,1,j,change,1.0593305274810518,0,0.4999575049064333,0.03531454547737667,0.3533061343355257,1.0010862708131754,6.321850784812341
6,23,male,200,75,125,change,valid,clock,4,2,2,0.9906170832841781,1,j,change,0.6088446882899916,0.03567495595783232,0.5002673181938917,0.035329298490978545,0.35330356859367384,1.0010121850273208,5.238922811911834
6,23,male,201,15,325,change,valid,anti,4,0,1,0.39893143280323784,0,j,change,2.4187116962852997,0,0.5036627563699767,0.03531486619522184,0.35330388931106427,1.00105484047981,6.466862325838065
6,23,male,202,105,105,same,valid,clock,3,2,2,0.4650521952003146,1,j,change,0.6487913593523444,0.03383892091835616,0.49991292514732777,0.035316790501383366,0.35329298490978545,1.0010567647859716,4.731566029197438
6,23,male,203,75,75,same,valid,clock,4,2,2,0.5586613500227031,1,j,change,0.7332805859641667,0.03190034957209423,0.5003920773751815,0.035335392127308296,0.35328336337943256,1.0010336731120333,4.93278270382325
6,23,male,204,105,105,same,catch,clock,5,0,1,0.19768076210220897,0,j,change,1.0396063895941552,0,0.4997843173541696,0.03531005542981802,0.35335905275360346,1.0010644620106177,4.872669945898451
6,23,male,205,105,105,same,valid,anti,1,0,2,0.8216973213980054,1,j,change,0.7788263464453848,0,0.5007961816636453,0.03533956145702177,0.3532884948622268,1.001074724976661,5.22708415984971
6,23,male,206,15,15,same,valid,clock,5,2,3,0.7287279983652297,1,f,same,0.38512902633010526,0.029983399256643672,0.5004645595731745,0.035302358204717166,0.3533468654813987,1.0010227687107545,4.720775482543559
6,23,male,207,165,165,same,valid,clock,4,0,2,1.9534548831993561,1,j,change,0.9804407110054854,0,0.4999507698344132,0.035329939926668885,0.353294909215947,1.0010574062212072,6.56878095527054
6,23,male,208,15,15,same,valid,clock,2,2,2,0.5596295967266087,1,f,same,0.8657010712290685,0.028108332636981953,0.5004757846918437,0.035278945813843166,0.3533619392133005,1.0009980734489545,5.085775625263523
6,23,male,209,75,75,same,valid,clock,3,0,2,0.673961604320084,1,j,change,0.8438467264504652,0,0.5001444833187634,0.035326412031736254,0.35330036141704113,1.0010384838778918,5.143832582800314
6,23,male,210,45,355,change,valid,anti,5,0,1,0.45237069705126487,0,f,same,5.6113023479424555,0,0.500196760302515,0.035300113181165216,0.3533228116552891,1.001050991867487,9.73750924869637
6,23,male,211,45,45,same,valid,clock,2,2,2,0.42598845993597934,1,f,same,1.3656755741726556,0.026327563178156682,0.49950978301239957,0.03533346782114677,0.35332088734867284,1.0010615755513754,5.438294076953298
6,23,male,212,135,85,change,valid,anti,3,2,2,0.5549795109504885,1,j,change,0.8349246810544173,0.024616062622057844,0.49993120605540753,0.035332184950220835,0.3532522537634577,1.001107117463107,5.014713565427883
6,23,male,213,75,75,same,valid,anti,3,1,2,0.32753967518328864,1,j,change,1.697517997874911,0,0.49977341295243605,0.03531454547692192,0.3533125486892459,1.000983641152743,5.673655960361884
6,23,male,214,45,45,same,valid,clock,1,2,2,0.9658586398300031,1,f,same,0.529327548013498,0.022812974899940858,0.500139031118124,0.03529369882744504,0.35330068213443155,1.0010756871297417,5.108566465693912
6,23,male,215,135,85,change,valid,anti,2,1,3,0.4364942092815909,1,j,change,1.0833179656110588,0,0.5001938738432727,0.0352953024157614,0.35329555065118257,1.0010365595712756,5.1094227819244225
6,23,male,216,45,355,change,valid,anti,1,1,2,0.5776269905745721,1,j,change,1.3323578170288783,0,0.49929875077259567,0.03536586030759281,0.3533131901244815,1.001077290718058,5.543459010836159
6,23,male,217,15,15,same,valid,clock,4,0,2,0.3641778225642156,1,f,same,0.8834787734599558,0,0.5006338985131151,0.03530684825273056,0.35329587136902774,1.0010769700006676,4.92083051769896
6,23,male,218,165,165,same,valid,clock,1,0,1,0.7789899124663862,0,j,change,4.44153011843764,0,0.5003006728338733,0.03532095983109684,0.3533186423251209,1.0010711970817283,8.830894863289359
6,23,male,219,105,155,change,catch,clock,4,0,2,0.7222276922407218,1,j,change,0.8330353331471088,0,0.4997856002246408,0.035342447916264064,0.3533048514645998,1.0010426532076053,5.143593968839923
6,23,male,220,15,65,change,valid,clock,2,2,2,0.279214895925179,1,j,change,0.7354098307027925,0.02103533115281009,0.5008221597963711,0.0352590613169923,0.35336867428486585,1.0010439360785313,4.639096063607667
6,23,male,221,15,325,change,valid,anti,1,0,2,0.7239544362792003,1,j,change,0.5998103917017943,0,0.49944724306305943,0.03530428251133344,0.3532705346719922,1.0010541990445745,4.9666443981686825
6,23,male,222,165,165,same,valid,anti,2,2,3,1.5039376114291372,1,f,same,0.9745548999731,0.019260772059329245,0.5001348617884105,0.035335392127308296,0.3533022857227479,1.00103591813604,6.121543024117727
6,23,male,223,75,75,same,valid,anti,2,1,2,1.121913453048819,1,j,change,0.687890373562368,0,0.5002362085779168,0.03534341006934483,0.35326315816519127,1.0010577269390524,5.462628531622613
6,23,male,224,45,45,same,valid,clock,3,2,1,0.4208589012146149,0,f,same,1.1162867819089115,0.01754993961366841,0.4994183784706365,0.03532801562005261,0.3533292260090093,1.0009993563194257,5.167363960375951
6,23,male,225,15,65,change,valid,clock,2,0,1,0.9680196356198394,0,j,change,0.9792370575178211,0,0.4997830344832437,0.03529594385145174,0.3533327539034872,1.0010541990445745,5.5796757351731685
6,23,male,226,105,105,same,valid,anti,1,2,2,2.084691278756054,1,f,same,1.5748521411273941,0.023753201018650943,0.5000335149984494,0.035335071409463126,0.3533067757707613,1.0010202029693573,7.334766727592523
6,23,male,227,105,105,same,valid,anti,4,1,3,0.48154927169844086,1,j,change,0.7434033983886366,0,0.49985519596339145,0.0353248084434199,0.35327855261402874,1.0010551611972005,4.814516131618348
6,23,male,228,75,75,same,valid,clock,3,1,2,2.5995387438197213,1,j,change,2.2694172912374597,0,0.4998372357727021,0.035337637150860246,0.353315114430643,1.001056123350736,8.48886323860097
6,23,male,229,165,165,same,catch,anti,4,1,2,1.3450088469976436,1,f,same,0.9483230794544397,0,0.4997118351561767,0.035316149065693025,0.35331126581831995,1.0010368802891207,5.9095428586274465
6,23,male,230,15,65,change,valid,clock,4,2,2,1.5108073843325656,1,j,change,0.7111638941159981,0.02212637432466416,0.5000299871039715,0.03531999767801608,0.35331735945419496,1.001061254833985,5.826857348299654
6,23,male,231,105,55,change,valid,anti,3,0,2,0.36935228176162127,1,j,change,0.8224718546175609,0,0.5004193383783786,0.03530171676948157,0.35332281165483437,1.0010503504317967,4.861675102076333
6,23,male,232,135,185,change,valid,clock,4,1,2,1.6397900966867383,1,f,same,0.9437230256380644,0,0.5001412761421307,0.03532288413725837,0.3532965128047181,1.0010487468434803,6.263585360776688
6,23,male,233,165,115,change,valid,anti,1,1,1,1.2006127632171228,0,j,change,0.6754231148293002,0,0.4996505780773077,0.035327053467426595,0.35332088734867284,1.001054519761965,5.520801909681268
6,23,male,234,135,85,change,catch,anti,4,2,2,2.0676900340508837,1,j,change,2.290084659848617,0,0.49991645304180565,0.03530011318161996,0.3533507140941765,1.0010368802891207,7.970796088655334
6,23,male,235,135,85,change,valid,anti,3,0,2,2.2914797817966246,1,j,change,1.1597244650188259,0,0.5000748875804675,0.03534084432749296,0.35331190725355555,1.001059651245214,7.098975403198438
6,23,male,236,135,135,same,catch,clock,1,2,2,1.6714847016060048,1,j,change,0.765268006133283,0,0.5002775811599349,0.03533667499823423,0.35329522993379214,1.0010538783267293,6.098673607852561
6,23,male,237,135,85,change,valid,anti,1,0,2,3.615231781070179,1,j,change,0.9176669584126103,0,0.5000825848051136,0.035344692939816014,0.3532884948622268,1.0010939680382762,8.194178845653823
6,23,male,238,45,45,same,catch,anti,4,1,2,0.39945997555514623,1,f,same,1.500018120549612,0,0.5004671253141169,0.035294660980525805,0.35332601883192183,1.0010535576088841,5.5337059859070905
6,23,male,239,105,105,same,catch,clock,2,2,3,1.2747960476035587,1,j,change,1.221617847554171,0,0.49988598486152114,0.03535174872922653,0.3533022857227479,1.001052274738413,6.074081296161694
6,23,male,240,15,15,same,catch,anti,3,1,1,2.710043947944996,0,j,change,0.8129058081012772,0,0.5004235077085468,0.035294981698370975,0.3533224909369892,1.001030786652791,7.158742427454399
6,23,male,241,165,115,change,valid,anti,5,1,2,0.5710237340708773,1,j,change,2.5449888342136546,0,0.49964865377160095,0.035361049542188994,0.353294909215947,1.0010234101464448,6.827672291948147
6,23,male,242,105,155,change,valid,clock,3,0,2,1.035539368577247,1,f,same,3.874722539108916,0,0.5003051628814319,0.03531807337185455,0.3532888155796172,1.0010679899050956,8.536734523046107
6,23,male,243,105,155,change,valid,clock,3,1,1,0.21334268973714643,0,j,change,3.7615592267752618,0,0.4993558385212964,0.03532128054894201,0.3533305088794805,1.0010461811020832,7.65257999741516
6,23,male,244,165,215,change,valid,clock,4,0,2,0.7346619170516533,1,j,change,2.1423075701882226,0,0.49959701822353964,0.03538125475643028,0.3531723950586638,1.0011279641125839,6.50975222313491
6,23,male,245,75,125,change,valid,clock,1,0,2,0.9707457359781984,1,j,change,1.2466158671227276,0,0.5003064457519031,0.035351107293990935,0.35325385735177406,1.001062216986611,5.874852429773455
6,23,male,246,15,325,change,catch,anti,5,0,2,1.7901483223095056,1,j,change,3.13105775580334,0,0.4997079865438536,0.03531711121877379,0.3533093415121584,1.0010500297144063,8.547675486296157
6,23,male,247,135,135,same,catch,clock,1,0,2,2.325712867225775,1,f,same,1.1803886264528956,0,0.5001999674791477,0.03535014514091017,0.3533192837603565,1.0010420117723697,7.158147816858673
6,23,male,248,15,65,change,valid,clock,4,0,3,0.8086479600592611,1,j,change,2.4681836827176085,0,0.5004286391913411,0.03536169097742459,0.35328689127391044,1.00101122287424,6.899011772584345
6,23,male,249,165,115,change,catch,anti,3,0,2,3.1910893721533284,1,j,change,1.8906535488854388,0,0.5005582091380347,0.03529947174592962,0.3533240945257603,1.0010333523946429,8.748948286518043
6,23,male,250,15,15,same,valid,clock,4,2,2,0.8156222869288285,1,j,change,4.997186022994811,0.020511165583809637,0.4997801480240014,0.03531294188906031,0.3532891362974624,1.001043615360686,9.383943974468366
6,23,male,251,165,215,change,valid,clock,2,2,1,0.2976465415245002,0,f,same,3.3511351962970366,0.01890061277933014,0.5011826464788101,0.03528471873232775,0.35335648701220634,1.0010487468434803,7.2539689615832685
6,23,male,252,15,15,same,catch,clock,2,2,2,0.610008252066109,1,f,same,0.8756369052412083,0,0.4991448062814925,0.03528792590896046,0.35333980969244294,1.0010638205749274,5.108241257957616
6,23,male,253,135,135,same,valid,anti,4,2,2,0.42957664944333374,1,j,change,1.199274408299516,0.024534358136406642,0.4995017650699083,0.03532063911325167,0.3533205666312824,1.0010202029693573,5.23748760025228
6,23,male,254,15,15,same,valid,anti,1,2,3,0.4858289285434694,1,j,change,0.5760150634682759,0.02303065180117958,0.4998779669194846,0.0353013960516364,0.353315114430643,1.0010593305278235,4.637143855033173
6,23,male,255,45,95,change,catch,clock,5,2,2,1.3591823238371035,1,j,change,0.94226953307043,0,0.5003205573302694,0.035313262606450735,0.3533103036652392,1.0010513125853322,5.93353863541688
6,23,male,256,15,65,change,valid,clock,5,2,2,0.5037403700503091,1,j,change,1.5250703414071722,0.021544689098152325,0.5001727064759507,0.035329619208823715,0.35325193304561253,1.0010744042592705,5.697865976567755
6,23,male,257,165,115,change,valid,anti,5,0,2,0.9497640640320242,1,j,change,0.56657730402776,0,0.5000245349033321,0.035329939926668885,0.3532804769197355,1.0010343145477236,5.132666475732549
6,23,male,258,105,105,same,catch,clock,1,2,3,0.5285542976648685,1,j,change,0.8018769682043967,0,0.49988085337827215,0.03528792590896046,0.3533648256725428,1.001045860384238,4.955832684147481
6,23,male,259,45,45,same,valid,anti,2,2,3,0.4317854321689083,1,j,change,0.6755594198475592,0.020060525289693598,0.500193873842818,0.03530973471197285,0.35330645505291614,1.0010339938298785,4.709058382486091
6,23,male,260,15,325,change,catch,anti,1,2,2,0.41318508906488205,1,j,change,1.0655104366346677,0,0.49954474124024273,0.0353058860996498,0.35324070792648854,1.0010968544970638,5.155647181035874
6,23,male,261,45,95,change,valid,clock,5,1,1,0.47467693305361536,0,j,change,5.928363214065939,0,0.5001140151384789,0.03530171676993632,0.3533340367744131,1.0010574062212072,10.091081578713784
6,23,male,262,15,65,change,valid,clock,1,0,1,0.4100805418333948,0,j,change,0.5740535540808196,0,0.4994934264100266,0.03531454547737667,0.3532843255325133,1.0010641412927725,4.660526740318346
6,23,male,263,105,105,same,valid,anti,4,0,2,0.43267927236865944,1,j,change,0.5938290067983871,0,0.49996808858986697,0.03529401954529021,0.353321208066518,1.0010891572728724,4.649375065546792
6,23,male,264,75,75,same,catch,clock,4,1,2,1.170131112598483,1,j,change,2.2557855065751937,0,0.5002044575271611,0.03532737418481702,0.3533240945257603,1.0010185993805862,7.063834365990715
6,23,male,265,165,165,same,catch,clock,1,1,2,1.7197626560810022,1,f,same,5.572139831629556,0,0.5005049700016571,0.03532192198417761,0.35330709648815173,1.0010602926804495,10.939122330385999
6,23,male,266,75,25,change,valid,anti,4,1,3,1.541464467527021,1,j,change,1.3408805689018664,0,0.5002397364723947,0.03535591805939475,0.35330677577030656,1.001020844404593,6.511030924561965
6,23,male,267,135,85,change,catch,anti,2,1,2,0.9435463101908681,1,j,change,0.9442445126005623,0,0.49910664087656187,0.03535944595387264,0.3532830426615874,1.0010744042588158,5.5672607534233975
6,23,male,268,165,165,same,valid,anti,2,0,2,0.48207204153186467,1,j,change,0.7057527452629984,0,0.5002160033636756,0.03533378853853719,0.3532692518010663,1.0010092985680785,4.826855744711338
6,23,male,269,15,325,change,valid,anti,5,0,2,0.3323289524369102,1,j,change,2.875878726378687,0,0.49971760807466126,0.035294019544835464,0.3533327539034872,1.0010307866532457,6.898904011440209
6,23,male,270,135,135,same,valid,anti,4,1,2,0.430373312183292,1,j,change,1.540411872070763,0,0.49967591477525275,0.035354314471078396,0.35334045112767853,1.0010506711500966,5.6505902648714255
6,23,male,271,135,135,same,catch,clock,5,0,2,4.903545758556902,1,j,change,2.37758927417417,0,0.4996797633875758,0.03537836829718799,0.3532769490257124,1.0010352767008044,10.949895237567034
6,23,male,272,75,75,same,valid,anti,5,0,2,0.599784092851678,1,j,change,1.1185135248251754,0,0.49998701093363707,0.0353331471033016,0.35329234347454985,1.0010044878026747,5.367493722752897
6,23,male,273,45,355,change,valid,anti,4,2,2,0.22607903061134493,1,j,change,1.170624055686858,0.018591549388194073,0.5004953484713042,0.0353309020792949,0.35336995715533703,1.0010311073706362,5.050806172019293
6,23,male,274,45,355,change,catch,anti,4,1,1,0.3565748890237046,0,f,same,1.6444049035167154,0,0.4995267810495534,0.035369067484225525,0.3533125486892459,1.0010503504322514,5.638550202100305
6,23,male,275,105,105,same,valid,clock,4,0,2,1.4880258447142296,1,j,change,0.7602718659704806,0,0.49997225791958044,0.03533956145702177,0.35330581361768054,1.0010744042588158,5.921865794400219
6,23,male,276,15,15,same,valid,anti,3,2,2,0.6487961701177483,1,j,change,2.3474748453095344,0.017190205024520927,0.49955500420628596,0.03536489815451205,0.3532817597911162,1.0010420117723697,6.651751262906146
6,23,male,277,105,55,change,valid,anti,3,2,2,2.1250683529574417,1,j,change,0.772074597651681,0.015841824628438667,0.4993593664157743,0.03531807337185455,0.3533093415121584,1.0010182786631958,6.556513824375543
6,23,male,278,135,85,change,valid,anti,4,0,2,4.957440441923154,1,j,change,1.3727198174988189,0,0.5003022764221896,0.03536521887190247,0.3532551402227,1.0010946094735118,10.03191622084205
6,23,male,279,165,165,same,valid,anti,1,1,1,0.45235241614273036,0,f,same,1.0098614275079854,0,0.5002169655167563,0.035331543514530495,0.3532881741448364,1.001052274738413,5.167739200071992
6,23,male,280,135,135,same,valid,anti,3,2,2,0.31922250334901037,1,j,change,1.333992515090813,0.01453258141603439,0.5003019557047992,0.03531486619476709,0.3533455826109275,1.0010558026328908,5.285836433336954
6,23,male,281,165,215,change,catch,clock,3,2,2,0.7072334988342845,1,f,same,1.3968692180615108,0,0.499956863470743,0.03528920877943165,0.35332569811407666,1.0010346352655688,5.815651151520797
6,23,male,282,45,355,change,valid,anti,4,1,2,1.6647887576905305,1,f,same,1.050532279113213,0,0.5001050350429068,0.03534725868166788,0.3532961920868729,1.0010689520581764,6.428061579078985
6,23,male,283,135,185,change,valid,clock,4,0,2,3.241485025530892,1,j,change,1.187818693158988,0,0.4998737975893164,0.035305565382259374,0.35332184950220835,1.0010618962687658,8.099701187329174
6,23,male,284,135,185,change,valid,clock,2,1,2,0.2788281103926238,1,j,change,1.4297248210154976,0,0.500572320716401,0.03529850959284886,0.3532981163925797,1.0010651034458533,5.391810217231978
6,23,male,285,165,215,change,catch,clock,1,1,2,0.5115908976467836,1,f,same,1.86214559492646,0,0.5003385175209587,0.0353331471033016,0.35332505667884107,1.001062216986611,6.121878494820521
6,23,male,286,105,105,same,valid,anti,5,0,1,0.21792029331527374,0,f,same,1.5894845649804665,0,0.5005024042602599,0.03532192198417761,0.3532320485492164,1.0011286055482742,5.426991344150338
6,23,male,287,135,185,change,catch,clock,2,1,2,0.6478279234138427,1,j,change,1.2285928158594288,0,0.5003070871875934,0.03531390404168633,0.35330549289983537,1.0010554819150457,5.485626555681392
6,23,male,288,15,15,same,catch,clock,4,2,2,0.9632069459753438,1,j,change,0.7698436854052488,0,0.5007025320983303,0.03528311514401139,0.353331471033016,1.0010221272755189,5.416015101954599
6,23,male,289,135,135,same,catch,anti,3,0,3,0.5877969484995447,1,f,same,0.8400128671937637,0,0.5000588516963944,0.03531999767801608,0.35333628179796506,1.00105484047981,5.085013600033562
6,23,male,290,45,45,same,valid,clock,4,0,2,0.8228897497665457,1,f,same,2.8772023282822374,0,0.5003907945042556,0.035337316433015076,0.3532852876855941,1.0010782528711388,7.417809517425667
6,23,male,291,135,135,same,valid,anti,2,1,1,1.0152645584184938,0,j,change,1.231033477474739,0,0.4997060622376921,0.035349824423065,0.3532824012263518,1.0010760078471321,5.909670504267524
6,23,male,292,165,115,change,catch,anti,4,0,2,2.1701753716397434,1,j,change,1.1369775629113974,0,0.4998025982622494,0.03533795786825067,0.35334429974045634,1.0010468225373188,7.03981870470443
6,23,male,293,45,45,same,valid,clock,3,1,2,1.353364825672088,1,f,same,1.8104160766797577,0,0.5005242130632723,0.03534854155213907,0.3532807976375807,1.0010676691872504,6.9109655622964965
6,23,male,294,45,95,change,valid,clock,4,2,2,1.262188955957754,1,j,change,0.7809940773067865,0.013142651358521329,0.5004119618720324,0.03530684825273056,0.3533173594546497,1.0010538783267293,5.674771416484873
6,23,male,295,135,85,change,valid,anti,5,2,2,0.47755729862092267,1,f,same,1.5027984221974293,0.011766274483502231,0.49989271993263173,0.03534918298782941,0.35330196500490274,1.001083384353933,5.650823105913787
6,23,male,296,105,105,same,valid,clock,3,1,2,0.5178743986139125,1,f,same,0.8701580849560742,0,0.4997118351561767,0.035385103368753335,0.35328111835542586,1.0010311073706362,5.084716936170935
6,23,male,297,75,75,same,valid,clock,4,0,1,1.3190326384769833,0,j,change,1.1145064780162102,0,0.5003609677592067,0.03535495590631399,0.3532843255325133,1.001034955983414,6.062791392065719
6,23,male,298,135,135,same,valid,clock,3,2,2,0.6023241769503329,1,f,same,1.5802639314151747,0.010389806571248439,0.5004231869911564,0.03529786815715852,0.35332473596145064,1.0010413703366794,5.886720587862783
6,23,male,299,135,135,same,valid,anti,2,2,1,1.0253710142405907,0,j,change,0.5209055014947808,0.009008065883420568,0.4997108730030959,0.03533378853899194,0.3533215287843632,1.0010355974181948,5.167603536489878
6,23,male,300,45,355,change,valid,anti,2,2,1,0.2099757954360939,0,j,change,3.0684838103315997,0.013854462589696304,0.4993927210553011,0.03532512916081032,0.35333564036272946,1.001050991867487,6.933270194710985
6,23,male,301,75,75,same,valid,clock,5,2,1,0.2758284378451208,0,j,change,1.1591009898311313,0.018253295506883982,0.5038134936839924,0.035348220834748645,0.3533186423251209,1.0010625377044562,5.1125574766192585
6,23,male,302,165,165,same,valid,anti,5,0,2,0.5561992003226806,1,f,same,1.097285541693509,0,0.49971279730925744,0.03535752164771111,0.3532936263454758,1.0010570855038168,5.356293298892524
6,23,male,303,15,65,change,valid,clock,3,2,2,0.43376458102875404,1,j,change,0.704264615185366,0.022825464547858332,0.49903063078409104,0.03534212719887364,0.3533298674442449,1.0010593305273687,4.754101899065972
6,23,male,304,45,45,same,valid,clock,5,2,2,0.6990234467079972,1,f,same,11.60597266138302,0.021619353015495196,0.5006088825330153,0.03532769490266219,0.35330709648815173,1.0010256551704515,15.93313324825749
6,23,male,305,15,15,same,catch,clock,4,1,2,0.6242910936375665,1,j,change,0.652287182164855,0,0.49931061732695525,0.0353309020792949,0.35332024591343725,1.00103591813604,4.896430636621517
6,23,male,306,105,155,change,valid,clock,1,1,1,0.28335600272839656,0,f,same,0.7442465651938619,0,0.5000293456687359,0.03533603356254389,0.35332505667884107,1.0010481054086995,4.660969330729586
6,23,male,307,105,55,change,valid,anti,5,2,2,0.4590384178095519,1,j,change,0.3771979985931466,0.020410496635166253,0.5005210058861849,0.03529915102808445,0.3533176801720401,1.0010538783267293,4.437770665685093
6,23,male,308,15,65,change,valid,clock,1,1,2,0.7248495593498774,1,f,same,0.9275402524754099,0,0.500309011493755,0.03534052361010254,0.3532961920868729,1.00106734846986,5.273746659324388
6,23,male,309,75,125,change,catch,clock,3,2,1,0.45042394067741043,0,f,same,0.9337208030642614,0,0.5004219041197757,0.03536040810649865,0.3532689310832211,1.0010750456945061,5.014826137336968
6,23,male,310,105,155,change,valid,clock,1,2,1,0.40843493936972664,0,f,same,0.8489147073755703,0.019198270995247763,0.5006005438731336,0.035316469783538196,0.35330709648815173,1.0010256551699968,4.956001060934341
6,23,male,311,75,25,change,catch,anti,2,2,2,0.32647521317312567,1,f,same,1.0513715973052058,0,0.5004475615355659,0.035327374185271765,0.35331800088943055,1.0010304659354006,5.06183084258646
6,23,male,312,45,355,change,valid,anti,3,2,2,0.41828802821828504,1,j,change,1.0661015193359162,0.023455745103375475,0.5005800179410471,0.035312941888605565,0.35334975194109575,1.0010314280884813,5.120944244191833
6,23,male,313,105,105,same,valid,anti,2,1,2,0.47777795239107945,1,f,same,1.2452855301480668,0,0.5001505769550931,0.0353309020792949,0.35329715423995367,1.001031107371091,5.403541108149966
6,23,male,314,45,355,change,valid,anti,3,0,1,0.47994921114650424,0,j,change,1.5476068527104871,0,0.4999610328009112,0.03534373078673525,0.35328143907327103,1.001049708996561,5.63878785390807
6,23,male,315,45,95,change,valid,clock,4,0,2,0.5577149121218099,1,f,same,2.327144871708242,0,0.4997724507993553,0.035302999640407506,0.35332762242069293,1.0010038463669844,6.557474053137412
6,23,male,316,75,25,change,valid,anti,2,2,2,0.47139631181062214,1,f,same,1.1021469804268236,0.02232295366031245,0.4993891931608232,0.035361049542188994,0.3533032478758287,1.0010647827280081,5.190341137784344
6,23,male,317,105,155,change,valid,clock,2,0,2,0.4242646023567431,1,f,same,1.5573294094592711,0,0.5002429436499369,0.03535912523602747,0.35336193921284575,1.001015071486563,5.615675975069735
6,23,male,318,135,85,change,catch,anti,2,0,2,0.7585871359492558,1,f,same,1.1833870161294726,0,0.4999392239978988,0.03530877255843734,0.35333211246779683,1.001018599381041,5.614756156737258
6,23,male,319,75,125,change,valid,clock,1,1,2,0.9614388293548473,1,f,same,1.461685942334043,0,0.500874436779668,0.03531005542981802,0.3533045307467546,1.00105484047981,6.07511817645036
6,23,male,320,105,55,change,valid,anti,2,0,2,1.259123215566433,1,j,change,0.4435666757644867,0,0.5004517308652794,0.03533635428038906,0.35331190725355555,1.0010301452175554,5.356802277865427
6,23,male,321,165,215,change,valid,clock,4,2,2,0.7827490445019976,1,j,change,0.666332051210702,0.021191907305301044,0.4999472419403901,0.03530556538180463,0.35332858457331895,1.0010506711500966,5.143828413470601
6,23,male,322,75,75,same,catch,clock,5,2,2,0.2921927372194659,1,j,change,1.0139415979501791,0,0.5003680235481625,0.03529594385145174,0.35338920021649756,1.0010391253131274,5.0027828673892145
6,23,male,323,165,165,same,valid,anti,4,2,2,0.6075021640426712,1,f,same,0.8383618125294561,0.02005360205075571,0.5007814286495886,0.03532095983109684,0.35333435749180353,1.00102373086429,5.0860123149177525
6,23,male,324,135,135,same,valid,clock,5,0,2,5.414789960381768,1,j,change,2.664216597333052,0,0.5000521166248291,0.03533988217486694,0.35325674381101635,1.0010558026328908,11.70386468022707
6,23,male,325,15,15,same,valid,anti,4,0,2,0.6211470981306775,1,f,same,0.8128827164277936,0,0.5002400571902399,0.035270607153961464,0.3533353196448843,1.001050991867487,5.050612137817552
6,23,male,326,15,325,change,valid,anti,1,1,1,1.0975751497671808,0,j,change,0.7670633837578862,0,0.4995216495663044,0.03530428251133344,0.3533327539034872,1.001029824500165,5.48564804376656
6,23,male,327,105,155,change,valid,clock,4,2,1,0.6581502222411473,0,j,change,0.6458375494344182,0.018922636304321228,0.4990890014037177,0.03530107533424598,0.3533327539034872,1.0009781889521037,4.919160861409182
6,23,male,328,75,25,change,valid,anti,5,2,2,0.42409718772250926,1,f,same,0.8598229574213292,0.02294248227628115,0.5004225455559208,0.035307810405811324,0.353292664192395,1.0010814600482263,4.944773696787706
6,23,male,329,45,45,same,valid,anti,3,0,2,0.42783194521371115,1,f,same,2.62660475104758,0,0.4993782887595444,0.03536297384835052,0.3533080586412325,1.001046181102538,6.686524436924174
6,23,male,330,105,155,change,catch,clock,3,2,1,1.1854004817823807,0,f,same,1.3334559543964133,0,0.4999276781613844,0.03535848380079187,0.3532891362974624,1.0010612548335303,6.192802646049131
6,23,male,331,75,25,change,valid,anti,1,1,2,1.7196500841723719,1,j,change,0.5417034022052576,0,0.4997195323808228,0.03529883031069403,0.35333307462133234,1.0010288623470842,5.932922536735532
6,23,male,332,165,165,same,catch,clock,5,1,2,0.5052538368258865,1,j,change,1.170048688152292,0,0.5002374914488428,0.03532224270202278,0.3532888155796172,1.0010153922044083,5.297857573764304
6,23,male,333,165,165,same,valid,anti,3,2,1,0.27762349475187875,0,j,change,0.9358218246461547,0.02187828992252372,0.5000408915052503,0.035313583324295905,0.3532583473993327,1.0010413703366794,4.873083671717268
6,23,male,334,105,105,same,catch,clock,2,1,1,0.5127361805152759,0,j,change,2.7150432952844312,0,0.5002920134561464,0.03534725868166788,0.35328689127391044,1.0010602926804495,6.899786947238681
6,23,male,335,75,125,change,valid,clock,3,2,2,0.5485532906118351,1,f,same,1.2491498575850528,0.02553726533490583,0.4998529509398395,0.035311338300743955,0.35330966222954885,1.0010314280884813,5.521026412064202
6,23,male,336,165,165,same,valid,anti,5,2,1,1.297820049794609,0,f,same,11.059038032948592,0.0245853618668532,0.49961369554330304,0.035349824423065,0.3532965128047181,1.0010327109594073,16.013750129489836
6,23,male,337,15,325,change,valid,anti,3,2,2,1.3273841271043239,1,j,change,0.7236218520356488,0.028064057739345283,0.5000232520328609,0.03528279442571147,0.35333179174995166,1.0010962130618282,5.756329283417472
6,23,male,338,165,115,change,valid,anti,2,0,2,0.44936910019760035,1,f,same,0.6990202395309097,0,0.5003109357994617,0.035335071409463126,0.3532913813214691,1.0010330316772524,4.8147496140963995
6,23,male,339,105,105,same,valid,clock,1,0,2,0.7063810312160967,1,j,change,1.210648661147843,0,0.4999700128960285,0.03533539212685355,0.35325546094054516,1.00106734846986,5.638626853628011
6,23,male,340,105,105,same,valid,clock,2,2,2,0.49895237566806827,1,f,same,0.8500032232127523,0.02709668170508192,0.5002795054660965,0.03532577059650066,0.35327759046049323,1.0010676691872504,5.038793370252279
6,23,male,341,15,15,same,valid,anti,1,0,1,0.19780391769518246,0,j,change,1.3517904225359416,0,0.49982023773509354,0.03527509720152011,0.35334462045784676,1.0010558026328908,5.214825367614594
6,23,male,342,165,115,change,valid,anti,3,1,2,0.3322077211500982,1,j,change,1.4142970172933929,0,0.49929682646643414,0.035297868157613266,0.3533077379233873,1.0009554179960105,5.402180302995021
6,23,male,343,135,135,same,valid,anti,4,0,3,2.537701166161696,1,f,same,1.901180144880982,0,0.5000293456687359,0.03532224270202278,0.3533074172059969,1.00105484047981,8.0884112832332
6,23,male,344,45,45,same,valid,clock,4,2,2,2.861198194872486,1,j,change,1.820121314673088,0.0261604247965182,0.49991356658256336,0.035331543514530495,0.35324231151525964,1.0010833843543878,8.347561759803739
6,23,male,345,45,355,change,valid,anti,3,1,1,0.29302756536480956,0,f,same,3.0079813804136393,0,0.49944531875644316,0.03531679050092862,0.35332986744379014,1.0010195615341217,6.886278318168934
6,23,male,346,135,135,same,valid,clock,5,2,2,0.876442868794129,1,f,same,0.913934766663715,0.025248538847015944,0.500325047377828,0.03528343586140181,0.35335039337633134,1.0010291830644746,5.450625992821642
6,23,male,347,75,25,change,valid,anti,3,1,2,0.3528619403355151,1,f,same,1.146171576908273,0,0.5000376843286176,0.0353309020792949,0.35320991902835885,1.0010699142112571,5.167676339405261
6,23,male,348,165,215,change,valid,clock,2,1,3,0.9709477881219755,1,j,change,0.7366654404559085,0,0.5001906666661853,0.03534212719841889,0.35325930955241347,1.0010615755513754,5.308775445340416
6,23,male,349,165,165,same,valid,anti,5,1,2,0.3988429147207171,1,j,change,1.29435758162208,0,0.5001348617884105,0.03528022868431435,0.3533382061041266,1.0010221272755189,5.368349718265563
6,23,male,350,45,355,change,catch,anti,2,0,1,0.2507598603851875,0,f,same,1.2785532553325538,0,0.4996188270260973,0.03528343586140181,0.3533818237096966,1.001021165122438,5.120619998607708
6,23,male,351,105,105,same,valid,anti,5,1,1,0.3177593892510231,0,j,change,2.0829289350535873,0,0.5087470938965453,0.03531967696062566,0.35328689127391044,1.0010654241632437,6.001241818892595
6,23,male,352,135,185,change,valid,clock,5,1,3,0.8025193657358614,1,f,same,0.8383890735331079,0,0.4993869481368165,0.03530460322872386,0.3533135108418719,1.0010564440681264,5.249429844127917
6,23,male,353,45,45,same,valid,anti,2,1,2,0.6190970706611552,1,j,change,0.6148549377858217,0,0.4995832273630185,0.0353392407391766,0.3532766283078672,1.001070876364338,4.826136695652167
6,23,male,354,45,45,same,valid,clock,2,1,2,0.8323772204489615,1,j,change,0.7667773035786922,0,0.49953672329775145,0.03533635427993431,0.3533269809850026,1.001080818612536,5.249646649285751
6,23,male,355,165,165,same,catch,anti,2,1,2,0.40641089003338493,1,f,same,1.9741687558753256,0,0.49974486907831306,0.03533378853853719,0.3533070964886065,1.0010651034458533,6.074361282703649
6,23,male,356,165,215,change,valid,clock,3,0,2,0.4031706792188743,1,j,change,0.7132338060819166,0,0.4999446761985382,0.03532288413725837,0.3533103036652392,1.001030786652791,4.743623410723558
6,23,male,357,165,215,change,valid,clock,5,2,2,0.4374435336417264,1,f,same,1.2918761888599875,0.024354797376432646,0.50011561872725,0.03536457743666688,0.35327887333141916,1.0010647827284629,5.3328071425112284
6,23,male,358,135,135,same,valid,clock,2,1,3,0.09663256047861069,1,j,change,2.467801387232612,0,0.5000065747126428,0.03533122279714007,0.35330485146414503,1.00105484047981,6.180726983614932
6,23,male,359,165,115,change,valid,anti,1,2,2,0.49224681022224104,1,j,change,4.667398116810091,0.023399662195691617,0.4996858570234508,0.03531775265400938,0.3533180008898853,1.0010689520581764,8.818641523254882
6,23,male,360,15,15,same,valid,clock,2,1,2,0.4782728197851611,1,j,change,0.4742317769014335,0,0.49953351612111874,0.03536553959020239,0.3533112658178652,1.0010567647859716,4.5785259622571175
6,23,male,361,15,65,change,valid,clock,4,1,2,1.7610582657448504,1,j,change,2.8748498640320577,0,0.4997766201295235,0.03530845184104692,0.3533715607436534,1.0011087210514233,8.264672273025553
6,23,male,362,75,75,same,valid,anti,3,0,2,0.418874300153675,1,j,change,0.5773938288143654,0,0.5003609677592067,0.035331543514530495,0.3533144729954074,1.0010432946432957,4.602759070136926
6,23,male,363,105,105,same,catch,clock,1,2,3,2.4952333333444585,1,j,change,2.5001194673391183,0,0.5002509615915187,0.035332505668066005,0.3532884948622268,1.0010160336396439,8.606975545596924
6,23,male,364,105,105,same,catch,anti,1,1,1,0.4210744235015227,0,j,change,0.8338406552643391,0,0.5002198519759986,0.0353414857631833,0.35329170203931426,1.0010481054082447,4.896999589801908
6,23,male,365,105,105,same,valid,anti,2,0,2,0.18856051317425226,1,f,same,1.1655740349524422,0,0.5004382607221487,0.03534212719841889,0.35324327366788566,1.0010718385174187,5.0150105500083555
6,23,male,366,105,105,same,catch,anti,5,0,2,0.4650461015644396,1,j,change,0.7665194465566856,0,0.5002217762821601,0.03532993992621414,0.353283684096823,1.001046181102538,4.837826213988592
6,23,male,367,135,185,change,valid,clock,1,2,3,1.391161405346793,1,f,same,0.9847020869419794,0.02245062564423536,0.5005540398083212,0.035331864232375665,0.35331479371279784,1.0010266173230775,5.9689134758195905
6,23,male,368,75,25,change,valid,anti,3,2,2,0.3504979302483662,1,j,change,0.7949154700422696,0.021501108369914257,0.5003276131196799,0.03530428251133344,0.35331671801895936,1.0010327109594073,4.790777570415685
6,23,male,369,45,45,same,catch,anti,3,1,1,0.2212339484808581,0,f,same,3.91423431698513,0,0.500423828426392,0.035297226721922925,0.35336097706021974,1.0010535576088841,7.829815648265139
6,23,male,370,165,165,same,catch,anti,1,1,1,0.6248911564339323,0,j,change,0.8078105661729751,0,0.500416451919591,0.035332184950220835,0.35327117610677305,1.0010590098095236,5.039092599856303
6,23,male,371,15,15,same,valid,clock,3,0,2,0.3226602762597395,1,f,same,0.8257181590674918,0,0.4996204306148684,0.03532769490266219,0.3532628374473461,1.001088515837182,4.84975049767354
6,23,male,372,135,85,change,valid,anti,1,2,2,1.0854972423089748,1,j,change,0.8775182352060256,0.020544734741441056,0.49947610765457284,0.03534918298782941,0.3532993992635056,1.0010413703371341,5.602603842775352
6,23,male,373,75,25,change,valid,anti,3,0,2,0.7548735458262854,1,j,change,0.6840350262204993,0,0.5005068943078186,0.03530171676948157,0.35330613433507096,1.001068631340786,5.085794226888993
6,23,male,374,15,325,change,valid,anti,3,0,3,1.858279984618548,1,j,change,0.5192085842013512,0,0.4998381979257829,0.03535271088230729,0.35330837935907766,1.0010416910545246,5.944537007133476
6,23,male,375,45,45,same,valid,anti,4,1,2,0.33789949798074304,1,j,change,1.0957088935333559,0,0.49982248275910024,0.03533026064405931,0.3532593095528682,1.0010788943063744,5.050194563385958
6,23,male,376,45,45,same,valid,clock,1,0,2,1.0438456360107011,1,j,change,1.6049720221922144,0,0.4995764922914532,0.03532448772557473,0.3532824012263518,1.0010394460309726,6.321708386158207
6,23,male,377,135,185,change,valid,clock,4,2,1,0.05735586866876474,0,f,same,5.778665666882716,0.019577206982144796,0.4995944524821425,0.0353520694470717,0.3533051721819902,1.001066065598934,9.430653298726156
6,23,male,378,45,45,same,catch,clock,5,2,2,0.42199712829369673,1,f,same,1.588287967281758,0,0.5001169015977212,0.03530620681749497,0.35329170203931426,1.0010128264625564,5.697763026189477
6,23,male,379,105,155,change,valid,clock,5,1,2,0.8848729332553376,1,f,same,1.9434590749792733,0,0.5000479472946608,0.035353993753233226,0.35327855261402874,1.0011026274155483,6.545733219970316
6,23,male,380,165,215,change,catch,clock,4,2,2,0.598820336195331,1,j,change,0.7406763358771968,0,0.49987892907256537,0.035307489687966154,0.353321208066518,1.0010529161736486,4.967562292194998
6,23,male,381,105,55,change,valid,anti,2,1,2,1.3852476918750654,1,j,change,0.7224756070140756,0,0.5001868180538622,0.03530684825273056,0.3533366025158102,1.001049708996561,5.721069259946944
6,23,male,382,135,135,same,valid,clock,4,0,2,0.6221393986606927,1,f,same,1.040295611908732,0,0.5000662282031954,0.035265154952867306,0.35336161849545533,1.0009971112958738,5.321358803876592
6,23,male,383,165,115,change,valid,anti,4,2,2,0.35078240683878903,1,j,change,0.5035768040288531,0.02296607912003154,0.4994915021034103,0.03533154351498524,0.3532971542394989,1.0010423324897602,4.484622388596108
6,23,male,384,15,65,change,valid,clock,5,0,2,0.9779394337474514,1,j,change,0.984319791456528,0,0.4993292189528802,0.03528952949727682,0.3533032478762834,1.0010551611972005,5.638462966889165
6,23,male,385,135,185,change,catch,clock,3,0,3,1.7713513792623417,1,f,same,0.9376444632744096,0,0.49961914774394245,0.03531646978308345,0.35330517218244495,1.0010327109589525,6.344664396199278
6,23,male,386,15,325,change,valid,anti,4,2,2,0.910332465578449,1,j,change,0.8937340422903617,0.022065142123612907,0.5001508976729383,0.03530011318161996,0.3533590527540582,1.0010288623470842,5.40347792676539
6,23,male,387,105,105,same,valid,clock,5,2,2,0.50103928567205,1,j,change,0.7735399567736749,0.021160554147450772,0.4993972111033145,0.03533635428038906,0.3532913813214691,1.0010651034458533,4.884127585345595
6,23,male,388,75,75,same,valid,anti,2,2,2,1.0979205627186275,1,f,same,0.8958834922436836,0.02024660123611341,0.5005303066991473,0.03530877255889209,0.35334173399860447,1.0010439360785313,5.674881101934716
6,23,male,389,135,85,change,valid,anti,4,2,1,1.1775053744268007,0,j,change,2.033224107578917,0.01932739298798472,0.4996813669754374,0.03535399375277848,0.35330356859367384,1.0010817807656167,6.863642063664429
6,23,male,390,135,185,change,valid,clock,2,0,2,0.7704508039914799,1,f,same,1.2220347805505298,0,0.49981382338137337,0.03532352557249396,0.35336033562498415,1.001052274738413,5.638825377877765
6,23,male,391,75,75,same,catch,clock,3,1,2,0.5261139567678583,1,f,same,2.2060842069950013,0,0.4999748236614323,0.03530492394656903,0.35329939926396037,1.0010849879427042,6.415839990096174
6,23,male,392,135,85,change,valid,anti,4,1,2,0.41332043192960555,1,j,change,0.7464989655250065,0,0.50044627866464,0.03533058136190448,0.353303889311519,1.0010192408162766,4.8028615715102205
6,23,male,393,75,25,change,catch,anti,4,0,2,0.9135364352932811,1,f,same,0.6601803652142735,0,0.5002625074284879,0.03533988217486694,0.35324263223265007,1.0010692727760215,5.250741258759263
6,23,male,394,135,135,same,valid,anti,1,2,1,0.8050360374427328,0,f,same,1.138212646732427,0.02257410886258565,0.5000418536583311,0.03538414121567257,0.3532747040017057,1.0010381631600467,5.639089649253492
6,23,male,395,75,75,same,valid,anti,1,1,2,1.5142413086309716,1,j,change,1.0978875287960363,0,0.4996117712371415,0.035316149065693025,0.35332441524360547,1.0010686313403312,6.309521434685394
6,23,male,396,15,325,change,valid,anti,3,1,2,1.1703597843106763,1,f,same,2.2836218776928945,0,0.5002355671426812,0.03532993992621414,0.3532910606036239,1.0010355974186496,7.110749270287215
6,23,male,397,135,85,change,catch,anti,3,0,1,0.4053214120431221,0,f,same,2.894844046212711,0,0.5003837387148451,0.035329298490978545,0.3532753454369413,1.0010663863163245,6.958706314642313
6,23,male,398,135,135,same,valid,anti,3,0,2,1.340680441063796,1,j,change,0.8865008962452521,0,0.49975384917343035,0.0353392407391766,0.3533026064405931,1.0010516333031774,5.90987159425913
6,23,male,399,165,215,change,valid,clock,4,1,1,1.0703102975712682,0,j,change,0.873670264370503,0,0.4994629582292873,0.03531069686459887,0.35333371605656794,1.0010551611972005,5.626612448272226
6,23,male,400,15,65,change,valid,clock,5,1,2,1.1356032876128666,1,j,change,3.264457392173881,0,0.4998401222319444,0.03535335231799763,0.3533109451004748,1.0010474639730091,8.052713800834681
6,23,male,401,165,165,same,catch,clock,3,1,2,1.7002633412944306,1,f,same,0.7880440935505248,0,0.5125306004765662,0.035329298490978545,0.35327566615478645,1.0010105814385497,6.134275195661758
6,23,male,402,15,15,same,valid,clock,5,1,2,0.3738756840507449,1,f,same,1.0586050640681606,0,0.49975352845603993,0.03536329456619569,0.35330356859367384,1.0010570855038168,5.096560719716308
6,23,male,403,165,165,same,valid,clock,2,1,2,1.7551330064366084,1,j,change,0.5220334656078194,0,0.5000889991588338,0.03532512916126507,0.3532564230931712,1.0010910815785792,5.909448888344286
6,23,male,404,45,45,same,valid,anti,3,2,2,1.198589355315562,1,f,same,0.7162126319790332,0.02551971594619737,0.5002269077649544,0.035660920581904065,0.35293923329891186,1.0010618962687658,5.568623162167569
6,23,male,405,75,75,same,catch,anti,1,1,3,0.8484358758655617,1,j,change,0.48994566080182267,0,0.49932280459916,0.03531518691261226,0.3533282638559285,1.00106734846986,4.931265067717959
6,23,male,406,45,45,same,catch,clock,2,2,2,0.5691029558302034,1,j,change,1.262201784665649,0,0.5005024042602599,0.03531518691261226,0.35329522993379214,1.0010541990445745,5.521923780158431
6,23,male,407,135,185,change,valid,clock,1,1,2,0.42387974112943994,1,j,change,0.5615016258780088,0,0.49987636333116825,0.03533699571562465,0.35330292715843825,1.0010651034458533,4.64896037757444
6,23,male,408,45,355,change,valid,anti,1,2,1,0.15765583592337862,0,j,change,1.6496967453890647,0.024745765753651283,0.5004469200998756,0.035342768634109234,0.3532731004129346,1.0010442567959217,5.438667713061477
6,23,male,409,15,325,change,valid,anti,2,2,1,0.2995413416329029,0,j,change,0.6642865137891931,0.027579347947518124,0.5003814936917479,0.035260023470073065,0.35338022012138026,1.0010487468434803,4.579661944312193
6,23,male,410,105,55,change,valid,anti,3,1,2,0.35100273989110065,1,j,change,0.8236899404009819,0,0.4994578267464931,0.035363936001431284,0.35331190725355555,1.0010314280884813,4.837595617969782
6,23,male,411,75,125,change,catch,clock,4,1,2,0.962625484804903,1,f,same,1.2240678099824436,0,0.4995303089440313,0.03532128054894201,0.35329234347454985,1.0010679899050956,5.885341181081458
6,23,male,412,75,25,change,valid,anti,1,0,2,0.4555329734666884,1,f,same,1.9483878644273318,0,0.5006900241082803,0.03533603356254389,0.3532641203178173,1.001074724976661,6.134055824762527
6,23,male,413,45,95,change,valid,clock,5,0,1,1.1861413396441094,0,j,change,1.621384429220143,0,0.4997849587894052,0.03528760519157004,0.35330388931106427,1.001083063636088,6.451430032068856
6,23,male,414,165,115,change,catch,anti,1,1,2,0.7010333844664274,1,j,change,0.7258482742340675,0,0.49973941687767365,0.03531935624232574,0.3533253773962315,1.0010516333031774,5.096648917080529
6,23,male,415,135,135,same,valid,anti,1,1,2,1.459499609847171,1,j,change,1.068351995361354,0,0.5003359517795616,0.03531775265400938,0.353277590460948,1.0010721592352638,6.192872562505272
6,23,male,416,75,75,same,catch,clock,1,2,2,0.33643766675322695,1,f,same,0.9772332133957207,0,0.4994985578932756,0.03532833633789778,0.3533186423251209,1.0010631791396918,4.9673721066055805
6,23,male,417,45,355,change,catch,anti,4,0,2,1.7878628880566794,1,j,change,1.3158055770877581,0,0.49990747294668836,0.03531486619522184,0.35327855261402874,1.001085950095785,6.757963340043716
6,23,male,418,135,135,same,catch,anti,2,0,1,0.21687347077795494,0,j,change,2.141265558415853,0,0.4996448051592779,0.03528054940215952,0.35332505667884107,1.0010731213878898,5.967784549553471
6,23,male,419,75,75,same,valid,anti,2,0,1,0.2568737016945306,0,j,change,1.0567439393175846,0,0.500726906642285,0.035310696865053615,0.35328913629791714,1.0010779321532937,4.97996027590716
6,23,male,420,45,45,same,valid,clock,1,1,2,0.6803724302094452,1,f,same,0.9851238307032872,0,0.5000889991588338,0.03532031839586125,0.35326925180061153,1.00105484047981,5.35668136729646
6,23,male,421,75,25,change,valid,anti,4,2,2,0.32308971724569346,1,f,same,2.287896723772519,0.030702368470044733,0.499647370900675,0.035305565382259374,0.353289777732698,1.0010782528711388,6.285832905442476
6,23,male,422,75,125,change,valid,clock,3,1,2,1.3082045678543182,1,j,change,0.8118689278117017,0,0.5000562859545425,0.03527573863721045,0.3532965128047181,1.0010891572724177,5.709368195774005
6,23,male,423,45,355,change,catch,anti,2,1,2,0.6732008619610497,1,f,same,1.247993991032672,0,0.49994563835207373,0.03533859930394101,0.3532346142901588,1.0010634998570822,5.579457647145318
6,23,male,424,15,15,same,valid,anti,2,2,1,0.7791079365761107,0,f,same,2.0673901630116234,0.02985371304752546,0.500398491728447,0.03531999767801608,0.3532990785461152,1.0010596512456686,6.4757173412381235
6,23,male,425,75,75,same,valid,clock,2,2,2,0.5948155344103725,1,j,change,1.6734593604178372,0.03282055510810489,0.4996306935809116,0.03534180648057372,0.3533199251960468,1.001029503781865,5.909673711445066
6,23,male,426,165,115,change,valid,anti,4,0,2,0.3564754665394503,1,j,change,0.7329181749746567,0,0.4996964407064297,0.03534308935104491,0.3532945884981018,1.0010295037827746,4.69668733906019
6,23,male,427,45,45,same,catch,clock,4,2,2,2.7803648292001526,1,f,same,1.5595022718043765,0,0.4996864984586864,0.03527477648367494,0.35331735945419496,1.0010333523941881,8.0647885011158
6,23,male,428,135,85,change,valid,anti,2,2,2,1.1437540069664465,1,j,change,0.6856815908367935,0.03202917903575253,0.5000681525089021,0.035334429973772785,0.3533022857227479,1.001071517800483,5.473937999498048
6,23,male,429,105,105,same,valid,clock,4,2,1,0.5315456315529445,0,j,change,0.7418052621433162,0.03123325990458073,0.4999991982058418,0.03530107533424598,0.35330517218244495,1.0010564440681264,4.908618229529566
6,23,male,430,105,55,change,valid,anti,5,1,1,0.534527985344539,0,j,change,5.6856225787814765,0,0.49985872385786934,0.0352953024157614,0.3533449411761467,1.0010141093334823,9.842628961384435
6,23,male,431,105,105,same,catch,anti,2,0,2,0.5678027663179819,1,f,same,0.843680594687612,0,0.5005732828694818,0.03530107533424598,0.3533189630434208,1.0010590098099783,5.038784390157161
6,23,male,432,135,135,same,valid,anti,3,1,2,0.5677806367984886,1,j,change,0.6346230139961335,0,0.5003362724974068,0.035330260644514055,0.35328175979066145,1.0010333523941881,4.838030190438985
6,23,male,433,15,15,same,valid,anti,5,1,1,0.9502903617603806,0,j,change,0.9019274170968856,0,0.5001444833196729,0.035292095239128685,0.3533215287843632,1.0010497089961063,5.49755019793065
6,23,male,434,75,125,change,valid,clock,2,2,2,0.4866621531000419,1,j,change,1.2621097386891051,0.033993315066739416,0.5000505130365127,0.035297226721922925,0.3533237738083699,1.0010644620106177,5.379713066711702
6,23,male,435,15,15,same,valid,anti,3,1,1,2.7639809660468018,0,j,change,2.2619538698918404,0,0.5001881009247882,0.035340202892257366,0.3532891362974624,1.0010404081840534,8.63088665291707
6,23,male,436,75,75,same,catch,anti,1,1,3,1.2150184396641635,1,j,change,0.5556469244611435,0,0.4994004182799472,0.035311338300743955,0.3533459033287727,1.0010112228746948,5.343585822610294
6,23,male,437,75,25,change,valid,anti,4,0,2,0.3303918175943181,1,f,same,0.9870984895151196,0,0.5004382607221487,0.03530396179303352,0.3533131901249362,1.0010631791401465,5.0028726683422065
6,23,male,438,105,105,same,valid,clock,2,0,2,1.0922002420138597,1,j,change,0.6229209876701134,0,0.5005489083250723,0.03530011318071047,0.35332858457331895,1.0010381631600467,5.368835926282372
6,23,male,439,105,105,same,valid,anti,3,2,2,0.5533175518849021,1,j,change,0.45457146183434816,0.03323430434594174,0.499598621811856,0.03532288413771312,0.3533135108418719,1.0010535576084294,4.625633297167042
6,23,male,440,105,105,same,valid,clock,4,1,2,0.5128997465371867,1,f,same,0.9919416473403544,0,0.5000084990188043,0.035361690977879334,0.35327951476665476,1.0010288623470842,5.143753365530756
6,23,male,441,105,155,change,valid,clock,4,0,1,0.30034506016181695,0,f,same,0.9832643095414824,0,0.5004061889530931,0.035297547439768096,0.3533558455774255,1.0010439360785313,4.920628465555637
6,23,male,442,165,165,same,valid,anti,1,2,1,1.1102829467663469,0,f,same,0.8013878737283449,0.03247709298394691,0.5002435850847178,0.03535784236555628,0.35328721199130086,1.0010522747379582,5.6507560759164335
6,23,male,443,105,155,change,catch,clock,2,0,2,0.42109719445761584,1,j,change,1.1910569796664277,0,0.5000267799277935,0.03531839408969972,0.35331094510092953,1.0010718385174187,5.297664180997344
6,23,male,444,105,105,same,valid,anti,4,2,2,3.338262229686734,1,f,same,2.2382784900737533,0.03508185504350436,0.49949438856310735,0.03534533437505161,0.3533131901249362,1.0010493882791707,9.277629588387754
6,23,male,445,135,135,same,catch,anti,2,2,2,0.5079751264192964,1,j,change,0.4303098100799616,0,0.4995373647325323,0.03530684825273056,0.3533077379242968,1.0010923644495051,4.625399814688535
6,23,male,446,15,65,change,catch,clock,5,2,2,0.40922005627271574,1,f,same,4.253356070079462,0,0.5004991970836272,0.03532801562050736,0.3532779111783384,1.0010705556469475,8.324088111412493
6,23,male,447,15,15,same,catch,clock,1,0,2,0.40497439550290437,1,f,same,0.7944398457093484,0,0.5007676377890675,0.035321601266332436,0.35331543514803343,1.001024693016916,4.886040987079468
6,23,male,448,165,165,same,catch,anti,5,1,2,0.8603761954345828,1,j,change,1.0114871454752574,0,0.4994546195694056,0.03526836212950002,0.3533513555294121,1.0010541990441197,5.5793184556669075
6,23,male,449,105,105,same,catch,clock,3,0,1,0.22501713434303383,0,j,change,1.7438129548781944,0,0.5003619299122875,0.035329619208823715,0.35319388314383104,1.0011276433951934,5.604030395056725
6,23,male,450,135,185,change,valid,clock,5,0,2,0.5470504075192366,1,f,same,0.7979715889032377,0,0.5001056764785972,0.03530011318161996,0.3533080586412325,1.0010715177995735,5.061897231148578
6,23,male,451,45,95,change,valid,clock,1,0,1,0.37206491197684954,0,j,change,1.2931568145932033,0,0.5068471623053483,0.03537067107299663,0.3533260188323766,1.0010618962696753,5.269224539906645
6,23,male,452,75,75,same,valid,clock,1,1,2,0.6543214944676947,1,j,change,0.5842494901389728,0,0.49918938604059804,0.03530107533424598,0.35336995715533703,1.001021165122438,4.87226231371551
6,23,male,453,165,215,change,valid,clock,5,1,2,0.27725338653817744,1,f,same,1.1567174159654314,0,0.4997936181671321,0.035292415956973855,0.35335776988267753,1.001032390241562,5.073236846485997
6,23,male,454,15,15,same,valid,anti,3,0,3,0.4088999800187594,1,j,change,0.958104648258086,0,0.49986642108251544,0.03531069686414412,0.3532977956747345,1.0010651034453986,5.002449000275192
6,23,male,455,105,55,change,catch,anti,5,1,2,0.4493078431187314,1,f,same,0.8753498629093883,0,0.5002166447993659,0.0352908123686575,0.3533215287843632,1.0010612548330755,4.944588963398019
6,23,male,456,165,215,change,catch,clock,2,0,1,0.668948145401373,0,j,change,2.9782880538759855,0,0.4999305646206267,0.03534212719841889,0.3533000406996507,1.0010240515821351,7.240133841906754
6,23,male,457,15,325,change,valid,anti,4,1,1,0.8136184428067281,0,j,change,1.143698843524362,0,0.5007022113804851,0.03530941399458243,0.35330837935907766,1.0010593305278235,5.581045199705841
6,23,male,458,75,125,change,valid,clock,2,0,2,0.4587128893554109,1,j,change,0.9374138672556,0,0.49937732660691836,0.03534052361010254,0.35329843711133435,1.0010676691872504,5.061520708580247
6,23,male,459,45,45,same,valid,anti,2,0,2,2.933148321988483,1,j,change,2.1578604538090076,0,0.4996621239142769,0.035338599304850504,0.3533244152431507,1.001050991867487,8.747805248673103
6,23,male,460,15,15,same,valid,anti,1,1,1,5.160554482397856,0,f,same,1.2746610254562256,0,0.4995261396143178,0.03530364107609785,0.3533471861992439,1.0010448982311573,10.066535450369884
6,23,male,461,135,185,change,valid,clock,3,1,1,0.25876304960274865,0,f,same,0.8002198199046688,0,0.4996541059726951,0.03533282638545643,0.35322595491288666,1.0010567647859716,4.684249265636936
6,23,male,462,75,125,change,valid,clock,4,0,2,0.5856433292165093,1,j,change,0.8210010432949275,0,0.5003420454158913,0.0352718900248874,0.35332730170193827,1.0010638205749274,5.026736630161395
6,23,male,463,135,185,change,valid,clock,5,2,2,0.7108637023584379,1,j,change,0.5328368409691393,0.03440092132886105,0.5001015071493384,0.03530877255889209,0.3533199251960468,1.001046181102538,4.884798847469028
6,23,male,464,165,165,same,catch,anti,5,2,2,0.3521688694090699,1,f,same,0.911854912448689,0,0.5000421743761763,0.03526836212950002,0.3533481483518699,1.001044577513312,4.9443038453737245
6,23,male,465,75,75,same,valid,clock,5,0,2,0.6098357059490809,1,j,change,0.47964581221276603,0,0.500045381552809,0.03535559734154958,0.353283684096823,1.0010352767012591,4.732029786975545
6,23,male,466,45,95,change,valid,clock,4,1,1,0.8745416543324609,0,j,change,0.5510446256212163,0,0.5000889991588338,0.035310696865053615,0.3533215287843632,1.0010439360785313,5.061779848473634
6,23,male,467,45,45,same,valid,clock,2,0,1,1.0219544086976384,0,j,change,0.967018034276407,0,0.5001964395851246,0.03525777844697586,0.3533455826109275,1.0010250137347612,5.650855498400233
6,23,male,468,105,105,same,catch,anti,1,0,2,0.5622267685739644,1,j,change,0.6291967914121415,0,0.4999023414638941,0.0353286570561977,0.35324038720864337,1.0010532368905842,4.849627342081476
6,23,male,469,105,55,change,valid,anti,4,1,1,0.3015538451318207,0,f,same,1.4760281166782079,0,0.5003417246980462,0.03540659145346581,0.3531986939087801,1.001053557609339,5.486012699779167
6,23,male,470,105,105,same,valid,clock,1,1,2,0.7001542972802781,1,j,change,0.8137047158652422,0,0.4995607771243158,0.035277983660307655,0.3533327539025777,1.0010044878026747,5.167212260908855
6,23,male,471,165,165,same,catch,clock,5,1,2,0.1547222312201484,1,f,same,1.7725030764840994,0,0.500186818054317,0.03534565509289678,0.3532503294563867,1.0010577269385976,5.5917946944955474
6,23,male,472,165,165,same,valid,anti,3,0,2,5.137132469554672,1,j,change,1.288826805071949,0,0.5003737964661923,0.035310376147208444,0.3532955506516373,1.0010596512447592,10.091121989142266
6,23,male,473,15,325,change,valid,anti,2,1,2,0.5057147081452058,1,f,same,0.8526748015647172,0,0.4998859848619759,0.03535271088276204,0.35333082959732565,1.0010048085205199,4.943743551569241
6,23,male,474,105,155,change,valid,clock,5,2,2,0.5160629851061458,1,j,change,0.5490414229343514,0.033671028499992955,0.5001938738432727,0.03535784236555628,0.3533010028522767,1.0010282209113939,4.720757843070714
6,23,male,475,165,165,same,valid,anti,4,0,1,1.6095371177807465,0,j,change,0.7037982916644978,0,0.49969708214212005,0.035329298490978545,0.3533247359609959,1.0010561233502813,5.979779711848096
6,23,male,476,105,155,change,valid,clock,3,2,2,0.42238776243902976,1,j,change,3.353703503552424,0.032944806782957387,0.4999703336143284,0.03540338427774259,0.35321056046359445,1.0009955077075574,7.487394030866199
6,23,male,477,135,185,change,catch,clock,5,1,2,0.448397646317062,1,j,change,2.554082784291495,0,0.5004943863177687,0.035264834235022136,0.3533638635190073,1.001065103446308,6.710808859634199
6,23,male,478,135,135,same,catch,clock,2,2,2,0.521406141807347,1,j,change,2.3665068744230666,0,0.5005829044002894,0.03531839408969972,0.3532801562023451,1.0010532368905842,6.534058454646583
6,23,male,479,15,325,change,catch,anti,5,0,2,3.5010370406480433,1,f,same,0.8178079779809195,0,0.5007140779352994,0.03527253146057774,0.3533593734719034,1.0010343145477236,7.9360864167401814
6,23,male,480,45,355,change,valid,anti,2,0,2,0.39169860747551866,1,f,same,0.866636284010383,0,0.5002352464252908,0.03536008738865348,0.3533067757707613,1.001047143255164,4.943921229169064
