subject,age,gender,ntrial,memory_ori,test_ori,type,trial_type,which_change,trial,quest,pas,pas_rt,vis,test_key,test,test_rt,contrast,fix_dur,target_dur,mask_dur,retention_dur,trial_dur
7,23,male,1,45,355,change,valid,anti,4,2,1,0.4722308192381206,0,f,same,6.765889877732661,0.2,0.506804506852859,0.03535399375277848,0.35326347888212695,1.0010814600477715,10.968729383866048
7,23,male,2,135,85,change,valid,anti,1,0,2,0.209009793756195,1,j,change,2.009391576093549,0.2,0.4993641771811781,0.03531775265446413,0.3533176801720401,1.0010416910545246,5.8738473005355445
7,23,male,3,15,15,same,valid,anti,5,0,1,0.2659445600984327,0,f,same,4.105455504109159,0.0723357464867447,0.4995347989915899,0.03533731643346982,0.35329843711042486,1.0010474639730091,8.11142406030558
7,23,male,4,105,105,same,valid,anti,3,0,1,0.24468995739925958,0,f,same,4.402743483257382,0.15406686854268764,0.5000177998317668,0.03530267892301708,0.3533048514645998,1.001076970000213,8.359650571663224
7,23,male,5,165,165,same,valid,anti,3,2,2,4.872059940852978,1,f,same,2.515065553091972,0.3670372117912738,0.4997269088876237,0.03534180648102847,0.35331030366478444,1.001049388278716,11.055876397968404
7,23,male,6,75,125,change,valid,clock,5,2,1,0.255008086896396,0,j,change,2.706093347449496,0.3227502669243441,0.5001573120266585,0.035345975811196695,0.35329939926396037,1.00103591813604,6.651709890324582
7,23,male,7,45,355,change,valid,anti,1,2,2,0.5979579263293999,1,j,change,1.9322788563335962,0.410545444309991,0.500161481356372,0.035334109255927615,0.3532830426615874,1.0010474639730091,6.215747110253687
7,23,male,8,135,185,change,valid,clock,4,2,2,0.25399558115168475,1,j,change,1.279420796681734,0.38602135432929263,0.5001024693019644,0.035329298490978545,0.35326989323630187,1.001080818612536,5.214457825142745
7,23,male,9,135,135,same,valid,anti,3,0,2,1.5795490516857171,1,f,same,1.6406512236821982,0.21311075128297638,0.5004751432566081,0.035323846290339134,0.3533080586412325,1.0010468225377736,6.993725158410598
7,23,male,10,135,185,change,valid,clock,3,2,2,0.2686026683068121,1,j,change,1.4120077344277888,0.3675055704312141,0.4999889352397986,0.03534405150458042,0.35327053467153746,1.001073442105735,5.367763446329718
7,23,male,11,105,105,same,valid,clock,4,2,2,0.15693742829989787,1,f,same,1.7691570288329785,0.3520309877693225,0.5000825848051136,0.03534308935149966,0.3532564230931712,1.0010888365550272,5.615596437083241
7,23,male,12,15,65,change,valid,clock,2,0,1,0.3391964803158771,0,f,same,3.7820944596978734,0.16195296589871255,0.49963871152294814,0.03534084432794771,0.3533289052911641,1.0010513125853322,7.781665018712374
7,23,male,13,15,15,same,valid,anti,5,2,2,0.5875313942528919,1,f,same,1.9907379938531449,0.33824754329740725,0.5002063818328679,0.0353248084434199,0.3533045307467546,1.0010416910545246,6.263649825032644
7,23,male,14,105,105,same,valid,clock,3,1,1,0.31009584006687874,0,j,change,4.262523143790077,0.2,0.49948444631445454,0.035342447916264064,0.3532945884981018,1.0010330316767977,8.252686090826955
7,23,male,15,165,165,same,valid,anti,5,2,2,0.5691616471676753,1,f,same,1.6111426305328678,0.32636983436118494,0.5001961188668247,0.03530075461640081,0.3533032478758287,1.0010811393303811,5.874754931595817
7,23,male,16,105,155,change,valid,clock,2,2,1,0.9705834528276682,0,f,same,8.77195432851795,0.31577200285506574,0.4997137594623382,0.03534052361010254,0.3533157558658786,1.0010737628235802,13.422845105864326
7,23,male,17,75,75,same,valid,clock,4,0,2,0.4494422238308289,1,f,same,2.397282623162937,0.19795568613732417,0.5003423661332818,0.03533410925638236,0.35327791117879315,1.0010455396668476,6.5226393013231245
7,23,male,18,165,215,change,valid,clock,1,1,2,0.25071431847345593,1,j,change,1.2592527855131266,0.33948538693435915,0.49997706868498426,0.03533699571562465,0.35330421002890944,1.0010593305273687,5.120836162330306
7,23,male,19,135,135,same,valid,anti,1,2,2,5.411561616122071,1,j,change,1.5416835177088615,0.34926912076789857,0.49960952621358956,0.035332184950220835,0.35330581361768054,1.0010651034458533,10.643697400294513
7,23,male,20,75,75,same,valid,clock,1,2,2,7.02545760801695,1,f,same,1.493185230180643,0.34104216778189744,0.4999985567701515,0.03532192198417761,0.3532820805085066,1.0010609341161398,12.20983275534627
7,23,male,21,75,75,same,valid,anti,5,2,3,1.5809566816237748,1,f,same,1.9873906633306433,0.33337136268290635,0.5002368500136072,0.03531646978308345,0.3533128694066363,1.0010631791396918,7.2403169717063065
7,23,male,22,75,25,change,catch,anti,1,0,1,0.6571893520444974,0,f,same,4.479075255443604,0,0.5000752082978579,0.03533122279714007,0.35329843711042486,1.0010532368914937,10.37340807765986
7,23,male,23,75,25,change,valid,anti,5,2,2,0.30335435423967283,1,f,same,3.1699280983011704,0.32611256316207315,0.5001711028871796,0.03534629652858712,0.3533135108418719,1.0010500297144063,7.146050345621461
7,23,male,24,105,55,change,valid,anti,5,1,2,1.4664139625087955,1,j,change,2.955439484260296,0.277883819201003,0.500235567143136,0.03532865705574295,0.35333307462133234,1.0010394460309726,8.076607910117218
7,23,male,25,75,75,same,valid,clock,1,1,2,1.0009416271354894,1,f,same,1.1291546170359652,0.2361351957338891,0.4998163891227705,0.035283756578792236,0.3533205666312824,1.001089798708108,5.815162698480435
7,23,male,26,105,155,change,valid,clock,4,0,2,0.8247842291566485,1,j,change,1.5671998170628285,0.16455560311634226,0.5001569913088133,0.03532577059650066,0.3532907398862335,1.0010779321537484,6.050727916903725
7,23,male,27,15,15,same,valid,anti,1,2,2,0.7043444738897051,1,f,same,1.7927823766913207,0.3196954926630848,0.500555001961402,0.03534052361010254,0.3532852876855941,1.0010821014834619,6.192852998726266
7,23,male,28,15,15,same,catch,anti,3,2,1,0.35676635748404806,0,f,same,3.674950056237776,0,0.4995024065051439,0.03533410925638236,0.35322595491288666,1.0010974959322994,9.289223212135312
7,23,male,29,75,125,change,valid,clock,4,1,2,0.4395314057987889,1,j,change,2.0411333265128633,0.20435316182746724,0.5002647524524946,0.03533924073963135,0.35329170203931426,1.0010182786636506,6.203945661443413
7,23,male,30,135,85,change,catch,anti,4,2,1,1.1852064475801853,0,j,change,2.3410903182707443,0,0.5004655217258005,0.035294660980525805,0.35333628179796506,1.0010230894285996,8.771798780438985
7,23,male,31,75,75,same,catch,anti,1,1,1,0.6168841186054124,0,f,same,1.868060911986504,0,0.5000065747126428,0.03535527662370441,0.35329298490978545,1.0010625377044562,7.676574812051513
7,23,male,32,165,165,same,valid,clock,1,2,2,0.26184001511228416,1,j,change,6.175311986150064,0.31347868833962034,0.4996294107104404,0.03536457743666688,0.35328175979066145,1.0010705556464927,10.11374477350455
7,23,male,33,45,95,change,valid,clock,3,2,1,0.4797795514891732,0,j,change,1.960994314637901,0.3073866780725953,0.49966052032596053,0.03535239016446212,0.3532522537634577,1.0010554819155004,6.180301391241301
7,23,male,34,135,135,same,catch,anti,2,2,2,1.6311717709422737,1,f,same,3.410867262325155,0,0.5000386464812436,0.035313583324295905,0.3533016442875123,1.0010198822515122,10.219929910355859
7,23,male,35,135,85,change,valid,anti,1,2,1,0.4010529803172176,0,j,change,2.224704755313269,0.3270705610352104,0.5005453804305944,0.035343089351954404,0.3532920227567047,1.0010314280884813,6.357990536903799
7,23,male,36,15,325,change,valid,anti,2,1,1,0.2839794779165459,0,f,same,2.0665636735257067,0.17691399892921375,0.4997320403708727,0.035326732749581424,0.353294909215947,1.0010804978946908,6.07470605421986
7,23,male,37,165,215,change,valid,clock,4,2,2,0.3085268891313717,1,j,change,7.9761982574127614,0.3448235614743923,0.4996656518092095,0.03533667499823423,0.3532718175424634,1.0010795357420648,11.962934656657126
7,23,male,38,45,95,change,valid,clock,3,0,2,0.6340351384715177,1,j,change,1.439597473642607,0.1380407644483403,0.49987187328315486,0.03528503945017292,0.3533596941892938,1.0010651034458533,5.779692284206249
7,23,male,39,135,185,change,valid,clock,2,0,1,0.2107971534378521,0,j,change,1.5793489238476468,0.11673800272309351,0.500412603307268,0.03529401954529021,0.35334814835232464,1.001034635265114,5.49773172414325
7,23,male,40,45,95,change,valid,clock,1,0,1,0.7865161944791907,0,f,same,6.031650666595397,0.13491762731576495,0.500230435659887,0.035337637150860246,0.3532904191683883,1.001038483877437,10.549907039977825
7,23,male,41,165,165,same,valid,anti,2,1,1,0.3077048896939232,0,j,change,1.3824471850130067,0.2159982907572293,0.5001749514990479,0.03533539212685355,0.3532628374473461,1.0010699142112571,5.426628291726047
7,23,male,42,45,45,same,valid,anti,4,2,2,0.8962010027562428,1,f,same,0.9966347092872638,0.34001335555154955,0.5001807244179872,0.035316149065693025,0.3533016442875123,1.0010551611976553,5.58053878647479
7,23,male,43,165,165,same,valid,anti,1,1,2,0.24255910907186262,1,f,same,1.19026737271588,0.24847722492665172,0.49966308606735765,0.03528600160279893,0.3533016442875123,1.0010779321532937,5.108723617362102
7,23,male,44,135,85,change,valid,anti,5,0,2,0.4806730709715339,1,j,change,0.5113811482783603,0.15130967911993284,0.49942864143667975,0.03530075461640081,0.3533343574922583,1.0010590098095236,4.6843477259672
7,23,male,45,75,125,change,valid,clock,1,2,2,0.25311681468338065,1,j,change,1.1136751777657992,0.335615935023468,0.49988373983751444,0.035292095239128685,0.3533000406987412,1.0010667070341697,5.061564967621962
7,23,male,46,135,185,change,valid,clock,4,1,3,1.3871947689663102,1,j,change,3.561366924448521,0.2316793813935425,0.4996223549210299,0.0352953024157614,0.3533366025153555,1.0010269380409227,8.60638927366108
7,23,male,47,135,135,same,valid,anti,3,1,2,1.148365606619791,1,f,same,4.894067909404839,0.2169704158557048,0.49969547855425844,0.035328977773133374,0.3533183216072757,1.0010490675613255,9.725597152283626
7,23,male,48,75,25,change,catch,anti,5,1,1,0.3266237054631347,0,f,same,1.840752121467176,0,0.4996919506593258,0.03533924073963135,0.3532939470628662,1.0010420117723697,7.322852706873164
7,23,male,49,105,105,same,valid,clock,5,1,2,0.558749547386924,1,f,same,3.5902895663803065,0.20429832818600366,0.5001188259038827,0.03533026064405931,0.3532968335221085,1.0010266173235323,7.9000749517240365
7,23,male,50,165,215,change,valid,clock,1,0,2,0.2330376423146845,1,j,change,0.9841655262480344,0.13435445120294912,0.5001954774315891,0.03533571284469872,0.35327630759002204,1.0010541990445745,4.884767096417363
7,23,male,51,165,215,change,valid,clock,5,1,2,0.47385333002785046,1,j,change,0.9233176833790822,0.19251577535175554,0.5084821810855829,0.03531230045336997,0.3532820805085066,1.0010779321532937,5.07021312011193
7,23,male,52,75,25,change,valid,anti,1,1,1,0.6258244449099948,0,f,same,0.9697223258317536,0.1818767466682561,0.49943762153179705,0.03530845184104692,0.3533067757707613,1.001042011771915,5.261136360502405
7,23,male,53,135,135,same,valid,clock,4,1,1,1.3285842526975102,0,f,same,1.5037358800027505,0.19817090393282108,0.4997740543881264,0.035332184950220835,0.3532987578287248,1.0010336731120333,6.46322378365403
7,23,male,54,15,15,same,valid,anti,3,0,1,0.37733205858739893,0,j,change,1.4955149234751843,0.11946820246905925,0.499664689655674,0.03532801562050736,0.35327502471955086,1.0010830636365426,5.497614020750916
7,23,male,55,135,135,same,valid,anti,4,2,2,0.6824718482030221,1,f,same,4.304695595616067,0.3315790676271725,0.49961497841422897,0.03533827858655059,0.35327951476665476,1.0010458603846928,8.652876019842097
7,23,male,56,15,15,same,valid,clock,4,0,2,0.21608931602759185,1,f,same,3.9157487459137883,0.1320928051926685,0.5003673821129269,0.03533731643346982,0.35330581361768054,1.0010445775137669,7.770581977526035
7,23,male,57,75,75,same,valid,clock,4,2,2,0.9822495587727644,1,j,change,3.6311826753435525,0.3274944501116392,0.5003359517795616,0.03534982442351975,0.35329619208641816,1.0010538783267293,8.335838245392097
7,23,male,58,135,85,change,catch,anti,3,1,2,0.3769953050141339,1,f,same,5.9069787207017725,0,0.4998555166807819,0.03531037614766319,0.3533192837603565,1.0010378424422015,11.503411955136926
7,23,male,59,75,125,change,valid,clock,4,0,1,0.3845443579825769,0,j,change,3.020297581115301,0.11931864259018801,0.5005909223423259,0.035327053467426595,0.3532904191683883,1.0010586890916784,6.981988173855825
7,23,male,60,105,105,same,valid,anti,2,0,1,0.9890455666072739,0,f,same,3.063388889120688,0.1303486031002946,0.49952004597798805,0.035329298490978545,0.353315114430643,1.0010362388538852,7.770280502898004
7,23,male,61,135,85,change,valid,anti,1,1,2,0.4353890161246454,1,f,same,5.170985183804987,0.2139591188881312,0.4997666778808707,0.03535463518846882,0.3533096622300036,1.001058368374288,9.418870130823962
7,23,male,62,15,15,same,catch,clock,1,0,1,0.7182033266763028,0,j,change,0.715655866070847,0,0.5002968242215502,0.035311017582898785,0.3533240945257603,1.0010468225377736,6.639791058839819
7,23,male,63,165,165,same,catch,clock,5,0,1,0.7285669980856255,0,j,change,1.4013352118836337,0,0.5007323588433792,0.035253929833743314,0.35333435749180353,1.0010891572724177,7.359063016856453
7,23,male,64,165,115,change,valid,anti,4,1,2,0.6399212702217483,1,j,change,1.5641052120795393,0.20514353259790258,0.49964929520683654,0.03533635428038906,0.3532913813214691,1.0010731213883446,5.944457789863918
7,23,male,65,15,15,same,catch,clock,4,0,2,0.5012384513570396,1,f,same,4.325970724247782,0,0.499746151949239,0.03533603356208914,0.35329779567518926,1.0010343145477236,10.054311616362611
7,23,male,66,105,105,same,catch,clock,2,1,2,0.7643491499538868,1,j,change,1.87743003784135,0,0.5003462147456048,0.035353993753233226,0.35329843711042486,1.0010612548335303,7.864440009274858
7,23,male,67,165,165,same,catch,clock,2,0,1,0.6739792437924734,0,j,change,1.7705136646582105,0,0.5009180543852381,0.035326412032191,0.35329587136902774,1.00105484047981,7.65400943615623
7,23,male,68,135,185,change,valid,clock,2,1,1,0.8344711862414442,0,f,same,2.0703853455106582,0.19733641528705068,0.4992615475207458,0.03532737418481702,0.353283684096823,1.001034955983414,6.615380914795878
7,23,male,69,15,15,same,catch,anti,4,0,1,0.3187622734649267,0,j,change,0.6821338117583764,0,0.49974005831290924,0.03535463518846882,0.35327791117879315,1.001041049619289,6.145205254510529
7,23,male,70,105,55,change,valid,anti,1,1,1,1.0774905251973905,0,j,change,1.252000075689466,0.21036159792308434,0.49956302214877724,0.03532833633789778,0.3533119072540103,1.0010683106229408,6.050550560021293
7,23,male,71,75,75,same,catch,anti,3,2,2,0.5663604988699262,1,j,change,1.5425356646087494,0,0.49950625511746694,0.03532544987865549,0.3532756661543317,1.0010455396668476,7.357191308422443
7,23,male,72,45,45,same,valid,clock,2,0,2,0.26892595173785594,1,f,same,1.261473755510906,0.14108457675003896,0.5007756557315588,0.03539215915816385,0.35329811639303443,1.0010237308638352,5.227881464024904
7,23,male,73,105,105,same,valid,anti,1,1,2,0.24152832241907163,1,j,change,1.7724892856235783,0.22267428909244055,0.4991881031696721,0.03532448772557473,0.35332601883192183,1.0010647827280081,5.720381320503748
7,23,male,74,15,325,change,valid,anti,2,0,2,1.911963635745451,1,j,change,9.77076286230249,0.13007157660743873,0.49963807008771255,0.0353331471033016,0.35322659634812226,1.0011000616736965,15.413533388475116
7,23,male,75,135,135,same,valid,clock,2,1,2,0.9038680798339556,1,f,same,1.1562247935939922,0.21563306771991625,0.49990266218128454,0.03531871480754489,0.3533157558658786,1.0010144300508728,5.791553707224011
7,23,male,76,15,15,same,valid,anti,1,1,2,0.22656588006384482,1,f,same,1.180525252188545,0.20927287901844044,0.5000630210256531,0.03533410925638236,0.35330966222954885,1.0010394460305179,5.132534340044913
7,23,male,77,165,165,same,valid,anti,3,0,2,0.23813609142007408,1,j,change,1.1535419901238129,0.12012568291549516,0.4997605842449957,0.03534212719841889,0.3532233891710348,1.0010689520581764,5.096517102110283
7,23,male,78,45,45,same,catch,clock,2,0,2,0.16667537949751932,1,f,same,1.379278173525563,0,0.5004209419671497,0.03532512916081032,0.35329106060407867,1.0010378424426563,6.686788066864665
7,23,male,79,45,95,change,valid,clock,5,1,2,1.7611721205244066,1,j,change,1.1906111820785554,0.20323411985576478,0.500815745442651,0.0353777268619524,0.3532884948622268,1.0010683106229408,6.794030289219791
7,23,male,80,135,135,same,catch,clock,2,1,1,0.9802020970446392,0,j,change,19.603963365059826,0,0.49982729352450406,0.03533026064405931,0.35334269615168523,1.0010362388538852,25.801259907370422
7,23,male,81,165,165,same,catch,anti,3,1,1,0.9965949402940169,0,j,change,1.1902648069744828,0,0.4995357611446707,0.03537612327363604,0.3532676482127499,1.0011565079871616,7.393424068643981
7,23,male,82,105,105,same,catch,anti,5,1,1,0.7110657545026697,0,j,change,0.4541628674983258,0,0.49985519596339145,0.03536201169526976,0.3533186423251209,1.0010445775137669,6.3567471144228875
7,23,male,83,45,45,same,valid,clock,5,1,2,1.1174923597027373,1,f,same,1.8509124578617957,0.19738348451443924,0.5001364653767268,0.03531807337185455,0.3533321124682516,1.0010606133982947,6.67553472458485
7,23,male,84,105,105,same,valid,anti,5,1,2,0.44887519495659944,1,f,same,2.62046974237046,0.19204345386161917,0.49941677488232017,0.03531454547737667,0.3533256981145314,1.0010532368914937,6.816314716419583
7,23,male,85,45,45,same,valid,anti,1,0,2,0.750438982337073,1,f,same,1.9674314393778332,0.11102591964306006,0.49911979030230214,0.03529594385145174,0.3533067757707613,1.0010824222008523,6.403181262902763
7,23,male,86,165,165,same,catch,clock,1,2,2,0.8036450848248933,1,f,same,12.066383430184487,0,0.5003439697220529,0.03552108766916717,0.35312075951105726,1.0010558026328908,18.087141241183872
7,23,male,87,165,165,same,valid,anti,4,0,1,0.5100982775215925,0,j,change,0.9094848087256651,0.10259853826881248,0.5004170933548266,0.03529337810959987,0.3533327539034872,1.001059971963059,5.120568683777947
7,23,male,88,165,165,same,valid,anti,2,0,2,1.0057100577391793,1,f,same,1.2118975358298485,0.10991526739414123,0.4998596860109501,0.035294660980525805,0.35333435749180353,1.0010590098095236,5.874086876649471
7,23,male,89,105,155,change,catch,clock,1,2,1,0.22861622825075756,0,j,change,2.262518653742518,0,0.5000408915052503,0.0353036410756431,0.35327277969554416,1.001103268850784,7.664654056260588
7,23,male,90,105,105,same,valid,clock,5,2,2,0.2900583609980458,1,f,same,3.6625992180261164,0.3237439181756603,0.5001980431729862,0.035328977773133374,0.35331479371279784,1.0010487468434803,7.665063933467536
7,23,male,91,75,25,change,valid,anti,3,0,1,0.5391729396374103,0,f,same,2.5567142729310035,0.10223000829433772,0.4990787384376745,0.03530235820517191,0.3533074172059969,1.0010689520581764,6.804204416474931
7,23,male,92,105,55,change,valid,anti,3,2,2,0.713073447237548,1,j,change,1.2790583856931335,0.31992648830629067,0.4997689229048774,0.0353036410756431,0.3533199251960468,1.0010670277520148,5.62680455816826
7,23,male,93,135,135,same,valid,clock,1,1,1,0.5486248106562925,0,j,change,0.9901584569888655,0.18680612294930315,0.4998705904122289,0.03535944595387264,0.353266365341824,1.0010853086605493,5.191599313279312
7,23,male,94,15,65,change,valid,clock,3,0,2,0.9516973502622932,1,f,same,4.158006059640229,0.10898132235590216,0.4996666139622903,0.035340202892712114,0.35330837935907766,1.0010256551699968,8.817884950226016
7,23,male,95,165,115,change,valid,anti,1,1,2,0.39419154607412565,1,f,same,2.190294954437377,0.1955182229515744,0.5002544894864513,0.035294019544835464,0.35333403677395836,1.0010102607211593,6.275450311689838
7,23,male,96,135,185,change,valid,clock,3,0,2,0.2526200229826827,1,j,change,1.1504368014566353,0.10191103763310669,0.4996367872167866,0.03532865705574295,0.3532743832838605,1.001065744881089,5.108784874440516
7,23,male,97,105,55,change,valid,anti,4,0,2,0.34861595884785856,1,j,change,1.279967941060022,0.09518086603283418,0.4996569924310279,0.035353352317542885,0.35332024591343725,1.0010583683747427,5.308688210128821
7,23,male,98,135,135,same,valid,anti,2,0,1,0.6485889864907222,0,f,same,0.9396021240490882,0.08895083242669378,0.5000027261003197,0.03536329456619569,0.3532660446239788,1.001072159234809,5.273620937990472
7,23,male,99,15,15,same,catch,clock,2,2,1,0.6588189186236377,0,f,same,0.4435506398799589,0,0.5001771965230546,0.03535976667126306,0.3532840048142134,1.00106061339784,6.286807887217492
7,23,male,100,105,155,change,valid,clock,3,1,1,0.6556649808676411,0,f,same,2.186960773340161,0.190830750330115,0.5001403139890499,0.03535206944661695,0.353303889311519,1.001001280626042,6.5929043777000516
7,23,male,101,15,65,change,valid,clock,2,1,1,0.3963817271737753,0,j,change,1.0822313740795835,0.19867921630629792,0.5050604440593816,0.03530716897012098,0.35331351084232665,1.0010580476568975,5.1607786640634
7,23,male,102,45,95,change,valid,clock,2,1,1,0.3750985805995697,0,j,change,1.4267963477950616,0.20652119688415402,0.49969259209501615,0.035305244664414204,0.3533131901244815,1.001042332490215,5.521127758853709
7,23,male,103,45,45,same,valid,clock,4,0,2,0.7701195026183996,1,f,same,1.3846110672616305,0.09471456068403669,0.4991573142715424,0.03531775265446413,0.3533138315597171,1.0010590098095236,5.838244750572812
7,23,male,104,75,125,change,valid,clock,2,2,2,0.7748260347075302,1,j,change,1.5072214398492179,0.3163518375667264,0.4994305657428413,0.03531775265446413,0.35328111835542586,1.001308207454258,5.909189748451354
7,23,male,105,165,165,same,catch,anti,2,1,2,1.1833276833567652,1,j,change,1.8050315473951741,0,0.49965346453700477,0.035300754616855556,0.353337564668891,1.0010612548335303,8.170519501720264
7,23,male,106,15,15,same,catch,anti,3,2,2,0.6693663612686578,1,f,same,2.134957041469079,0,0.5002012503500737,0.03532577059650066,0.35324359438573083,1.0010987788032253,8.005907299118007
7,23,male,107,105,155,change,catch,clock,4,1,2,0.6575289920774594,1,j,change,2.2722129873345693,0,0.50044627866464,0.035331864232375665,0.35330421002890944,1.0010631791401465,8.147870739225255
7,23,male,108,75,25,change,catch,anti,4,0,1,0.5259436556748369,0,j,change,0.5813566165820703,0,0.4997330025234987,0.035332184950220835,0.3533186423251209,1.0009942248366315,6.3565386479249355
7,23,male,109,45,45,same,catch,anti,1,0,1,0.573275492967241,0,j,change,0.30486717958001464,0,0.5001310131760874,0.03533186423283041,0.35327021395414704,1.0010760078471321,6.051419384241399
7,23,male,110,105,55,change,valid,anti,2,1,1,1.058830207885876,0,j,change,0.3464591323881905,0.21435791180986571,0.4994068326341221,0.03536650174328315,0.35330388931106427,1.0010516333031774,5.120363424457082
7,23,male,111,135,135,same,catch,anti,4,1,1,0.39481854915675285,0,j,change,0.3376695433976238,0,0.4990527603049486,0.035371953943467815,0.3532993992635056,1.0010564440681264,5.909106682569927
7,23,male,112,75,75,same,valid,clock,4,1,2,3.8105745112179648,1,f,same,2.701643068793601,0.22161316722243202,0.4993606492867002,0.03530075461640081,0.3533311503151708,1.0010465018199284,10.195511427652491
7,23,male,113,165,215,change,valid,clock,2,1,1,0.4904892772851781,0,f,same,1.7434338665693758,0.21728420776029578,0.500375079337573,0.03529915102808445,0.35329362634502104,1.0010782528711388,5.909624641637947
7,23,male,114,165,215,change,valid,clock,5,0,1,0.7526714981718214,0,j,change,0.5752668290997462,0.08870596545213048,0.5000745668626223,0.035297547439768096,0.35330966222954885,1.001077290718058,4.956327872259408
7,23,male,115,135,85,change,valid,anti,3,1,2,0.5090617179498622,1,j,change,1.054726945769744,0.22452309716018368,0.49940266330349914,0.03529145380389309,0.3533253773962315,1.0010606133982947,5.190568526626521
7,23,male,116,45,355,change,valid,anti,3,1,2,0.46993672560711275,1,j,change,1.1916387615551685,0.22039913311977985,0.4999039450517557,0.03532673274912668,0.35327566615478645,1.0010878744019465,5.32050152549391
7,23,male,117,45,45,same,catch,clock,3,2,1,0.671695733845354,0,j,change,0.732348259641185,0,0.5002945791975435,0.03532031839586125,0.35332890529070937,1.0010279001935487,6.580794398473245
7,23,male,118,45,45,same,valid,clock,3,2,3,1.4882500263788643,1,f,same,1.7171869723192685,0.3130270982006426,0.5008359506568922,0.035326412031736254,0.3532750247190961,1.001078573588984,6.900063085169677
7,23,male,119,105,105,same,valid,clock,4,0,2,0.43260999734775396,1,j,change,1.097551416658007,0.09413137310624248,0.4992480773776151,0.035328977773133374,0.3533234530905247,1.0010269380409227,5.214206703192303
7,23,male,120,15,325,change,valid,anti,4,2,2,0.3715581780284083,1,j,change,1.0009753024928614,0.3095942918352241,0.49988245696704325,0.035335071409463126,0.3533093415121584,1.0010628584218466,5.002653297442976
7,23,male,121,75,75,same,valid,clock,3,2,3,1.4907939590898422,1,f,same,2.0599293074069465,0.3063590279513574,0.49997610653235824,0.03536425671882171,0.3532731004129346,1.0010670277520148,7.169670882714399
7,23,male,122,45,45,same,valid,clock,2,2,3,1.4925630378638743,1,f,same,1.0875264231285655,0.3033280443712403,0.49969804429565556,0.0353709917908418,0.3532766283078672,1.0010821014834619,6.19226480248426
7,23,male,123,45,95,change,valid,clock,5,2,3,0.8819367628102555,1,j,change,1.050212523576647,0.30018284959466324,0.4998420465376512,0.03536586030759281,0.35331607658372377,1.0010182786631958,5.603744956313676
7,23,male,124,45,45,same,catch,anti,3,0,1,0.11447697198900642,0,f,same,3.0175467854946874,0,0.49960760190742803,0.03531262117121514,0.35329394706332096,1.0010477846903996,8.26474379307001
7,23,male,125,15,65,change,valid,clock,3,1,2,0.510022908864812,1,j,change,0.8312268060976749,0.21652314662829575,0.5002535273333706,0.03534629652858712,0.3532631581647365,1.001103268850784,5.014938388528208
7,23,male,126,45,355,change,valid,anti,2,0,3,1.5223618805216574,1,j,change,1.8363663070672374,0.0884874023158358,0.4994818805730574,0.035343089351954404,0.3532548195048548,1.0010946094735118,6.969292884846254
7,23,male,127,105,55,change,valid,anti,2,2,1,0.9280392892001146,0,j,change,3.5169135284172626,0.29716801218211,0.4998446122799578,0.035328977773133374,0.3533382061041266,1.0009858861767498,8.111797696413305
7,23,male,128,75,75,same,valid,clock,1,0,1,0.6978496199658366,0,f,same,0.4741204878628196,0.08326769497713368,0.5001672542748565,0.0353036410756431,0.35328336337943256,1.0010651034458533,4.826716553233837
7,23,male,129,75,75,same,valid,anti,3,0,2,1.6933509129389677,1,f,same,1.6185951474772082,0.08791452378958137,0.49968810204700276,0.0353414857631833,0.3532939470628662,1.0010792150242196,7.016821001363951
7,23,male,130,75,125,change,valid,clock,4,2,1,0.3598946378247092,0,j,change,1.6080550813385344,0.3077015799698606,0.4993292189528802,0.035313262606450735,0.3533128694066363,1.0010577269390524,5.590388026710571
7,23,male,131,75,125,change,valid,clock,1,1,1,0.6732913043492772,0,j,change,0.9260267857002873,0.21291056345844656,0.5006903448261255,0.035326091313891084,0.35329587136902774,1.0010240515812256,5.274744412055497
7,23,male,132,165,115,change,catch,anti,3,1,1,0.6429469209015224,0,j,change,0.3257859908590035,0,0.49977437510597156,0.03533667499777948,0.35330902079431326,1.001048746843935,6.14481365821166
7,23,male,133,75,75,same,valid,clock,2,1,1,1.6779538981149926,0,j,change,0.5524577077599133,0.21891346083981705,0.500026779926884,0.03536329456619569,0.35326796893014034,1.0010246930173707,5.933534145369322
7,23,male,134,105,155,change,valid,clock,1,2,2,0.33520803513238207,1,j,change,2.2678483403019527,0.31753563081941755,0.49913358116282325,0.03532095983109684,0.3533372439510458,1.0010561233502813,6.250111048500003
7,23,male,135,165,115,change,valid,anti,2,2,2,0.16773182356564575,1,f,same,2.4968872744675537,0.31502975769373615,0.4997330025234987,0.035280870119549945,0.35333082959732565,1.001074724976661,6.357152180863977
7,23,male,136,165,165,same,valid,clock,3,2,3,1.0842560648516155,1,f,same,0.7678395205653032,0.3126408232561846,0.49949214353910065,0.0353142247595315,0.3533349989270391,1.001024693016916,5.5554188941846405
7,23,male,137,165,215,change,valid,clock,4,0,2,0.5394141193396536,1,j,change,1.7799812508437753,0.08298854228950912,0.5003234437895117,0.035316469783538196,0.3532862498382201,1.0010849879427042,6.015588804002164
7,23,male,138,75,75,same,valid,anti,2,2,2,0.26736630161485664,1,f,same,1.8853020535234464,0.310128567338004,0.500522288756656,0.03528985021512199,0.35330292715843825,1.0010740835414254,5.862767466525838
7,23,male,139,45,355,change,valid,anti,2,1,3,0.4543841627037182,1,j,change,0.9170175050921898,0.2250957041661397,0.4999889352397986,0.03533892002178618,0.35327245897815374,1.0010763285649773,5.097351930255172
7,23,male,140,165,165,same,valid,clock,2,0,2,0.3789680395202595,1,j,change,7.700080852929204,0.0781274401147056,0.4997432654899967,0.03534693796382271,0.35333756466843624,1.0009178940267702,11.714943231365396
7,23,male,141,135,135,same,valid,anti,2,1,3,0.4126321717690189,1,f,same,1.0400335855565572,0.22170761159380517,0.500671101764965,0.03536072882479857,0.35328592912037493,1.001076970000213,5.1096822425347455
7,23,male,142,135,185,change,valid,clock,2,2,2,1.9297647503676671,1,j,change,1.110443305611625,0.30771175902074016,0.4998465365856646,0.03534084432794771,0.3533240945257603,1.00103591813604,6.721753030060881
7,23,male,143,135,135,same,valid,clock,1,2,2,0.8467899526845031,1,f,same,1.358614012091948,0.3054370272943686,0.5004876512462033,0.03530267892301708,0.3533237738083699,1.0010574062212072,5.897738844075775
7,23,male,144,45,355,change,valid,anti,5,0,3,0.6078206367078565,1,j,change,1.8668655971587214,0.07360785768074826,0.5003635335010586,0.035321601266787184,0.3533067757707613,1.0010336731120333,6.157415939092061
7,23,male,145,165,165,same,valid,clock,2,2,3,1.3493709282884083,1,f,same,1.3662015511831669,0.3032625080547177,0.49968361199989886,0.03533571284469872,0.35328111835542586,1.001059971963059,6.392444596820951
7,23,male,146,135,135,same,valid,clock,4,2,3,0.46667406455480887,1,f,same,1.1618970066456313,0.30097406701537954,0.49988887132076343,0.0353392407391766,0.3533010028522767,1.0010551611976553,5.3447801752849955
7,23,male,147,165,215,change,valid,clock,2,0,3,0.3956508115602446,1,j,change,0.9292682793848144,0.0691191776792146,0.49962139276794915,0.035329298490978545,0.3532904191683883,1.0010657448815437,5.025777363553061
7,23,male,148,105,105,same,valid,clock,1,0,2,0.5853065756427895,1,j,change,1.3164729905993227,0.06491423530443452,0.5003725135961758,0.03531967696017091,0.3533128694066363,1.0010500297144063,5.5688248935939555
7,23,male,149,15,15,same,valid,clock,2,2,3,0.28643296823884157,1,f,same,1.0673151150722333,0.29873022603177374,0.4997346061118151,0.035365860307138064,0.3532689310832211,1.0010875536841013,5.0497561423048865
7,23,male,150,15,15,same,valid,anti,2,1,3,0.3713962155952686,1,f,same,1.1579730257180927,0.21827856812146382,0.4996993271665815,0.03532801562005261,0.35329298490978545,1.0010843465070138,5.285448685650408
7,23,male,151,15,15,same,valid,anti,5,1,2,0.7177296266495432,1,f,same,1.814197338235772,0.2150906020279381,0.5025415273285034,0.03531454547737667,0.3532682896479855,1.0010567647859716,6.1952375347459565
7,23,male,152,165,215,change,valid,clock,3,2,2,0.33641040574957515,1,j,change,1.2062990878471282,0.29660472551373207,0.4994318486137672,0.03532705346697185,0.35330421002890944,1.0010590098095236,5.2264767205460885
7,23,male,153,75,25,change,valid,anti,1,2,1,0.17198293653609653,0,j,change,1.233934689691523,0.29457945539054226,0.4990947743222023,0.0353142247595315,0.3533128694066363,1.0010474639730091,5.037142957023207
7,23,male,154,105,105,same,catch,anti,5,2,1,0.5365693534363345,0,j,change,0.2844874947363678,0,0.5000457022706541,0.03532288413680362,0.35329106060407867,1.0010602926804495,5.991682186730486
7,23,male,155,105,155,change,valid,clock,2,1,1,0.45490629110236114,0,f,same,1.1379733913358905,0.21205227214246505,0.5008228012316067,0.03530845184104692,0.35329875782827,1.001071838516964,5.275010287019995
7,23,male,156,165,215,change,valid,clock,5,2,2,0.40814180340203166,1,j,change,0.939502060130053,0.3017865341386691,0.49902100925373816,0.03532288413725837,0.3533080586412325,1.0010426532076053,5.037125958985598
7,23,male,157,75,75,same,valid,anti,2,0,1,0.42099616838595466,0,j,change,0.9382243208560794,0.060767084417937794,0.5001140151384789,0.03532865705574295,0.35323301070184243,1.0011112867932752,5.014774181071516
7,23,male,158,105,105,same,catch,anti,1,1,1,0.3895292730262554,0,j,change,0.3306006048096606,0,0.5000325528453686,0.0353581630829467,0.35330068213443155,1.001042332490215,5.909724705557437
7,23,male,159,45,95,change,catch,clock,5,0,1,0.4586416900283439,0,j,change,4.5232570035923345,0,0.5003644956541393,0.03533378853853719,0.35328977773315273,1.0010567647859716,10.173214813180493
7,23,male,160,135,185,change,catch,clock,3,1,1,0.32554256613275356,0,j,change,0.30354678485309705,0,0.49997610653235824,0.03532961920836897,0.35329009845054316,1.0010317488063265,5.83849811754726
7,23,male,161,15,325,change,valid,anti,2,2,1,0.34233598577566227,0,j,change,12.111929190665705,0.29975541361060337,0.5001974017377506,0.03533442997422753,0.35330837935907766,1.0010564440685812,16.132687001664635
7,23,male,162,15,325,change,catch,anti,5,1,1,0.24248630615647926,0,j,change,0.19860859837717726,0,0.49927854555789963,0.03530845184104692,0.35333499892749387,1.0010327109594073,5.6261400311163925
7,23,male,163,105,105,same,valid,clock,1,1,1,0.3342106031191179,0,j,change,0.2812479253575475,0.21718387536865982,0.49990747294668836,0.03535944595387264,0.3533080586412325,1.001050991867487,4.331421321376183
7,23,male,164,45,355,change,valid,anti,2,2,1,0.3032526867323213,0,j,change,0.20153482657360655,0.30672132407301184,0.5000697560972185,0.03536265313050535,0.3532163333825338,1.0010846672253138,4.2017019204895405
7,23,male,165,105,105,same,valid,anti,4,1,2,0.3097879510855819,1,f,same,1.137158126970462,0.22254711054845283,0.49991035940593065,0.03528600160325368,0.35334397902261117,1.0010442567959217,5.097168159019475
7,23,male,166,15,15,same,valid,clock,5,0,2,0.9362740365882019,1,f,same,1.1153175730519251,0.06450202931458646,0.49944692234521426,0.035347258681213134,0.353294909215947,1.0010676691877052,5.7323777656688435
7,23,male,167,45,95,change,catch,clock,3,2,2,0.2067285288326275,1,f,same,2.8229593455048416,0,0.5000649453318147,0.03533988217486694,0.3532801562023451,1.0010638205749274,8.253712066714343
7,23,male,168,75,125,change,valid,clock,1,0,1,0.41049683339360854,0,j,change,0.8964190907845477,0.06052661355870437,0.49986898682391256,0.03534212719841889,0.3533026064405931,1.0010638205749274,4.967840033713401
7,23,male,169,75,75,same,catch,anti,4,0,2,0.41661259900956793,1,j,change,0.17998708790582896,0,0.49907200336610913,0.03534308935149966,0.35327342113077975,1.0010811393303811,5.802240020628233
7,23,male,170,75,75,same,valid,anti,3,2,1,0.6116593067304166,0,j,change,0.277970511291187,0.3136395316998778,0.5009071499839592,0.03530973471197285,0.3533317917504064,1.0010535576088841,4.580001905063
7,23,male,171,45,45,same,valid,clock,3,1,2,0.21033339565929055,1,f,same,2.3353360014907594,0.21949487871677664,0.49932280459916,0.035313262606450735,0.3533122279714007,1.001077290718058,6.239283619312118
7,23,male,172,135,85,change,valid,anti,3,0,1,1.3627134255953024,0,j,change,0.8990470515300331,0.06412218253875085,0.49895558284515573,0.03533058136190448,0.3532926641919403,1.0010551611976553,5.932174943802238
7,23,male,173,165,215,change,catch,clock,5,0,1,0.35985518954885265,0,j,change,0.3853708474675841,0,0.5000752082978579,0.035329939926668885,0.35328977773315273,1.0010304659354006,5.956735183724504
7,23,male,174,15,15,same,valid,anti,2,2,2,0.2752524288753193,1,f,same,1.083379222689473,0.319955639895362,0.4999725786374256,0.03533571284469872,0.35326925180061153,1.0010381631600467,5.049529715616245
7,23,male,175,75,125,change,valid,clock,3,0,1,0.7147498385988911,0,f,same,1.9102975073501511,0.06754293072966375,0.4999966324644447,0.035281190837395116,0.35333916825720735,1.001053557609339,6.286273571547099
7,23,male,176,15,15,same,valid,clock,5,1,2,0.16806953929199153,1,f,same,1.9902934791357438,0.21662239960131316,0.5003442904394433,0.03534212719841889,0.3532933056276306,1.0010474639730091,5.850792830163755
7,23,male,177,135,185,change,catch,clock,3,1,2,0.2988838703699912,1,f,same,1.5688127063217507,0,0.5000726425569155,0.03527381433059418,0.3533218495017536,1.0010657448815437,7.122456428096484
7,23,male,178,15,325,change,valid,anti,1,2,2,0.4374428922064908,1,j,change,1.2048401430788545,0.31817673277166103,0.5005697549750039,0.035273493613203755,0.3533439790221564,1.0010644620106177,5.415851215215753
7,23,male,179,45,95,change,valid,clock,4,0,1,0.42897337946988046,0,f,same,1.3857547465413518,0.0711948034030653,0.49930003364306685,0.03535495590631399,0.35330837935907766,1.0010493882791707,5.544296404722445
7,23,male,180,135,185,change,valid,clock,5,0,1,0.4178329298169956,0,f,same,1.793304505089509,0.07467446145407464,0.4997814308944726,0.03529401954529021,0.3533199251960468,1.0010612548335303,5.885827068380422
7,23,male,181,75,25,change,valid,anti,2,1,1,0.20941357732681354,0,j,change,1.2323974898067718,0.21390970679030197,0.4999077936640788,0.03532769490266219,0.3531217216636833,1.0011837689912682,5.108487569143108
7,23,male,182,15,15,same,catch,clock,3,2,1,0.2244061671444797,0,j,change,1.280206234303023,0,0.500252885898135,0.035294019544835464,0.3533253773962315,1.0010721592352638,6.710771977099284
7,23,male,183,105,155,change,valid,clock,1,1,2,0.7913824439779091,1,f,same,3.3717791525164102,0.21842969319663091,0.5003872666097777,0.035363615283586114,0.353256102375326,1.0010394460305179,7.853136955754053
7,23,male,184,135,185,change,valid,clock,1,2,2,0.20844372703459157,1,j,change,1.0581929418376603,0.316491769068444,0.5000155548082148,0.03533282638545643,0.3533106243826296,1.0010667070346244,4.944495313833613
7,23,male,185,135,185,change,valid,clock,1,0,2,0.1499082587047269,1,j,change,0.9465998633099844,0.07801099215694467,0.4991076030300974,0.03532993992621414,0.3533019650053575,1.001059971963059,4.837285804682324
7,23,male,186,45,355,change,valid,anti,3,0,1,0.32514423476277443,0,f,same,0.9645699961547507,0.07441510891112768,0.4997060622376921,0.035305244664414204,0.35333179174995166,1.001053557609339,4.967597250423296
7,23,male,187,135,135,same,valid,clock,1,0,2,0.6030406602676521,1,f,same,1.5493916466512019,0.07762546907199885,0.49968329128159894,0.03533571284469872,0.3532666860592144,1.001072479953109,5.791740044201106
7,23,male,188,105,55,change,valid,anti,4,2,2,0.6917861313336289,1,f,same,3.53506582890941,0.31487741673641867,0.49991613232441523,0.03532577059650066,0.3533234530905247,1.0010824222008523,7.911820274938691
7,23,male,189,15,325,change,valid,anti,1,1,1,0.32330203235596855,0,j,change,3.067290419809524,0.2157811184662233,0.4996329386049183,0.035321601266787184,0.353321208066518,1.0010189200988862,7.098483742980989
7,23,male,190,165,165,same,valid,clock,4,1,2,0.2953716909551076,1,f,same,1.144568629897094,0.22047569126890532,0.4998484608918261,0.035268041412564344,0.35336963643749186,1.0010506711500966,5.191176928082768
7,23,male,191,105,105,same,valid,anti,2,1,2,0.9319353676887658,1,f,same,2.2202131040758104,0.217843569919361,0.49994916624609687,0.03535527662370441,0.3533128694066363,1.001049708996561,6.875715801792921
7,23,male,192,165,215,change,catch,clock,2,2,1,0.36670379508450424,0,j,change,1.0663378882727557,0,0.4997605842449957,0.03534950370521983,0.35328721199130086,1.0010493882791707,6.65081380510037
7,23,male,193,15,15,same,catch,clock,2,0,1,0.34425355683924863,0,f,same,1.8277948061054303,0,0.5003635335006038,0.035313904042141075,0.3533410925633689,1.00105484047981,7.405512559786075
7,23,male,194,75,75,same,valid,anti,1,0,1,0.22982629609259675,0,f,same,0.8430641752888732,0.07417456459330904,0.5003651370889202,0.03532224270156803,0.35331126581831995,1.0010445775137669,4.778804537641918
7,23,male,195,45,45,same,catch,clock,5,2,1,0.503224976724141,0,j,change,2.002223535739631,0,0.5000748875804675,0.035323846290339134,0.35333403677395836,1.0010452189494572,7.723208446934223
7,23,male,196,15,65,change,valid,clock,5,2,2,0.24300137876525696,1,j,change,0.8361408425316768,0.31318424859450056,0.5000155548082148,0.035321601266332436,0.35329362634502104,1.0010551611976553,4.75539118417646
7,23,male,197,45,95,change,valid,clock,1,1,2,0.15126553596610393,1,j,change,0.8868405362786689,0.21537635583394457,0.4995351197094351,0.03534597581074195,0.3533186423251209,1.0010574062212072,4.755086502371796
7,23,male,198,135,85,change,catch,anti,1,0,1,0.878542286787706,0,j,change,1.346458490952955,0,0.5001149772915596,0.035340202892257366,0.3533289052911641,1.0010368802895755,7.428905066601601
7,23,male,199,105,155,change,catch,clock,2,1,1,0.23364315731168972,0,j,change,1.1751795297445824,0,0.5005437768418233,0.035310696865053615,0.35328400481466815,1.0010593305273687,6.628064657968935
7,23,male,200,165,165,same,valid,clock,5,2,1,0.1944751887986058,0,j,change,1.0230435659705108,0.3115227680387551,0.5001874594890978,0.035901138131066546,0.3527195416813811,1.001078573588984,4.9203013335122705
7,23,male,201,45,45,same,valid,clock,1,2,2,0.12887655479926252,1,f,same,1.3119954509402305,0.3171816964824037,0.511447857557414,0.03529145380389309,0.35333564036272946,1.0010481054082447,5.202713464081626
7,23,male,202,15,65,change,catch,clock,3,0,1,0.32748034241103596,0,j,change,0.7100696053603315,0,0.4994571853112575,0.03532128054894201,0.3533205666312824,1.0010169957922699,6.286171262604512
7,23,male,203,165,165,same,valid,anti,2,2,2,0.6001676712080553,1,f,same,0.9628435728332079,0.31567859617011157,0.4998763633307135,0.035350465858300595,0.3533157558658786,1.001022447993364,5.285679281669218
7,23,male,204,15,325,change,catch,anti,2,1,1,0.6155582716778554,0,j,change,0.843885212573241,0,0.4992073462312874,0.03536521887190247,0.3533266602671574,1.0010157129217987,6.615260966379992
7,23,male,205,75,25,change,valid,anti,2,2,1,0.7826011936467694,0,f,same,0.275089825006944,0.3142266369383187,0.5000027261003197,0.03534405150458042,0.35328881558007197,1.0010558026328908,4.732375520644837
7,23,male,206,75,25,change,catch,anti,1,1,1,0.1113583131791529,0,j,change,0.9556123510947145,0,0.4996284485569049,0.03534341006934483,0.3533029271579835,1.001059971963059,6.262747966890402
7,23,male,207,75,75,same,valid,anti,4,1,1,0.5314830916031497,0,j,change,0.3178620189114554,0.2130077652812593,0.4996377493703221,0.0353482208342939,0.3532904191683883,1.0010651034458533,4.53141509945317
7,23,male,208,165,165,same,catch,anti,4,0,1,0.3683558119018926,0,j,change,0.3262789339473784,0,0.49935680067437715,0.03533859930394101,0.35330773792384207,1.0010394460309726,5.850084044070172
7,23,male,209,105,155,change,valid,clock,5,1,2,0.700365329520082,1,j,change,0.950409027304886,0.2170087417214144,0.500474822538763,0.03533603356254389,0.35324968802160583,1.001074724976661,5.380055593203906
7,23,male,210,105,105,same,valid,clock,5,0,1,0.19295210049222078,0,j,change,2.2653133876865468,0.07726850519351679,0.49964384300619713,0.03530492394656903,0.353301002851822,1.0010679899050956,6.133223883076425
7,23,male,211,165,165,same,catch,clock,5,2,1,0.4255519631610696,0,j,change,0.3767124320120274,0,0.4993754023003021,0.03534437222242559,0.353278552613574,1.0010606133982947,6.00320781832761
7,23,male,212,75,75,same,valid,anti,5,0,2,0.3338462678243559,1,f,same,1.6304046142295192,0.08058619945362852,0.5004292806270314,0.03531743193661896,0.35327823189618357,1.0010939680378215,5.686035663165512
7,23,male,213,15,65,change,catch,clock,5,1,2,0.445391880133684,1,f,same,1.3544219111759048,0,0.500109204373075,0.03536265313050535,0.35328721199130086,1.0010788943063744,6.957535374359395
7,23,male,214,105,55,change,catch,anti,5,2,2,0.7317696849299864,1,f,same,1.5364231061703322,0,0.5002147204927496,0.03531326260690548,0.353277590460948,1.0010676691872504,7.476496043786938
7,23,male,215,75,125,change,valid,clock,2,1,1,0.21169708727438774,0,j,change,1.356535440747848,0.21470400448162338,0.49969611998949404,0.03532512916081032,0.3532391043381722,1.0011205876062377,5.285661642196828
7,23,male,216,165,165,same,valid,clock,5,0,1,0.2123545585368447,0,f,same,0.8062595754277027,0.07718111624478718,0.4990024076278132,0.03529049165035758,0.3533276224202382,1.0010609341161398,4.76607589399282
7,23,male,217,75,75,same,catch,clock,2,2,2,0.3713381656934871,1,f,same,5.803582224157708,0,0.4997307574999468,0.03534052361010254,0.35329619208641816,1.001044898231612,11.456390251849825
7,23,male,218,15,15,same,catch,clock,2,0,1,0.5201101216257484,0,j,change,1.0118646301948502,0,0.500450127276963,0.03534276863365449,0.35325417806961923,1.0010804978951455,6.746086843294506
7,23,male,219,75,75,same,catch,anti,3,1,1,0.7094442058664754,0,j,change,2.101289060608451,0,0.5004745018209178,0.03534116504533813,0.3533093415117037,1.0010625377044562,8.018047425807254
7,23,male,220,135,135,same,valid,anti,4,1,2,1.4539839070275775,1,f,same,2.139291220320956,0.21853626813103472,0.4999652021306247,0.035356559494630346,0.3532904191683883,1.0010384838778918,7.299405036614644
7,23,male,221,165,115,change,valid,anti,2,1,2,0.2626572037843289,1,j,change,0.8464820637032062,0.21626897492979377,0.4994045876101154,0.03532673274912668,0.3532955506516373,1.001072159234809,4.861128278416345
7,23,male,222,45,45,same,valid,clock,1,0,1,0.2870785729473937,0,f,same,0.8377101141850289,0.08037840650220267,0.49932440818747637,0.0353142247595315,0.35330773792384207,1.0010798564594552,4.8371879857872955
7,23,male,223,135,135,same,catch,anti,5,0,1,0.3551444881295538,0,f,same,1.5009065085487237,0,0.5001791208292161,0.03535142801138136,0.35326283744689135,1.0010715177995735,7.110846447747008
7,23,male,224,45,45,same,valid,clock,5,2,2,0.14707086930866353,1,f,same,1.3178745269010506,0.3194896806779431,0.5005453804305944,0.03534052361010254,0.3532971542394989,1.0010461811020832,5.214934411628747
7,23,male,225,75,25,change,valid,anti,3,1,2,0.2149289594281072,1,f,same,1.3965356716648785,0.21410361283523074,0.5000938099242376,0.035318394089244975,0.35329875782827,1.0010554819155004,5.332299125691861
7,23,male,226,165,165,same,valid,anti,5,0,2,0.27862637896578235,1,j,change,1.1139198853625203,0.08347954829164649,0.5005059321547378,0.035270607153961464,0.3533645049546976,1.001039766748363,5.038785673027633
7,23,male,227,165,165,same,valid,clock,3,0,2,0.18430683446194962,1,f,same,0.9209267330061266,0.08018370511619143,0.49962844855735966,0.03531165901813438,0.35330709648815173,1.0010327109594073,4.754397600775064
7,23,male,228,105,105,same,valid,anti,5,0,2,0.16230977031182192,1,j,change,1.0490768622389623,0.07702326624657357,0.500803237452601,0.035361049542188994,0.35330132356966715,1.001044898231612,4.8857279666149225
7,23,male,229,75,125,change,catch,clock,4,2,1,0.13470816454218948,0,j,change,0.9443121840326967,0,0.5001759136525834,0.03533892002178618,0.35326155457642017,1.0010654241636985,6.274743449902871
7,23,male,230,45,45,same,catch,clock,5,0,1,0.4897240448785851,0,j,change,0.8210183620499265,0,0.5005530776547857,0.03533699571562465,0.35332505667884107,1.0010519540205678,6.5460619556015445
7,23,male,231,165,165,same,valid,anti,1,0,1,0.4043817092133395,0,j,change,0.767678520285699,0.07404480258148671,0.5003516669462442,0.03533859930439576,0.3532852876855941,1.0010381631600467,4.885856574407626
7,23,male,232,105,105,same,valid,anti,1,2,1,0.16953553984967584,0,j,change,0.702150123460342,0.3180037212161746,0.49908258704999753,0.03532063911370642,0.3533010028522767,1.001018278662741,4.590167693658259
7,23,male,233,45,45,same,valid,anti,3,0,2,0.1835246040182028,1,f,same,1.1162146204296732,0.07673183844209516,0.49894403700818657,0.035315507630002685,0.3533234530905247,1.0010272587587679,5.0130496820565895
7,23,male,234,45,355,change,valid,anti,5,2,2,0.22221021312634548,1,j,change,0.6388180013709643,0.323397113516841,0.5006258805706238,0.03528952949727682,0.35331511443018826,1.0010776114359032,4.543813083164423
7,23,male,235,135,135,same,valid,clock,3,2,2,0.9060858426555569,1,f,same,4.3309620536447255,0.321951608643567,0.5004251112968632,0.03527702150768164,0.35331960447820165,1.0010837050713235,9.007827756640836
7,23,male,236,75,125,change,catch,clock,4,2,1,0.27730887069901655,0,j,change,0.47185557954162505,0,0.49954313765192637,0.03532256341895845,0.353318321606821,1.0010599719626043,5.956604010189949
7,23,male,237,165,165,same,catch,anti,5,0,1,0.16108943950439425,0,j,change,0.29014623764487624,0,0.500161481356372,0.03532544987865549,0.3533327539034872,1.0010513125853322,5.686100768856704
7,23,male,238,135,85,change,catch,anti,1,2,1,0.3029412698560918,0,j,change,0.27903080397209123,0,0.499703496496295,0.03532577059650066,0.3533314710321065,1.0010416910545246,5.826408664252085
7,23,male,239,135,135,same,catch,clock,1,0,1,0.5239221720794376,0,j,change,1.1781602799483153,0,0.5007442253981935,0.03530813112411124,0.3532833633789778,1.0010962130618282,6.958912856834104
7,23,male,240,105,55,change,valid,anti,1,0,1,0.6927312863626867,0,j,change,2.9561187643257654,0.07385312696341031,0.499493747127417,0.03532288413771312,0.35331543514803343,1.0010747249762062,7.298591055119687
7,23,male,241,165,165,same,valid,anti,5,1,2,0.9106589561861256,1,j,change,4.569921427372719,0.21188585513363026,0.49982087917032914,0.035305565382259374,0.35332730170193827,1.0010490675613255,9.183268992019293
7,23,male,242,135,135,same,valid,clock,5,0,1,0.44416866286701406,0,j,change,0.39722361110761994,0.07645867339759381,0.49980612615672726,0.03529434026313538,0.3533054928993806,1.0010811393303811,4.508159218372384
7,23,male,243,45,355,change,valid,anti,3,2,2,0.17944892362265819,1,j,change,0.8543396470886364,0.32051563650909654,0.49994082758621516,0.03528792590896046,0.35335552485958033,1.0010442567963764,4.696776177859647
7,23,male,244,75,75,same,valid,anti,3,1,2,0.1561452556070435,1,f,same,1.1424393851584682,0.20967755668626653,0.4998657796468251,0.035321601266332436,0.3533138315597171,1.0010602926804495,4.990749539690114
7,23,male,245,135,185,change,catch,clock,2,1,2,0.49322018840848614,1,f,same,10.652173006667908,0,0.4997063829550825,0.03533346782114677,0.3533003614165864,1.0010452189490024,16.34349826668131
7,23,male,246,165,165,same,valid,clock,5,1,1,0.28469564051647467,0,f,same,0.5893226025473268,0.20757027598976002,0.5002490372853572,0.035335071409463126,0.3533045307467546,1.001061254833985,4.579438083364948
7,23,male,247,15,65,change,valid,clock,4,1,2,0.25346864198763797,1,j,change,2.9063385681947693,0.21125089221000698,0.49917046369682794,0.03538863126414071,0.3532791940488096,1.0010804978956003,6.792249985327544
7,23,male,248,75,125,change,catch,clock,2,0,1,0.23363097003948496,0,j,change,0.2833187994765467,0,0.500014592655134,0.0353119797355248,0.3533022857227479,1.0010679899050956,5.69775372537697
7,23,male,249,75,125,change,catch,clock,2,1,1,0.3982675471861512,0,j,change,0.0749850786087336,0,0.4999584670595141,0.03530845184104692,0.3533199251960468,1.0010692727755668,5.685701796051035
7,23,male,250,15,325,change,catch,anti,2,2,1,0.04382126146629162,0,j,change,0.1316514042464405,0,0.4999251124190778,0.03535944595387264,0.35330292715843825,1.00102373086429,5.450462426800186
7,23,male,251,165,165,same,catch,clock,1,2,1,0.25173388000712293,0,j,change,0.30111253759150713,0,0.5100783930247417,0.03530075461640081,0.35332954672685446,1.0010590098099783,5.743091340077626
7,23,male,252,45,45,same,valid,anti,5,1,2,0.1121569002243632,1,f,same,1.3775094154689214,0.20915061708620133,0.4996864984586864,0.0353074896884209,0.35332986744379014,1.0010307866532457,5.155359497268364
7,23,male,253,45,95,change,valid,clock,4,1,2,0.18012499651285907,1,j,change,0.6769747470098082,0.20716493114679654,0.499726908887169,0.03534693796427746,0.3533180008898853,1.0010355974191043,4.531161732478722
7,23,male,254,135,85,change,valid,anti,5,2,2,0.12579413708772336,1,j,change,0.9710077623303732,0.3190936977328253,0.49983499074824067,0.035292415956973855,0.35335520414173516,1.0010468225373188,4.755127233517669
7,23,male,255,135,85,change,catch,anti,2,0,2,0.1832507111112136,1,j,change,1.002068308377602,0,0.5003327446020194,0.03530364107609785,0.35328945701530756,1.0010763285645226,6.416816254742116
7,23,male,256,45,355,change,catch,anti,5,0,1,0.3324845005163297,0,j,change,0.22530898743934813,0,0.5000347978693753,0.03530845184104692,0.3532878534269912,1.0010676691872504,5.745100636399911
7,23,male,257,75,125,change,valid,clock,2,0,2,0.264090491137722,1,j,change,0.7972794801298733,0.07924361395735854,0.49949118138556514,0.03535142801229085,0.35331094510002004,1.0010503504327062,4.755425500969068
7,23,male,258,45,355,change,catch,anti,5,0,2,0.3037497991508644,1,j,change,1.5358057246185126,0,0.4990437802098313,0.0353376371504055,0.3532535366348384,1.0010522747388677,7.063236868935746
7,23,male,259,135,135,same,catch,clock,4,1,1,0.5551475670199579,0,j,change,0.6044053140358301,0,0.4994783526790343,0.03537419896747451,0.35328657055652,1.001078252870684,6.380532821126508
7,23,male,260,15,15,same,valid,anti,3,2,2,1.0528985342234591,1,f,same,1.1733270643717333,0.31773939985908806,0.4995091415767092,0.03535720092986594,0.3532644410352077,1.001088515837182,5.921452389298793
7,23,male,261,105,105,same,catch,clock,3,2,2,0.17162726061906142,1,j,change,0.6224710207516182,0,0.4989170967219252,0.0353475793999678,0.35328175979066145,1.0010404081840534,6.073116577352266
7,23,male,262,135,185,change,valid,clock,5,1,1,0.4928298749809983,0,j,change,0.2693435261689956,0.20527538989023758,0.5001964395851246,0.035260023470073065,0.35337220217843424,1.0010541990450292,4.461472023635906
7,23,male,263,15,15,same,valid,clock,2,1,2,0.30324851740260783,1,j,change,0.7377638985417434,0.20867572529580505,0.4998715525653097,0.0352997924628653,0.3533122279704912,1.0010766492832772,4.7317337645490625
7,23,male,264,45,45,same,valid,anti,2,1,2,0.32228086723353044,1,f,same,0.8316321932570645,0.2067981470755354,0.49962812783905974,0.03532705346697185,0.3532958713694825,1.001063179139237,4.896148725772946
7,23,male,265,105,105,same,valid,anti,3,1,2,0.2550654953629419,1,j,change,0.9526845193104236,0.20500321488751735,0.500386304456697,0.035334429973772785,0.35329394706332096,1.001040728900989,4.944763433821208
7,23,male,266,165,165,same,catch,anti,1,1,1,0.3309354340772188,0,j,change,0.7246709195969743,0,0.4992451909183728,0.03532577059650066,0.35332537739668624,1.0010279001935487,6.2853996158446535
7,23,male,267,45,355,change,catch,anti,1,1,2,0.4437831602044753,1,j,change,0.869315238868694,0,0.5005181194273973,0.03530364107518835,0.3533256981136219,1.0010493882791707,6.5227717577290605
7,23,male,268,135,185,change,catch,clock,4,1,1,0.42183420370747626,0,j,change,0.46642550834621943,0,0.49966244463212206,0.035329939926668885,0.3533067757707613,1.001058368374288,6.121552004213299
7,23,male,269,15,15,same,valid,clock,4,2,2,0.236603060865491,1,f,same,2.4563129588868833,0.31644380976775954,0.4995973389413848,0.035310376147208444,0.3533003614165864,1.0010766492823677,6.392509702511234
7,23,male,270,165,165,same,valid,clock,4,2,2,0.5444230882094416,1,f,same,1.1942968697640026,0.3151934916335094,0.49910888590056857,0.03530684825273056,0.3533346782096487,1.0010474639730091,5.461134628626496
7,23,male,271,105,155,change,catch,clock,5,1,2,0.17652045040358644,1,f,same,4.493313517255956,0,0.49955243846488884,0.03532769490266219,0.3532721382607633,1.001077290718058,9.854258184795981
7,23,male,272,45,95,change,valid,clock,2,2,2,0.4675239664311448,1,j,change,1.049429972415055,0.31397640502077295,0.500563340620829,0.03530652753488539,0.3533404511281333,1.0010221272750641,5.262900949228424
7,23,male,273,75,125,change,valid,clock,5,0,1,0.32618881227608654,0,j,change,1.1944113659783397,0.07640873326268557,0.49964897448899137,0.03531230045336997,0.353309982947394,1.0010262966052323,5.202683637336122
7,23,male,274,165,215,change,catch,clock,2,0,1,0.22538307322611217,0,j,change,0.3918942452664851,0,0.4994895777981583,0.03532737418481702,0.35327053467153746,1.001080818612536,5.838179644882075
7,23,male,275,135,185,change,valid,clock,4,0,1,0.41473383478660253,0,j,change,0.24081729130193708,0.0791072493137087,0.5007204922885649,0.03534341006889008,0.35330421002890944,1.0010205236876573,4.356061420003243
7,23,male,276,165,165,same,valid,anti,1,2,1,0.19793156333525985,0,j,change,0.26690190240060474,0.31268156981388184,0.49964480515973264,0.03535110729444568,0.3533122279714007,1.001026617323987,4.130504517789632
7,23,male,277,15,65,change,valid,clock,1,0,2,1.0601233416091418,1,j,change,1.080865116723544,0.08180588187034502,0.4999815587325429,0.03532769490175269,0.35326828964753076,1.001066065598934,5.8742206159258785
7,23,male,278,105,55,change,valid,anti,1,2,2,0.2737290198510891,1,j,change,0.8306588150699099,0.3170846284476059,0.5001694992988632,0.0353642567197312,0.35327726974264806,1.0010516333031774,4.837759825426474
7,23,male,279,75,75,same,valid,clock,3,1,2,0.22263227760595328,1,f,same,0.9197131372693548,0.20325740777947485,0.5005598127263511,0.0353119797355248,0.35333628179796506,1.001051954020113,4.861831612308379
7,23,male,280,45,95,change,valid,clock,2,0,1,0.3319123401579418,0,j,change,1.1857077293279872,0.07897885620493265,0.5003660992424557,0.03533924073963135,0.3532856084029845,1.00105484047981,5.25079417717734
7,23,male,281,15,15,same,valid,anti,3,1,2,1.635072660195874,1,f,same,0.8559955125183478,0.2014427432029447,0.4996342214753895,0.03534565509289678,0.35329170203931426,1.0010962130618282,6.20365477049927
7,23,male,282,75,75,same,valid,anti,4,2,2,0.8354830505513746,1,f,same,2.1963584430695846,0.3158993615316519,0.4996364664993962,0.035334109255927615,0.35322723778426734,1.0010894779907176,6.769222775959861
7,23,male,283,75,125,change,valid,clock,3,2,1,0.21913228546327446,0,f,same,0.28536497833374597,0.3147493672181958,0.4996929128128613,0.03532737418481702,0.3533215287843632,1.0010458603846928,4.142528223957925
7,23,male,284,165,165,same,valid,anti,4,1,2,0.6511502379562444,1,f,same,1.015389638317174,0.1996193307184853,0.5001480112141508,0.03536457743666688,0.3532631581647365,1.00107985645991,5.332551851231074
7,23,male,285,165,215,change,valid,clock,2,2,2,0.3320826412509632,1,j,change,1.1403614552500585,0.31892573708741195,0.5003122186699329,0.03531903552539006,0.3533103036643297,1.0010327109584978,5.167748500884954
7,23,male,286,165,115,change,valid,anti,1,2,2,0.933735556078318,1,j,change,1.9629170171838268,0.31774611923228746,0.5000360807398465,0.03532031839586125,0.35331960447820165,1.0010080156971526,6.60449800144761
7,23,male,287,15,15,same,valid,clock,1,0,2,0.5156899904332022,1,f,same,0.9206101846475576,0.08160371999968649,0.5001415968590663,0.0353309020792949,0.35327277969554416,1.0010500297139515,5.155734095529624
7,23,male,288,15,15,same,valid,clock,3,0,2,0.46524045648402534,1,j,change,1.5309933556909527,0.07885776068837988,0.5002775811599349,0.03534052361010254,0.3532990785461152,1.0010593305278235,5.697637625573407
7,23,male,289,135,135,same,valid,anti,5,1,2,0.6955298689190386,1,f,same,1.2916003716472915,0.19787326328479898,0.5000367221755369,0.035310376147208444,0.35332505667884107,1.0010477846908543,5.697394200847157
7,23,male,290,105,155,change,valid,clock,5,2,2,1.1238387213370515,1,j,change,1.9799054331815569,0.3166141903774926,0.5003545534054865,0.03528087012000469,0.35336546710732364,1.0010346352655688,6.79367365114922
7,23,male,291,75,75,same,catch,anti,2,2,1,0.5464070478356007,0,f,same,0.7325968158502292,0,0.49930516512631584,0.035329298490978545,0.35331960447820165,1.0010416910545246,6.4864225769852055
7,23,male,292,165,215,change,valid,clock,3,1,1,0.6333404639563014,0,f,same,0.23076792322808615,0.19621588792988945,0.5001226745162057,0.03529434026313538,0.35337765437998314,1.0010513125853322,4.520148607748524
7,23,male,293,165,115,change,valid,anti,5,0,2,0.1803116542077987,1,f,same,0.9148895432244899,0.07627513973276052,0.49989656854450004,0.035375802556700364,0.3533112658178652,1.0010381631600467,4.7676082831121676
7,23,male,294,105,55,change,catch,anti,2,2,1,0.5343175945399707,0,f,same,0.20718362723346218,0,0.4991464098702636,0.035292095239128685,0.35330164428705757,1.0010711970817283,5.885214497594461
7,23,male,295,75,75,same,valid,clock,5,0,1,0.5656844259810896,0,f,same,0.15639284966346167,0.07380614167004526,0.5003321031672385,0.035334109255927615,0.3532522537634577,1.0010307866532457,4.413926588363211
7,23,male,296,15,325,change,valid,anti,3,2,2,0.491300693039193,1,j,change,2.8025745291788553,0.31551974284933065,0.5004895755528196,0.035297868157613266,0.3533003614165864,1.0010795357420648,6.981815307020952
7,23,male,297,45,45,same,valid,clock,4,1,2,1.0067523902289395,1,f,same,1.1200876072443862,0.19918355044117025,0.49961145051929634,0.03538638623922452,0.35322178558271844,1.001087553684556,5.838270407987693
7,23,male,298,105,55,change,valid,anti,2,0,2,0.3313655164984084,1,j,change,0.9890667339741412,0.07605159590575676,0.5004914998589811,0.03528985021512199,0.3533382061041266,1.0008903123052733,5.050724068290947
7,23,male,299,105,105,same,valid,anti,4,0,1,0.6002581135962828,0,f,same,0.9013376172670178,0.07365126011298306,0.49978303448369843,0.03534918298737466,0.3533176801720401,1.0010586890921331,5.15580401198622
7,23,male,300,15,325,change,valid,anti,3,0,1,0.3428619627857188,0,j,change,1.8935605340211623,0.0758398709581581,0.49956879506680707,0.03548837446487596,0.3532644410361172,1.0010618962687658,5.9324485159904725
7,23,male,301,135,85,change,valid,anti,2,1,1,0.6637778555341356,0,j,change,0.3882322906911213,0.19752372200034524,0.5069109851256144,0.035366822460673575,0.3533090207938585,1.0010439360785313,4.703632801337335
7,23,male,302,15,15,same,valid,clock,1,2,2,0.9792402646944538,1,f,same,0.3845196627198675,0.31445354435786765,0.49943633866132586,0.03531454547737667,0.35330517218153545,1.0010336731120333,5.025146832575956
7,23,male,303,75,25,change,catch,anti,2,1,1,0.35215604070162954,0,j,change,0.24452639137780352,0,0.5006890619551996,0.03535110729353619,0.3533090207938585,1.0010567647859716,5.733710347667511
7,23,male,304,105,105,same,valid,clock,4,1,2,1.5277457683705506,1,j,change,0.7651182309728028,0.2004585269364164,0.5002480751327312,0.03530716897057573,0.3533147937132526,1.001032069523717,5.933917723726154
7,23,male,305,15,65,change,valid,clock,2,2,2,1.8931715034632361,1,j,change,1.0966149210062213,0.3133200070873363,0.4996941956833325,0.035329619208823715,0.3533125486892459,1.0010541990441197,6.639864503190438
7,23,male,306,15,65,change,catch,clock,5,2,1,0.47182126274856273,0,f,same,0.5370462606406363,0,0.4995216495663044,0.0353777268619524,0.35330388931106427,1.001020844404593,6.132607142960296
7,23,male,307,45,45,same,valid,clock,4,2,3,0.42961577700043563,1,f,same,1.0043508561720955,0.31219778226877426,0.5007192094180937,0.03531550763091218,0.3533372439505911,1.001068631340786,5.109953248982492
7,23,male,308,135,185,change,catch,clock,3,0,2,0.6841344487047536,1,f,same,1.5638242633840491,0,0.49876924586715177,0.03530620681704022,0.3533212080674275,1.0010711970817283,7.450863644629862
7,23,male,309,75,75,same,catch,clock,1,2,1,0.37780768292122957,0,j,change,0.36023844718693,0,0.500097979253951,0.03527381433013943,0.3533757300738216,1.0010102607211593,5.945404548481747
7,23,male,310,45,355,change,valid,anti,4,1,2,0.10179130450978846,1,f,same,2.9922832116799327,0.19878418913445248,0.4994417908619653,0.03538221690996579,0.3532981163934892,1.0010532368914937,6.780518132255565
7,23,male,311,45,45,same,valid,clock,5,0,2,1.6815052050878876,1,j,change,2.8754996380694138,0.07817481846419803,0.4996127333897675,0.03535110729353619,0.3532923434750046,1.0010388045948275,8.194213803881212
7,23,male,312,105,55,change,catch,anti,5,2,1,0.3276862431675909,0,j,change,1.0336958832995151,0,0.4998914370626153,0.03532352557249396,0.35331543514803343,1.0010368802895755,6.545767216045533
7,23,male,313,45,45,same,valid,anti,5,2,3,0.47193479681118333,1,f,same,0.9470873541977198,0.3110776298506953,0.500131654611323,0.03535784236555628,0.3533000406987412,1.001031428088936,5.0970052344328
7,23,male,314,15,325,change,valid,anti,4,0,2,0.25267486570737674,1,j,change,0.9020069550842891,0.07581344835092398,0.4996820084115825,0.03533218494976609,0.3532843255325133,1.0010670277524696,4.790150567333512
7,23,male,315,15,15,same,valid,clock,4,1,3,0.3960100153717576,1,f,same,1.0690290304037262,0.19720236776581718,0.5004100375654161,0.035254891987278825,0.35337316433287924,1.0010205236867478,5.179675991747899
7,23,male,316,135,135,same,valid,anti,1,0,2,0.22580577914050082,1,j,change,4.65011464053805,0.07353924200338874,0.5000505130356032,0.035317111219228536,0.3532993992630509,1.0010618962696753,8.55961773017134
7,23,male,317,105,155,change,valid,clock,3,2,2,0.9925423515724106,1,j,change,3.082958761799091,0.30995058750927473,0.49987764620163944,0.035316790501383366,0.3533000406987412,1.0010327109594073,7.723620569165178
7,23,male,318,105,105,same,valid,clock,2,0,4,3.3981087919310085,1,f,same,0.7944728796310301,0.07121806340772369,0.4996284485569049,0.035316790501383366,0.3533013235692124,1.00105484047981,7.934728177326178
7,23,male,319,75,25,change,valid,anti,4,0,1,0.29964461272902554,0,j,change,1.2535773652844,0.06889652182602318,0.5000761704513934,0.03536040810740815,0.3533045307467546,1.001063179139237,5.2145399288710905
7,23,male,320,45,45,same,valid,clock,1,1,2,0.2798441440318129,1,j,change,1.0811415753714755,0.1956890971372433,0.5000713596855348,0.03528022868431435,0.3533670706965495,1.001043294642841,5.085339449206003
7,23,male,321,105,105,same,valid,clock,2,1,1,0.38255558759101405,0,j,change,1.0165198474542194,0.19422034683446626,0.5001027900189001,0.0353074896884209,0.35325963027025864,1.001081780765162,5.1207700944860335
7,23,male,322,135,185,change,valid,clock,5,2,2,0.2365761205792296,1,j,change,0.7478055693909482,0.30884419100368443,0.499918056630122,0.03532288413680362,0.3533176801720401,1.0010654241632437,4.637660210512877
7,23,male,323,165,165,same,valid,clock,2,1,1,0.5399917318982261,0,j,change,0.5974803776898625,0.19670502853281346,0.49986096888096654,0.03532737418481702,0.35328977773315273,1.00102373086429,4.80247414454243
7,23,male,324,135,135,same,valid,clock,3,1,2,0.25633329238826263,1,f,same,2.46198837911561,0.19939376470403458,0.5001223537983606,0.03531743193616421,0.3532756661552412,1.0010926851664408,6.357853590449849
7,23,male,325,45,95,change,catch,clock,4,1,1,0.6769821235166091,0,j,change,0.371308980383219,0,0.49939528679715295,0.03530781040535658,0.3533070964886065,1.001039766748363,6.238615564365318
7,23,male,326,105,105,same,catch,anti,3,2,1,0.17682673579656694,0,j,change,1.134439082400604,0,0.5006165797576614,0.03532512916081032,0.3533202459129825,1.0010465018203831,6.546089858040432
7,23,male,327,75,125,change,valid,clock,3,1,1,0.6188716061260493,0,j,change,0.5744243037297565,0.19787964529991386,0.49983050070113677,0.03534373078673525,0.3532756661552412,1.0010644620097082,4.90832990432682
7,23,male,328,105,55,change,valid,anti,5,2,2,0.2837989138570265,1,j,change,0.6276855696605708,0.30778706877429873,0.49965603027794714,0.035329619208823715,0.3532958713694825,1.0010612548330755,4.6371942077103085
7,23,male,329,105,155,change,catch,clock,1,2,2,0.2953809917680701,1,j,change,0.38114218473492656,0,0.5003205573302694,0.0353142247595315,0.3533045307467546,1.0010465018194736,5.885793072305205
7,23,male,330,45,95,change,valid,clock,3,1,1,0.30062119809281285,0,j,change,0.26976815638954577,0.20055026902255513,0.5009276759165004,0.03532480844296515,0.3533327539034872,1.0010227687107545,4.284947403902152
7,23,male,331,105,105,same,valid,clock,1,2,3,0.5115700509968519,1,f,same,1.2358766352990642,0.3067701746987259,0.4999081143823787,0.03532192198417761,0.35328400481466815,1.0010756871297417,5.4741775756110655
7,23,male,332,75,25,change,valid,anti,1,0,2,0.1785634220832435,1,f,same,2.491882154209634,0.07106496610024363,0.49961241267192236,0.03535463518892357,0.3533077379242968,1.0010538783262746,6.38068419987485
7,23,male,333,105,105,same,valid,clock,3,0,2,0.4193714125722181,1,f,same,1.254221687122481,0.06879860679196992,0.4993189559863822,0.0353331471033016,0.35329875782827,1.0010625377044562,5.3672775590312085
7,23,male,334,75,25,change,valid,anti,4,2,2,0.5450998025335139,1,f,same,6.157939671078566,0.30578534329179496,0.5001108079613914,0.0353119797355248,0.35330292715843825,1.001046181102538,10.420908612456515
7,23,male,335,165,115,change,valid,anti,5,1,2,0.1877888664139391,1,j,change,1.07551137633709,0.2031088948667659,0.4994267171305182,0.035310696865053615,0.35329426778025663,1.001076970000213,4.919568493592124
7,23,male,336,15,15,same,catch,anti,5,1,1,1.1146116734180396,0,j,change,0.25988363720807683,0,0.5003109358003712,0.03529850959239411,0.3533003614165864,1.001069593493412,6.651726888361736
7,23,male,337,135,185,change,valid,clock,3,1,1,0.12721555788721162,0,j,change,0.2814746727635793,0.20163351496725535,0.5005434561244329,0.035347258681213134,0.3532945884981018,1.0010413703375889,4.108027339259024
7,23,male,338,45,95,change,valid,clock,1,2,2,0.25497986373920867,1,j,change,0.6746424879747792,0.3048251299477082,0.4997301160647112,0.035302358204717166,0.35333948897550727,1.001096854496609,4.626113411548431
7,23,male,339,75,75,same,catch,clock,2,0,2,0.1020982313375498,1,j,change,2.7555868219660624,0,0.49943890440317773,0.03534052361010254,0.3533237738083699,1.0010445775142216,8.087622638435278
7,23,male,340,45,45,same,valid,anti,3,1,2,0.4659091528665158,1,f,same,0.9513179412360842,0.2040741893795852,0.5001448040366085,0.03530813112320175,0.3532868912743652,1.001096854496609,5.109467361683528
7,23,male,341,135,85,change,valid,anti,4,1,1,0.3836184460142249,0,j,change,0.5635625577497194,0.2026435584210353,0.49909252929774084,0.03520229428613675,0.3532734211312345,1.0010894779907176,4.601137200782432
7,23,male,342,135,85,change,catch,anti,2,1,1,0.3907515281389351,0,j,change,0.2735051589042996,0,0.4999591084952044,0.03530909327673726,0.3532878534260817,1.0010711970826378,5.885359782707383
7,23,male,343,165,115,change,catch,anti,1,2,1,0.4014272578606324,0,j,change,0.40254816618471523,0,0.501002723854981,0.03535591805939475,0.3533032478762834,1.0010788943063744,6.0520505566537395
7,23,male,344,45,45,same,valid,anti,4,1,1,0.2747004737320822,0,j,change,0.42816420873896277,0.2049885722321708,0.5003949638339691,0.03532705346697185,0.35329073988577875,1.0010400874662082,4.391051719896495
7,23,male,345,75,25,change,valid,anti,3,2,2,0.28097307029747753,1,j,change,0.6261108458065792,0.3038044556625557,0.49921504345547874,0.035328977773133374,0.3533022857236574,1.0010567647859716,4.625075248387475
7,23,male,346,75,75,same,valid,anti,1,2,3,0.5084122646294418,1,f,same,1.1699909589688104,0.30279488553033096,0.5002352464252908,0.035320639112796925,0.3532868912743652,1.0010702349291023,5.403838734166129
7,23,male,347,105,105,same,valid,anti,4,2,3,0.48114677099783876,1,f,same,1.0239175216729564,0.3017888490144665,0.4994584681817287,0.03535142801138136,0.3533022857227479,1.0010224479929093,5.20248703739253
7,23,male,348,105,155,change,valid,clock,5,0,3,0.5727633068172509,1,j,change,0.6883239838780355,0.06666504446647625,0.5001996467608478,0.03532063911370642,0.3532657239065884,1.0010667070346244,4.967782945965155
7,23,male,349,15,65,change,valid,clock,3,2,3,0.7507016501249382,1,j,change,0.8677559094639946,0.30077908887856647,0.49994114830406033,0.03536008738956298,0.3532945884981018,1.0010169957931794,5.249743185309853
7,23,male,350,165,165,same,catch,clock,3,2,1,0.39968351578500005,0,f,same,0.34828722321708483,0,0.5004568623489831,0.03527028643657104,0.3533471861992439,1.0010596512456686,5.933788795214241
7,23,male,351,45,45,same,valid,anti,2,0,1,0.48563489434036455,0,j,change,7.310938044719478,0.06462426843697161,0.5018779624288072,0.03529434026313538,0.3533311503142613,1.0010615755518302,11.505368974476369
7,23,male,352,105,55,change,catch,anti,1,1,1,0.3223658574206638,0,j,change,0.21716115454546525,0,0.49976956433965825,0.035302999640407506,0.353294909215947,1.0010785735894387,5.733070195159598
7,23,male,353,45,45,same,catch,anti,4,2,1,0.05967369540849177,0,j,change,0.21339496672044334,0,0.4993365954596811,0.03534373078673525,0.3533269809850026,1.0010785735885293,5.496381823389129
7,23,male,354,165,115,change,valid,anti,5,2,2,0.16564074423240527,1,f,same,1.9504443062505743,0.29975872839825474,0.5009260723272746,0.0352629099297701,0.35332986744379014,1.0010410496197437,5.828104940110279
7,23,male,355,135,85,change,valid,anti,3,2,2,0.9865282534638027,1,j,change,0.9744567603602263,0.29876261325508047,0.49942639641267306,0.035334429973772785,0.3532878534269912,1.0010147507682632,5.662108840679139
7,23,male,356,45,45,same,valid,anti,1,1,3,1.2212724346036339,1,f,same,1.055959143131986,0.20727336058333906,0.49913486403329443,0.035329939926668885,0.3532878534269912,1.0010865915310205,5.956139931693542
7,23,male,357,45,45,same,valid,anti,2,2,3,0.31298165783482546,1,f,same,1.7312651960046423,0.2978081177095048,0.4996031118589599,0.035323846290339134,0.3533199251960468,1.001057406221662,5.732497714084275
7,23,male,358,15,65,change,valid,clock,5,1,2,0.5093272721960602,1,j,change,0.9401050093856611,0.20592531593814606,0.50007168040338,0.03532512916081032,0.35327053467153746,1.0010942887556666,5.132588220616526
7,23,male,359,15,15,same,valid,anti,4,1,3,0.28566709439655824,1,f,same,0.9348369006229404,0.20461732209862973,0.4999571841881334,0.035310696865053615,0.3533221702200535,1.001042332490215,4.931766990901451
7,23,male,360,75,75,same,valid,clock,2,2,3,0.3381535063908814,1,f,same,0.9870715492297677,0.2968879491656455,0.4998847019905952,0.03528087012000469,0.3533645049546976,1.0010355974181948,5.014181494781951
7,23,male,361,15,65,change,valid,clock,5,0,2,0.14755066297220765,1,j,change,1.326612159627075,0.06647116476548925,0.5004142068955844,0.03529049165081233,0.353343658304766,1.0010657448819984,5.1087601791787165
7,23,male,362,75,75,same,catch,clock,4,0,1,0.12881561843823874,0,j,change,0.3256233869897187,0,0.5005043285664215,0.03532641203128151,0.35332313237267954,1.0010291830649294,5.615734666406752
7,23,male,363,135,135,same,catch,clock,5,2,1,0.4119926606963418,0,j,change,0.22181284390990186,0,0.5004033024943055,0.035335392127308296,0.3532654031887432,1.0010375217252658,5.875066669190346
7,23,male,364,135,135,same,valid,anti,2,2,2,0.7176840847378116,1,f,same,0.9221743248172061,0.2959954723069663,0.49997450294358714,0.03535944595387264,0.3533103036652392,1.0010304659354006,5.390965126121046
7,23,male,365,75,75,same,valid,clock,3,0,3,0.32749188824709563,1,f,same,2.212360972890565,0.06447895089444325,0.49989656854540954,0.03528568088586326,0.35335071409372176,1.0010346352655688,6.239088622956842
7,23,male,366,75,75,same,valid,clock,5,1,3,0.3218713107444273,1,f,same,0.840556804395419,0.20326788975952154,0.4996059983195664,0.03534084432794771,0.3533327539034872,1.0010288623470842,4.861074718562122
7,23,male,367,75,75,same,valid,anti,5,1,3,0.1854880377113659,1,f,same,0.8497181051870939,0.20192285109566416,0.5000774533218646,0.03530139605209115,0.35329298490978545,1.0010638205749274,4.708631186524144
7,23,male,368,165,165,same,catch,clock,1,2,2,0.6551390038566751,1,j,change,0.894837631858536,0,0.4994773905254988,0.03534886226952949,0.35331832160773047,1.0010054499562102,6.768374798388322
7,23,male,369,105,105,same,valid,clock,3,2,3,0.26025438685701374,1,f,same,1.2434882282177568,0.2951245953178545,0.5008600044839113,0.03531550763091218,0.3533135108418719,1.0010554819155004,5.250951649563831
7,23,male,370,15,325,change,valid,anti,5,2,2,0.10407064512673969,1,j,change,1.5556379443660262,0.2942696715688579,0.5001473697784604,0.035316790501383366,0.353249046586825,1.0010567647859716,5.332789823755775
7,23,male,371,45,95,change,valid,clock,5,0,2,0.38956487268933415,1,j,change,0.9608240135448796,0.06246162254724463,0.49947322119533055,0.03531294188906031,0.35330870007692283,1.0010673484703148,5.049204828596885
7,23,male,372,45,45,same,catch,clock,4,0,1,0.15941817962630012,0,j,change,1.4469435123137373,0,0.5002557723573773,0.035301716769026825,0.3533366025158102,1.001014430050418,6.828743489030785
7,23,male,373,15,15,same,valid,anti,2,0,1,0.16627672740924027,0,j,change,0.4130279373976009,0.06043084072815197,0.4996521816665336,0.03530781040626607,0.35329394706241146,1.001093968038731,4.284500964879044
7,23,male,374,15,15,same,valid,clock,5,2,1,0.10649879875199986,0,j,change,0.2696094011334935,0.29335467687735595,0.49966565180966427,0.035328657055288204,0.3532881741448364,1.0010840257891687,4.0957432103259634
7,23,male,375,75,75,same,valid,anti,1,1,2,0.8743049646773215,1,f,same,1.674234535073083,0.2005642764006113,0.4993545556499157,0.03535976667171781,0.3532798354844999,1.0010865915310205,6.262100437875233
7,23,male,376,135,135,same,valid,clock,2,2,2,0.1866185675662564,1,f,same,0.8532540177111514,0.29647567557739685,0.5004292806270314,0.0352696450008807,0.35333724395150057,1.0010853086596398,4.6968111360883995
7,23,male,377,45,45,same,valid,anti,1,2,3,0.24819892963660095,1,f,same,1.6884275756910938,0.2956377064652924,0.5003394796740395,0.03533603356208914,0.35327951476756425,1.0010567647859716,5.556819789050678
7,23,male,378,105,105,same,valid,anti,1,0,1,0.06307394434952585,0,j,change,1.0794186799457748,0.06230491412659778,0.49994788337517093,0.035343089351954404,0.3532791940497191,1.0010740835414254,4.849701107150395
7,23,male,379,45,355,change,valid,anti,1,1,1,0.6677310217710328,0,j,change,0.10162998351188435,0.19920017597277156,0.5000546823657714,0.035328336337443034,0.35328175979066145,1.0011170597117598,4.437748856881626
7,23,male,380,45,355,change,valid,anti,5,1,2,0.159693355402851,1,j,change,1.092682280700501,0.2015285908054044,0.49978495878895046,0.03530845184104692,0.353332433185642,1.0010365595717303,5.002598775436127
7,23,male,381,45,355,change,valid,anti,4,0,1,0.22810211779506062,0,j,change,0.43923955270111037,0.06409053711713178,0.5001233159509866,0.03534052361010254,0.35328753270914603,1.0010224479938188,4.3437747253301495
7,23,male,382,135,85,change,valid,anti,5,1,2,0.19648159866210335,1,j,change,1.2294263611338465,0.2002000410868389,0.4992580196258132,0.035353352317542885,0.35327726974355755,1.0010728006700447,5.131254676464778
7,23,male,383,165,215,change,valid,clock,3,0,1,0.5135780644495753,0,f,same,1.4417735431634355,0.06582495232127539,0.5005094600501252,0.03531679050047387,0.35333756466934574,1.0010638205749274,5.697831018339457
7,23,male,384,165,165,same,valid,anti,4,2,2,0.1403313077871644,1,f,same,0.9981571561584133,0.294817400356439,0.500491179141136,0.03527734222552681,0.35333948897550727,1.0010525954558034,4.838743145861372
7,23,male,385,105,155,change,catch,clock,2,0,1,0.257749260986202,0,j,change,1.7023425540737662,0,0.4994652032528393,0.03537868901457841,0.3532942677811661,1.0010243722990708,7.204551497157809
7,23,male,386,15,15,same,valid,clock,1,1,4,2.786732358201334,1,f,same,2.277093027693809,0.198885380550295,0.5004305634975026,0.035335071409463126,0.3532923434740951,1.001057406221662,8.72507149599096
7,23,male,387,45,355,change,valid,anti,1,0,2,0.19846652044088842,1,j,change,2.8853857608401086,0.06768436329701602,0.49928944995917846,0.03534501365811593,0.3533282638554738,1.0010355974181948,6.792255437527274
7,23,male,388,135,135,same,valid,anti,4,0,2,0.09088786522988812,1,j,change,0.8695487213462911,0.06580421007599957,0.5000245349037868,0.03534116504488338,0.3532522537634577,1.0010458603846928,4.672640888875321
7,23,male,389,165,215,change,catch,clock,3,1,1,0.203376708263022,0,f,same,0.321694595297231,0,0.5005710378454751,0.03531775265491888,0.35329875782827,1.001053557609339,5.709746321929742
7,23,male,390,15,15,same,catch,anti,2,0,1,0.2139222266014258,0,f,same,0.07475544474436902,0,0.5005659063626808,0.03527509720152011,0.3533167180185046,1.0010853086605493,5.4859982674825005
7,23,male,391,105,155,change,valid,clock,3,0,1,0.13887781521953002,0,f,same,0.24045808748996933,0.06398380879358714,0.5000601345664109,0.0353142247595315,0.3532878534269912,1.0010788943063744,4.060437324225859
7,23,male,392,45,45,same,valid,anti,5,0,1,0.7427879411434333,0,f,same,0.20668074189688923,0.0656478334744992,0.5003693064190884,0.03533186423192092,0.35326957251891145,1.001054519761965,4.6617105093091595
7,23,male,393,165,165,same,valid,clock,4,0,1,0.1446613173093283,0,f,same,0.2119799602760395,0.06742973617630366,0.49939432464361744,0.035320639112796925,0.35331158653661987,1.00103046593631,4.060099287781668
7,23,male,394,105,105,same,valid,anti,3,2,2,0.25193881861014233,1,f,same,0.8567155237305997,0.29394264768265854,0.4995392890396033,0.03528824662680563,0.35333435749180353,1.001076328565432,4.7782253214954835
7,23,male,395,75,125,change,valid,clock,5,1,1,0.18731580782241508,0,j,change,25.34956496249015,0.1976404214531703,0.5003542326876413,0.03528311514401139,0.35336514638947847,1.0009987148841901,29.217338511427442
7,23,male,396,165,215,change,valid,clock,4,1,2,0.18970258886474767,1,j,change,0.7147928147696803,0.19985350847212144,0.4992888085243976,0.03532448772511998,0.3533054928993806,1.0010561233511908,4.590159034280077
7,23,male,397,165,115,change,valid,anti,4,0,2,0.35189850439746806,1,j,change,0.6314812635127964,0.06922741962734744,0.4993276153645638,0.03536521887235722,0.3533122279714007,1.0010522747379582,4.672266932049752
7,23,male,398,75,75,same,valid,anti,4,0,2,0.0899103177125653,1,j,change,0.6963473783089285,0.0673769286542967,0.49969836501350073,0.035334750691617955,0.3532955506507278,1.0010487468443898,4.496181374833213
7,23,male,399,135,135,same,valid,clock,5,1,2,0.6909394366330162,1,f,same,1.9423602961769575,0.19859095653680536,0.4999591084942949,0.0353309020792949,0.3533176801720401,1.0010214858402833,6.2627341760298805
7,23,male,400,45,45,same,catch,anti,3,0,2,0.09025605138140236,1,j,change,1.2789733955050906,0,0.4999924631347312,0.03534116504488338,0.35326732749490475,1.0010872329667109,6.581470471362081
7,23,male,401,135,135,same,valid,anti,1,1,2,0.9365889813589092,1,f,same,2.3210489905895884,0.19739225106500233,0.501921580034832,0.035328336337443034,0.35327406256601535,1.0010471432560735,6.9130463786641485
7,23,male,402,105,105,same,catch,anti,2,2,2,0.09926372840072872,1,j,change,1.1528206960410898,0,0.49914031623484334,0.03530332035825268,0.3533244152431507,1.0010602926804495,6.4861996781919515
7,23,male,403,105,155,change,valid,clock,4,1,2,0.15431716477905866,1,j,change,1.1680708221629175,0.19624177503562185,0.49939849397378566,0.035339882174412196,0.35330292715843825,1.0010644620106177,5.061382158539345
7,23,male,404,105,105,same,valid,clock,2,2,2,0.23082501097633212,1,f,same,0.8964858000645108,0.29307566317035116,0.4997233809926911,0.03534180648148322,0.3533244152431507,1.0010497089970158,4.813623574289522
7,23,male,405,15,15,same,valid,clock,3,1,2,0.2135078593473736,1,j,change,1.0921441164182397,0.19512546740632494,0.5003237645078116,0.03531390404168633,0.35330613433507096,1.0010554819155004,4.991459929371558
7,23,male,406,165,115,change,valid,anti,1,0,2,0.11766073649050668,1,j,change,1.2118811792279303,0.06561576644461786,0.4999260745726133,0.035311338300743955,0.35330292715843825,1.0010631791401465,5.061726288619866
7,23,male,407,105,55,change,valid,anti,3,0,2,46.48260026356547,1,f,same,5.011790223690696,0.06390482625888455,0.4995463448285591,0.03530428251178819,0.35331158653661987,1.001042332490215,55.16169687880756
7,23,male,408,135,135,same,valid,clock,5,2,1,0.030917826676159166,0,j,change,0.9642194517200551,0.29221084634759764,0.4993481412966503,0.03535559734154958,0.3532923434750046,1.0010484261256352,4.6722441610936585
7,23,male,409,15,65,change,valid,clock,4,2,2,0.28125145325157064,1,j,change,1.3955193173069347,0.29518749852304293,0.50007168040338,0.035339240738721855,0.35327406256692484,1.0010753664118965,5.344546692807853
7,23,male,410,105,155,change,valid,clock,2,0,1,0.10570694677699066,0,j,change,0.2825349654449383,0.06215507538119294,0.5000315906927426,0.03535559734154958,0.3532865705556105,1.0010731213887993,4.0957845829079815
7,23,male,411,165,115,change,valid,anti,2,0,1,0.11633841745697282,0,j,change,0.21736064094875474,0.06374311405490105,0.500457503783764,0.03534052361010254,0.3532679689305951,1.0010532368914937,4.037790165320985
7,23,male,412,165,215,change,valid,clock,1,2,2,0.9556101060716173,1,j,change,1.119431418851491,0.2944127843773135,0.49987187328315486,0.03532095983155159,0.3532878534269912,1.0010881951193369,5.767849142096566
7,23,male,413,15,15,same,valid,anti,4,2,2,0.6261589534597078,1,f,same,1.6545793514897014,0.29358339623752994,0.5004103582832613,0.0354155715485831,0.3532955506516373,1.0010843465079233,5.956825626112732
7,23,male,414,15,325,change,catch,anti,2,1,1,0.09358862888984731,0,j,change,0.21456077552102215,0,0.5006460857848651,0.03528247370832105,0.3533366025158102,1.0010275794757035,5.556816581874955
7,23,male,415,15,15,same,catch,anti,4,1,2,0.45853392888420785,1,f,same,1.7045914265108877,0,0.5004796333041668,0.03532673274912668,0.35330966222954885,1.001045218949912,7.3820440428780785
7,23,male,416,135,85,change,valid,anti,2,0,2,0.39593496743236756,1,j,change,0.8404997166462636,0.06528331261099907,0.5001024693019644,0.035329619208823715,0.3532676482127499,1.0010737628235802,4.955471235311961
7,23,male,417,135,185,change,catch,clock,5,1,1,0.1214381494328336,0,j,change,1.1286712954788527,0,0.49985744098648865,0.0352908123686575,0.35330837935907766,1.001084667224859,6.486240409338279
7,23,male,418,15,65,change,valid,clock,1,2,3,0.42676652105001267,1,j,change,0.910640033841446,0.29275861684316207,0.5005992610022076,0.03529113308650267,0.35333082959641615,1.0010561233511908,5.085870878417154
7,23,male,419,15,325,change,valid,anti,4,1,2,0.4263742833163633,1,j,change,1.4558350895304102,0.19403044210112905,0.4995999046823272,0.03532480844296515,0.3533167180194141,1.0010253344526063,5.626296220630138
7,23,male,420,15,325,change,valid,anti,5,0,1,0.19260700825907406,0,f,same,3.2014238582532926,0.063637838261342,0.4998789290721106,0.03528728447327012,0.353309020794768,1.0011103246397397,7.075257047209561
7,23,male,421,75,25,change,valid,anti,5,1,1,0.41361677507484274,0,j,change,0.5549618714767348,0.1928901093614198,0.5000726425569155,0.03532544987865549,0.35329971998180554,1.0010506711496419,4.684492690363186
7,23,male,422,75,25,change,valid,anti,2,0,1,0.05114164272254129,0,j,change,1.9220008165466425,0.0651511525503628,0.5003513462288538,0.03530043389946513,0.35333307462133234,1.001054519761965,5.674592135296734
7,23,male,423,105,105,same,valid,anti,2,2,3,0.8609557322997716,1,f,same,0.9791081290068178,0.29193343297677016,0.4997224188391556,0.03537002963821578,0.3532843255316038,1.0010904401433436,5.544568052604518
7,23,male,424,15,65,change,valid,clock,1,1,2,1.5096778166307558,1,j,change,3.0300634347522646,0.19476300822686854,0.4998510266341327,0.035352710881852545,0.3533048514645998,1.001054519761965,8.299823252481474
7,23,male,425,15,325,change,valid,anti,5,1,2,0.6204007880669451,1,j,change,1.6416566736379536,0.1936465370333282,0.500038005046008,0.03534341006889008,0.3532891362974624,1.0010391253135822,6.039267070279493
7,23,male,426,75,75,same,valid,clock,2,0,2,0.336808737120009,1,j,change,4.068273419527941,0.066765499674766,0.5001236366697412,0.03535623877633043,0.3532904191688431,1.001021165122438,8.170887364909504
7,23,male,427,15,65,change,catch,clock,3,0,1,0.1867943208599172,0,j,change,1.6708734136900603,0,0.4999485248108613,0.035315828347847855,0.3532843255325133,1.0010525954558034,7.087491464900268
7,23,male,428,165,115,change,valid,anti,3,0,1,0.18043128190583957,0,j,change,1.454578838341149,0.06514548723603825,0.5000120269141917,0.035301716769026825,0.3533311503151708,1.0012363666919555,5.355854236375308
7,23,male,429,45,45,same,catch,clock,2,2,1,0.13637365150316327,0,j,change,2.2376299989064137,0,0.5002079854211843,0.035321601266332436,0.35330645505291614,1.001072479953109,7.54661134500293
7,23,male,430,45,45,same,valid,clock,3,0,1,0.07550784844352165,0,j,change,0.2212833390049127,0.06672968746829216,0.5000918856185308,0.03536457743666688,0.3532737418481702,1.0010304659354006,4.0374562982060525
7,23,male,431,135,135,same,valid,clock,2,0,1,0.008739236313886067,0,j,change,0.2020258453558199,0.0683188586397773,0.49915603140107123,0.03532480844296515,0.35332986744469963,1.0010304659354006,3.9070460714165165
7,23,male,432,75,25,change,valid,anti,5,0,1,0.0257266901580806,0,j,change,0.16640918381563097,0.06994206316262641,0.4998513473510684,0.03536265313050535,0.35330870007692283,1.0010458603846928,3.89581646224633
7,23,male,433,135,185,change,catch,clock,5,0,2,0.09657867990699742,1,f,same,0.9567281279350937,0,0.4998510266332232,0.035321601266332436,0.3533144729954074,1.001058368374288,6.274759806504335
7,23,male,434,165,115,change,catch,anti,5,1,1,0.05990781932177924,0,j,change,0.19057109236746328,0,0.500097017101325,0.035339561456567026,0.3532791940488096,1.0010827429186975,5.544888128859384
7,23,male,435,45,45,same,valid,clock,2,1,2,0.5391937862877967,1,f,same,0.9375851305012475,0.1925339645708363,0.4995575699476831,0.03535848380124662,0.35329202275624993,1.0010567647859716,5.17943320845643
7,23,male,436,165,115,change,catch,anti,5,1,1,0.9007991322660018,0,j,change,0.696595613801037,0,0.4990575710698977,0.035349182988284156,0.353272458977699,1.0010378424422015,6.851133111631498
7,23,male,437,45,95,change,valid,clock,4,2,2,0.13383966103992861,1,j,change,0.8298939033811621,0.291102967649589,0.4995184423896717,0.03535142801138136,0.35331832160773047,1.0010455396668476,4.743438035899089
7,23,male,438,105,105,same,valid,anti,5,2,2,0.7725822937536577,1,f,same,1.1751214798423462,0.29026242006538755,0.4999049072048365,0.03538798982845037,0.3533070964886065,1.0010192408162766,5.720806271441688
7,23,male,439,105,55,change,valid,anti,5,0,2,0.1997285445486341,1,j,change,1.39282432656546,0.07155854809858189,0.499895606391874,0.03530813112411124,0.35331864232557564,1.0010753664118965,5.321182729865541
7,23,male,440,165,115,change,valid,anti,4,2,2,0.11850999693069753,1,j,change,1.0242411258223,0.28941426638586043,0.4994802769842863,0.0353331471033016,0.35331735945419496,1.0010420117723697,4.860609357195244
7,23,male,441,15,15,same,valid,anti,4,0,2,0.14913757409794925,1,f,same,1.2673579629554297,0.06984782582188637,0.5002570552278485,0.03528920877943165,0.3533103036652392,1.0010683106229408,5.132469234353266
7,23,male,442,135,85,change,valid,anti,4,0,2,0.12371011354389339,1,j,change,0.6325662514545911,0.06819350108704045,0.500033194281059,0.03533571284424397,0.3532788733309644,1.0010840257900782,4.4725861744373105
7,23,male,443,135,135,same,valid,anti,5,0,1,0.05436293119328184,0,j,change,0.920426413410496,0.06662960725940836,0.5003728343135663,0.035329298490978545,0.3533000406987412,1.0010474639730091,4.6497323450521435
7,23,male,444,105,55,change,valid,anti,3,1,2,0.6072715680238616,1,j,change,1.0082963251852561,0.19141281445756303,0.500175592935193,0.035314866194312344,0.35331607658372377,1.0010541990441197,5.297667067457041
7,23,male,445,165,165,same,valid,anti,3,1,2,0.21764030677331903,1,j,change,0.7533818878528109,0.1902708023504367,0.49956783291418105,0.035347900116903475,0.35329971998089604,1.0010686313398764,4.67247122921799
7,23,male,446,15,15,same,catch,anti,2,1,2,0.12203308074640518,1,j,change,0.9639445966604399,0,0.4997811101775369,0.03535623877633043,0.3532788733318739,1.001072479953109,6.392309253956228
7,23,male,447,75,75,same,valid,clock,5,2,2,0.1683389421505126,1,f,same,1.5250709828424078,0.28859682462735886,0.5001816865706132,0.03533122279714007,0.35328304266113264,1.001043294642841,5.520815700542698
7,23,male,448,135,135,same,valid,clock,4,0,1,0.2842440700096631,0,j,change,1.0479848185077572,0.06813405189514662,0.49982087917032914,0.03531903552448057,0.35334429974045634,1.001020844404593,5.026130794446544
7,23,male,449,45,45,same,valid,anti,3,2,2,0.4469845641779102,1,f,same,0.9087904549278392,0.287810183362982,0.5002323599655938,0.03533603356208914,0.3532820805085066,1.0010606133982947,5.073800026747449
7,23,male,450,105,155,change,valid,clock,1,0,2,0.19347551176088018,1,j,change,1.7733032671185356,0.06966912606079065,0.500014592655134,0.03535399375232373,0.35328977773315273,1.0010269380409227,5.685725208441909
7,23,male,451,15,325,change,valid,anti,3,1,2,0.3929866097150807,1,j,change,1.0538853825537444,0.1891287287629192,0.5090716601980603,0.0352953024157614,0.35331511443018826,1.0010609341161398,5.17633090624895
7,23,male,452,45,355,change,catch,anti,5,2,1,0.23732146848942648,0,f,same,1.088209872524203,0,0.49990105859251344,0.035330260644514055,0.3532791940488096,1.0010795357411553,6.510148309480428
7,23,male,453,15,65,change,catch,clock,3,0,1,0.0897778613070841,0,f,same,1.19192772819315,0,0.49972273955791024,0.03533699571562465,0.35326412031736254,1.00105484047981,6.498394006171111
7,23,male,454,105,105,same,catch,clock,4,0,2,0.37389332352358906,1,j,change,1.2947209547637613,0,0.5000957342299444,0.035329619208823715,0.35331511443018826,1.0010195615341217,6.874919459770354
7,23,male,455,15,65,change,valid,clock,4,0,2,0.30658718854738254,1,j,change,1.1986393872757617,0.06807661134408236,0.500627163441095,0.03532737418481702,0.35328496696729417,1.0010465018203831,5.2157368472871894
7,23,male,456,45,45,same,catch,clock,5,1,2,0.8868443848905372,1,f,same,0.9516296788306136,0,0.4992211370918085,0.03531390404168633,0.3533369232336554,1.0010574062207525,7.039209982530338
7,23,male,457,135,85,change,valid,anti,4,2,2,0.11218608553463127,1,j,change,0.8887141690192948,0.28704943265051475,0.4999591084942949,0.03537451968531968,0.3532737418481702,1.0010705556469475,4.732344090311017
7,23,male,458,45,45,same,catch,clock,2,0,1,0.13810007482334186,0,j,change,0.9726184065657435,0,0.49973845472504763,0.03531486619522184,0.35329298490978545,1.001055802632436,6.321845653328637
7,23,male,459,15,15,same,valid,anti,1,0,2,0.6354883103213069,1,f,same,1.742453111875875,0.06656841598079694,0.4995062551170122,0.03532224270202278,0.3533026064405931,1.0010699142112571,6.097408376568637
7,23,male,460,15,325,change,catch,anti,3,2,1,0.35961721702369687,0,j,change,0.3107337475512395,0,0.499763470704238,0.03536938820252544,0.35327406256601535,1.0010763285645226,5.897287594287263
7,23,male,461,165,115,change,valid,anti,3,1,2,0.18496558859533252,1,j,change,0.9594827721684851,0.18804476075108253,0.5006422371725421,0.035261306341453746,0.3533346782087392,1.0010849879427042,4.8618893414932245
7,23,male,462,165,165,same,valid,clock,1,0,1,0.29477098672396096,0,j,change,3.8265863418519075,0.06511529560922158,0.49978078945969173,0.035311017582898785,0.3532737418481702,1.0010352767012591,7.805268557767704
7,23,male,463,165,165,same,valid,clock,1,1,3,0.6576774843670137,1,f,same,2.6593128238646386,0.18700841343627875,0.5002894477138398,0.03534116504579288,0.3533035685941286,1.0010798564590004,7.052746193321582
7,23,male,464,165,165,same,valid,clock,3,1,2,0.383945578057137,1,f,same,1.0103870838001967,0.18600809508855512,0.499540571910984,0.03531903552448057,0.3533010028522767,1.0010644620106177,5.10853952540856
7,23,male,465,45,355,change,catch,anti,4,2,2,1.2577110955817261,1,f,same,2.2030672156924993,0,0.4998802119425818,0.03534661724643229,0.3532811183549711,1.0010788943063744,8.712854717772643
7,23,male,466,165,115,change,valid,anti,3,2,2,0.2807274005481304,1,j,change,0.8903972954512938,0.28631005273388566,0.4994033047396442,0.03534629652858712,0.353332433185642,1.0010372010065112,4.88437004791831
7,23,male,467,75,75,same,valid,anti,2,1,2,0.17130141144662048,1,j,change,0.8694618068529962,0.1850332235717634,0.49961914774394245,0.03532288413680362,0.3533077379233873,1.0010606133982947,4.790160509582165
7,23,male,468,105,55,change,valid,anti,4,1,1,0.31503521319882566,0,j,change,0.7389492711208732,0.18407398347408593,0.49987508045978757,0.03533154351498524,0.35336065634237457,1.001040728900989,4.767272491691074
7,23,male,469,135,135,same,valid,anti,3,2,2,0.7367029644256036,1,f,same,2.4222341386666812,0.28558785235877504,0.4996018289893982,0.03532256341895845,0.35329522993379214,1.0010904401433436,6.898347886967713
7,23,male,470,15,15,same,valid,clock,2,0,2,0.3136885196217918,1,j,change,1.013820687381667,0.06653931877909885,0.500237491448388,0.03534725868212263,0.3533035685932191,1.0010378424422015,5.073755446988798
7,23,male,471,105,105,same,catch,anti,3,0,3,0.3170368122973741,1,f,same,1.0875883216422153,0,0.49966501037306443,0.03534084432794771,0.3532368593141655,1.0010811393303811,6.663388504259274
7,23,male,472,105,155,change,valid,clock,4,2,3,0.5417922410051688,1,j,change,1.4849777437957528,0.2848789144711902,0.4996242792267367,0.035379971885959094,0.3533122279714007,1.0010567647859716,5.720642705420687
7,23,male,473,135,135,same,valid,clock,3,0,3,0.7889337644201078,1,f,same,1.0073078732666545,0.06511082399485396,0.5002836747962647,0.035349824423065,0.35328624983867485,1.0010214858402833,5.521714992943089
7,23,male,474,135,85,change,valid,anti,2,2,3,0.2313153883233099,1,j,change,0.9314295958929506,0.28412136052396736,0.4991778402036289,0.03530588609919505,0.3533138315597171,1.0010609341161398,4.884204557591147
7,23,male,475,135,135,same,valid,anti,5,2,3,0.47779366755730734,1,f,same,1.9005425581153759,0.283369661892422,0.4996374286520222,0.035330260644514055,0.3532766283078672,1.001020844404593,6.062262849313811
7,23,male,476,135,185,change,valid,clock,1,1,3,0.24145199160921038,1,j,change,1.0878869098114592,0.1857114441057846,0.49986289318803756,0.035340202892257366,0.35323621787938464,1.0010872329658014,5.014394772045307
7,23,male,477,75,25,change,valid,anti,4,1,2,0.23873583349904948,1,j,change,1.212953338463194,0.1847640182558581,0.49995076983486797,0.03536586030804756,0.353227558501203,1.0011016652624676,5.167583651993482
7,23,male,478,15,325,change,valid,anti,1,0,2,0.23746098068386345,1,f,same,1.6915969078963826,0.06371005091808504,0.5002108718808813,0.03534533437505161,0.35326957251891145,1.0010689520577216,5.638788816060696
7,23,male,479,15,15,same,valid,clock,3,2,2,0.15117381070649571,1,j,change,0.6509889169583403,0.28261957649957586,0.5003381968035683,0.03533763715131499,0.35331094510002004,1.0010266173230775,4.496763477439345
7,23,male,480,45,45,same,valid,anti,4,0,1,0.4665037634622422,0,j,change,0.47070869308481633,0.062269121358519475,0.4997644328577735,0.03531069686414412,0.3533282638554738,1.0010269380400132,4.6494417748263
