subject,age,gender,ntrial,memory_ori,test_ori,type,trial_type,which_change,trial,quest,pas,pas_rt,vis,test_key,test,test_rt,contrast,fix_dur,target_dur,mask_dur,retention_dur,trial_dur
8,26,female,1,135,135,same,valid,anti,2,1,1,1.3333594186983646,0,j,change,2.3422674639380148,0.2,0.5058615098039354,0.03530408265896767,0.353329476120507,1.0010596644992802,7.529228010037514
8,26,female,2,105,105,same,valid,anti,1,2,2,1.4446293226872058,1,f,same,1.420272754563257,0.2,0.4994124378442848,0.03530921420610866,0.3533326833373849,1.0010506842918403,6.61533441010306
8,26,female,3,165,215,change,valid,clock,1,2,1,0.9721754681254424,0,j,change,1.3034729670093839,0.11397766455402543,0.5006061640144708,0.03529670605985302,0.3533333247808059,1.0010516464569719,6.051906562222484
8,26,female,4,165,215,change,valid,clock,2,1,2,1.4192413135735933,1,f,same,2.0314817214286904,0.33948538693435915,0.49960487086468675,0.035281632139685826,0.3533621897338435,1.0010622302731917,7.2166330764137
8,26,female,5,135,85,change,valid,anti,5,0,3,2.060135639621649,1,j,change,1.4632491417485198,0.2,0.49998717113203384,0.03531755297035488,0.3541341668676523,1.0002184114782722,7.299788516110539
8,26,female,6,135,135,same,valid,clock,3,2,2,1.6095983024843008,1,f,same,1.7829971314652084,0.24043453680453014,0.4996619593273408,0.03535154947053343,0.35328553724752965,1.0010513257352613,7.1578326012327125
8,26,female,7,75,25,change,catch,anti,1,2,1,0.7225779738598703,0,j,change,1.6371434857574059,0,0.4998819744141656,0.03534417287164615,0.35331760941744506,1.0010384968670678,7.605733285267888
8,26,female,8,165,165,same,valid,anti,4,1,3,1.5500678647119912,1,f,same,1.33541813129591,0.277883819201003,0.5002225808602816,0.03536052967820069,0.35329772467207476,1.0010827564617557,6.6401787959339345
8,26,female,9,165,165,same,valid,anti,2,1,2,1.5114388601807605,1,j,change,1.697209208048207,0.2361351957338891,0.5000532398023552,0.0353220430743022,0.35329996972382105,1.0010301581028216,6.934804654826394
8,26,female,10,15,15,same,valid,clock,5,2,2,0.9502945508099856,1,f,same,1.5442098828468716,0.20821230939956695,0.4993867801081251,0.0353406449328304,0.3533051012711894,1.001042345527594,6.191559695288788
8,26,female,11,15,15,same,valid,clock,5,1,2,1.1791599528924053,1,f,same,1.2991188491994308,0.20435316182746724,0.5003797344936629,0.03531851513548645,0.3533153643654714,1.0010657582117801,6.239929338594948
8,26,female,12,135,85,change,catch,anti,1,0,1,0.8301108285909322,0,j,change,1.0142942454829154,0,0.4996205862280476,0.035337758437435696,0.35328008497845076,1.001082115018562,7.122444810209572
8,26,female,13,15,15,same,valid,clock,3,0,3,1.3728242239817519,1,f,same,1.0108285267840529,0.0723357464867447,0.5001510599211088,0.035355718852770224,0.3532929138464169,1.0010773041931316,6.086966896388958
8,26,female,14,105,155,change,valid,clock,2,0,2,1.46901186926857,1,j,change,2.0846503235441105,0,0.4994996741468185,0.035319156578907496,0.3533301175637007,1.0010712104806316,8.841776759735922
8,26,female,15,45,95,change,valid,clock,2,1,2,1.1585465277387357,1,j,change,1.2863807454086782,0.17691399892921375,0.5000862741376295,0.035323005239206395,0.3532900273512496,1.0010612681078328,6.180816480477006
8,26,female,16,15,15,same,catch,clock,3,1,2,1.091353086369054,1,f,same,3.1782000328419144,0,0.4999692107166993,0.035341286376251446,0.3533333247808059,1.0010769834711937,9.537004228395062
8,26,female,17,165,215,change,valid,clock,2,0,2,0.8345348637317329,1,f,same,1.4412585376117022,0,0.5005362466836232,0.03533583410739993,0.3533301175637007,1.0010609473863497,7.559216130505547
8,26,female,18,75,75,same,catch,anti,1,2,1,0.9253186690818893,0,j,change,1.5109577776295282,0,0.500056447019233,0.03533968276769883,0.35328970662953907,1.0010805114100094,7.734974829761086
8,26,female,19,105,155,change,valid,clock,5,2,3,1.1937508659484592,1,j,change,1.2159695032148647,0.18435721902886748,0.500636632576061,0.03534802153194505,0.35331087426175145,1.0010817942968515,6.1570872439999675
8,26,female,20,165,215,change,valid,clock,3,0,1,3.715910169700237,0,j,change,2.4989377697270356,0,0.5007912204359855,0.03531851513548645,0.35327719848305605,1.0011026412073534,11.481129697290044
8,26,female,21,75,75,same,valid,anti,2,1,2,1.132689623498436,1,f,same,1.1771624981397508,0.15369661090354697,0.49954329229808536,0.03532909895170633,0.353265652501932,1.0010776249146147,6.0622325181016095
8,26,female,22,45,45,same,valid,clock,2,2,4,1.706684609976719,1,f,same,1.1400742406594873,0.16411084760184697,0.5001244400198175,0.03535988823500702,0.35329708322842635,1.0010452320229888,6.569764667244954
8,26,female,23,15,15,same,valid,anti,2,1,3,1.168023212553635,1,f,same,1.1802157687313866,0.1315715714680637,0.49900480056226115,0.03531562864031912,0.353311194983462,1.0010840393485978,6.062140150251707
8,26,female,24,15,15,same,valid,clock,2,2,1,0.7803133322727263,0,j,change,1.197822427940082,0.14678544476673633,0.4996260384968991,0.03534481431483982,0.35332530673827023,1.0010564572824023,5.720676094173996
8,26,female,25,75,75,same,catch,anti,4,1,1,0.8452293288451074,0,j,change,1.4859677841466237,0,0.5000702380523308,0.0353367962725315,0.3532929138464169,1.0010401004756204,7.652621515038163
8,26,female,26,165,165,same,valid,anti,4,0,1,1.5472695678724904,0,j,change,2.3023735330189083,0,0.5005638287498186,0.03640928963977785,0.35224383316312924,1.001075059141158,9.161206914246804
8,26,female,27,45,45,same,valid,anti,4,1,2,1.0106870885140324,1,f,same,1.3385018704489084,0.1103528035241932,0.49956830859059664,0.03537752792840365,0.3533102328183304,1.001018291399987,6.06269756456777
8,26,female,28,135,135,same,catch,clock,3,2,2,1.0032306296923252,1,j,change,2.264109189061628,0,0.49913629645971014,0.03530921420610866,0.3533358905544901,1.001069606872079,8.523269000836308
8,26,female,29,165,115,change,valid,anti,3,0,2,1.4615438644655114,1,f,same,1.4520450498530408,0.0007654626357214978,0.5000032072171052,0.03532781606486424,0.3533099120966199,1.0010596644992802,6.6985818969278625
8,26,female,30,75,125,change,valid,clock,1,0,2,0.859827618500276,1,j,change,1.2784964438376392,0,0.5003396442812118,0.03535315307908604,0.3532874615775654,1.0010846807922462,7.44095353127409
8,26,female,31,15,65,change,valid,clock,4,1,1,0.635130957085039,0,j,change,2.0664163326885046,0.08867192557182357,0.4997427811961188,0.035334871942268364,0.3533034976624094,1.0010603059429286,6.451283977257162
8,26,female,32,45,45,same,catch,clock,3,2,1,0.48806370046145275,0,j,change,1.1311681197498729,0,0.49934059618317406,0.03533423049884732,0.3532855372473023,1.0010955853299492,6.92218714239516
8,26,female,33,75,125,change,valid,clock,2,0,2,0.8240235307098374,1,j,change,1.2888554340520386,0,0.500085953415919,0.03536630266876273,0.3532951588983906,1.0010744176977369,7.476181602890165
8,26,female,34,75,75,same,valid,clock,2,1,2,0.9548340457631639,1,j,change,1.8344800203208251,0.12386111222596514,0.49966131788391976,0.03532717462144319,0.3532977246718474,1.001064475324938,6.627403809147609
8,26,female,35,165,165,same,catch,anti,4,1,1,0.5495178269950429,0,j,change,2.5790428253271784,0,0.4999393835985302,0.035274896984219595,0.3533570581864751,1.0010577401692444,8.371327415804217
8,26,female,36,105,105,same,valid,clock,1,1,1,0.4944178387975171,0,j,change,1.0667210183044062,0.11010502348623359,0.49959236271820373,0.03531947730061802,0.353271425492494,1.001108734919626,5.379525703920081
8,26,female,37,45,45,same,valid,clock,1,0,2,1.0033502588864849,1,f,same,1.1945202773088113,0,0.49992527184372193,0.03531338358834546,0.35332562745998075,1.0010667203766843,7.463920732990118
8,26,female,38,15,325,change,catch,anti,4,1,1,0.6800255807629583,0,f,same,3.5864813237337785,0,0.4998672212157089,0.03532428812627586,0.3533204959126124,1.0010407419190415,9.548410374962259
8,26,female,39,75,75,same,valid,clock,3,0,2,1.204476441066845,1,j,change,1.2661653358854892,0,0.5001513806428193,0.035304403380678195,0.35330798776635675,1.001080190688299,7.782549724692444
8,26,female,40,15,325,change,valid,anti,3,2,2,0.3954376696617601,1,j,change,0.8661265927039494,0.19377412754220175,0.4993938359855292,0.03532813678657476,0.35329451745496954,1.0010757005843516,5.143186524043813
8,26,female,41,135,185,change,valid,clock,4,2,2,0.9722251799889818,1,j,change,2.4531435216781574,0.1818873588072332,0.4999974342265432,0.03533519266375151,0.3533031769409263,1.0010609473863497,7.193402562181518
8,26,female,42,105,105,same,valid,clock,5,2,2,0.9215662251824597,1,f,same,3.089196232931272,0.17146470968648578,0.5002514458133192,0.03533583410739993,0.3532553894074226,1.0010811528534305,7.817999094281959
8,26,female,43,135,135,same,catch,clock,1,1,3,1.1180759392013897,1,f,same,1.2848804092921,0,0.49998428463663913,0.035309534927819186,0.35333749416281535,1.0010458734661825,7.687902826456138
8,26,female,44,105,55,change,valid,anti,3,0,2,0.44831184925556045,1,j,change,1.5492990947950602,0,0.5004672915179071,0.035341286376251446,0.35329900755891686,1.0010295166594005,7.300047979966621
8,26,female,45,15,65,change,valid,clock,3,0,1,0.3299847849625621,0,j,change,1.5699647975859534,0,0.4993960810372755,0.035360529678428065,0.353294196733259,1.0010522879001655,7.216356293586159
8,26,female,46,75,75,same,catch,anti,4,1,1,0.3776379359890143,0,j,change,1.280777737295466,0,0.4996045501429762,0.03532845750828528,0.35328393363874966,1.0010401004756204,7.051272816141818
8,26,female,47,165,165,same,valid,anti,3,1,2,1.1073984723384456,1,f,same,1.28098203701893,0.13141621066010278,0.5002376547802214,0.035297988946695114,0.3533301175637007,1.0010561365606918,6.23954671760589
8,26,female,48,135,185,change,valid,clock,5,2,2,0.9067729367332049,1,j,change,1.0357598281957507,0.16206418740061773,0.49968152335122795,0.0353258917346011,0.35328938590782855,1.0010465149096035,5.780227699578745
8,26,female,49,135,185,change,valid,clock,1,0,1,0.947795166595597,0,j,change,0.7506016739107508,0,0.4991455973890879,0.03533198544710103,0.35332498601633233,1.001059985221218,7.004345137602513
8,26,female,50,105,105,same,catch,anti,4,2,1,0.4813221303104456,0,j,change,0.9883068075105257,0,0.49989608616897385,0.03536854772073639,0.3533131193137251,1.001075379862641,6.757854474452415
8,26,female,51,135,135,same,catch,clock,3,0,1,0.6896497975603779,0,j,change,1.09087873897397,0,0.5080032893215503,0.035365981947052205,0.3532566722942647,1.0010975096602124,7.024917189657117
8,26,female,52,45,355,change,valid,anti,4,0,2,0.9580964269039214,1,f,same,1.8215533321704243,0,0.4997880029559383,0.03532717462121582,0.35332819323366493,1.0010384968672952,8.064746655514227
8,26,female,53,135,185,change,valid,clock,3,2,2,0.5177532290263116,1,j,change,1.0211403709081424,0.15339559004494774,0.5000160360850714,0.035324288126048486,0.35322652445438507,1.0011180358487763,5.332639719201779
8,26,female,54,135,85,change,valid,anti,1,2,3,0.7541571946853765,1,f,same,1.931900840547769,0.1452617288930506,0.499499353425108,0.03533968276769883,0.3533018940538568,1.001037534702391,6.4742604799025685
8,26,female,55,135,135,same,valid,anti,5,2,3,1.0652697526079464,1,f,same,2.102506183514379,0.13810123671994406,0.5002886495303756,0.03533551338568941,0.35326853899687194,1.001103924093968,6.934836085553343
8,26,female,56,165,115,change,valid,anti,4,0,1,0.7665457118228005,0,j,change,0.7753854433399283,0,0.49987459781505095,0.03533872060279464,0.35329066879467064,1.0010789078014568,6.839825168186508
8,26,female,57,45,45,same,valid,clock,2,0,1,0.4256255997493099,0,j,change,2.4916961944445575,0,0.5001228364117196,0.03532845750805791,0.3533156850871819,1.001037213980453,8.206769601227279
8,26,female,58,45,45,same,valid,clock,4,1,2,2.2666226850305975,1,f,same,1.316575410652149,0.12053304520490754,0.4987908791877089,0.03537688648475523,0.3533034976626368,1.0010631924378686,7.344953828904181
8,26,female,59,45,95,change,catch,clock,4,2,1,0.7996926203222756,0,j,change,1.52982070374037,0,0.4998701077115584,0.03531177997956547,0.35329163095957483,1.0010487599615772,7.605219489103092
8,26,female,60,105,105,same,catch,clock,2,0,1,0.5755947463217126,0,j,change,0.47560462455066954,0,0.5000372037170564,0.035318515135713824,0.3533140814788567,1.0010769834711937,6.345500017960603
8,26,female,61,135,85,change,valid,anti,4,0,1,0.8465337040020131,0,j,change,0.9184023056041042,0,0.4996856927332374,0.035321722352364304,0.3532852165253644,1.0010731348111221,7.0634502983994025
8,26,female,62,165,165,same,valid,clock,1,2,2,0.9726905471770806,1,j,change,1.8491594525667097,0.13120349395950648,0.4995753644684555,0.035323005239206395,0.3533089499314883,1.0010266301642332,6.616142949510959
8,26,female,63,165,165,same,valid,anti,5,0,2,0.35806685636316615,1,f,same,1.765083541588865,0,0.4993345024709015,0.035293498842747795,0.3533172886959619,1.0010943024431072,7.440371100665288
8,26,female,64,75,125,change,valid,clock,5,2,1,0.6613137145732253,0,j,change,1.3526841840580346,0.12444892003158281,0.49901923303877993,0.03534577648042614,0.3533105535402683,1.0010590230558591,5.732026755887546
8,26,female,65,75,75,same,catch,clock,5,1,1,0.531424632965809,0,j,change,0.4704352321764418,0,0.4999445151456712,0.03536181256504278,0.3533038183845747,1.0010301581028216,6.22760111713751
8,26,female,66,15,325,change,valid,anti,2,0,2,0.6644041888821448,1,f,same,1.2800529062519672,0,0.49980179398880864,0.035363095451884874,0.3532515407473511,1.0010866051225094,7.263577432481725
8,26,female,67,105,55,change,valid,anti,3,1,1,0.7023721859877696,0,j,change,0.4310855659837216,0.11042833697908265,0.4998829365790698,0.03528195286162372,0.3533407013796932,1.0010356103721278,4.897170208289481
8,26,female,68,75,75,same,valid,clock,5,1,1,0.37038866338571097,0,j,change,0.3954062389352657,0.12646148088595827,0.49915233254478153,0.03526976543662386,0.3533541716910804,1.0010487599615772,4.55427380909623
8,26,female,69,15,65,change,valid,clock,2,0,1,0.7171148004085808,0,j,change,0.48131250865935726,0,0.5000137910333251,0.03529863039011616,0.3532951588981632,1.0010933402777482,6.569549783705497
8,26,female,70,15,15,same,valid,clock,5,0,1,0.6275789231958697,0,j,change,1.301381540798502,0,0.4991324477996386,0.035367264833894296,0.3533111949832346,1.0010570987260508,7.32226725867622
8,26,female,71,45,45,same,catch,clock,2,2,1,0.42607204435716994,0,j,change,0.3979822756359681,0,0.49951763456192566,0.03532076018746011,0.3533314004503154,1.0010436284146635,6.156376845432533
8,26,female,72,75,125,change,valid,clock,1,2,2,1.1313419509115192,1,f,same,5.178146472318076,0.14547699541666267,0.4999339313294513,0.03532460884798638,0.3532778399267045,1.0010744176975095,10.1026476217844
8,26,female,73,75,125,change,catch,clock,1,1,2,0.35869482945327036,1,j,change,1.4940608755446192,0,0.49925432204554454,0.03531947730061802,0.3532807264218718,1.0010987925470545,7.145292382730986
8,26,female,74,105,105,same,catch,clock,1,2,1,0.7438184099387399,0,j,change,0.27307977503323855,0,0.5006035982405592,0.03530023399889615,0.35335673746521934,1.000998406654162,6.334008880142392
8,26,female,75,135,135,same,valid,clock,3,0,1,0.3732058828059053,0,j,change,0.31265619146824974,0,0.5000173189714587,0.03535443596638288,0.35328906518589065,1.0010603059427012,6.050516233649887
8,26,female,76,135,85,change,valid,anti,1,0,1,0.32139874431049975,0,j,change,0.46677002458045536,0,0.500101989500763,0.03534577647997139,0.35331087426175145,1.001059664499735,6.074253488169234
8,26,female,77,165,165,same,valid,clock,5,2,1,0.3249071189957249,0,j,change,2.0267748097480762,0.1402288722379268,0.49989159606502653,0.035324608847531636,0.3533115157051725,1.0010638338817444,6.145164094051324
8,26,female,78,135,135,same,valid,anti,4,0,1,0.19109144160574942,0,j,change,0.29888376019289353,0,0.49957376085967553,0.03533230616858418,0.35330830848806727,1.0010426662493046,5.767312557408786
8,26,female,79,75,75,same,valid,clock,4,2,2,0.6804883821773728,1,f,same,2.2855510383687943,0.15811277106342486,0.5001132147604039,0.035362774730401725,0.35330157333237366,1.0010615888295433,6.734244546448281
8,26,female,80,135,135,same,valid,clock,1,2,1,0.5659009329156106,0,j,change,0.32177463014386376,0.15348613701387803,0.4995596491048673,0.03526752038487757,0.3533297968419902,1.00108083213172,4.684233770199171
8,26,female,81,75,25,change,valid,anti,2,2,2,0.3932400845678785,1,f,same,1.7541373099402335,0.16881920169560805,0.49978479573883305,0.03533134400322524,0.35329612106352215,1.001070569037438,5.956324118784778
8,26,female,82,45,45,same,valid,anti,4,2,1,0.3338116362965593,0,f,same,1.2788922144163735,0.16466679956925134,0.5003723578947756,0.03531081781466128,0.3532999697240484,1.0010708897589211,5.39175001154581
8,26,female,83,165,165,same,catch,anti,5,0,2,0.54532471147877,1,j,change,1.8709787913153377,0,0.5001706239449959,0.03531338358789071,0.35332017519112924,1.0010218193388027,7.640889835944108
8,26,female,84,105,55,change,catch,anti,4,2,1,0.7175291728458433,0,j,change,0.3264180389278408,0,0.5004967979143657,0.03531979802210117,0.35331632653060296,1.0010692861505959,6.274933867185155
8,26,female,85,165,215,change,catch,clock,3,1,1,0.634379826861732,0,j,change,0.13816979520015593,0,0.5002360511716688,0.03531723224887173,0.35331664725254086,1.0010603059427012,6.145594823295141
8,26,female,86,45,45,same,valid,clock,5,2,2,0.35101867626599415,1,j,change,1.2393837909817194,0.17835790663048665,0.49951378590185413,0.03533904132427779,0.35331311931349774,1.0010609473861223,5.308338315210676
8,26,female,87,75,125,change,valid,clock,3,1,1,0.3035233203163443,0,j,change,0.6028076619131753,0.141576045102772,0.5003232874742025,0.035323005239206395,0.35328265075213494,1.0010567780041129,4.708704835969911
8,26,female,88,75,75,same,catch,clock,5,2,1,0.2819223930455337,0,j,change,0.1758401625670558,0,0.4995708743645082,0.035320118744039064,0.3532717462144319,1.0011125835799248,5.756292559769463
8,26,female,89,135,135,same,valid,clock,2,2,2,0.3562188579226131,1,f,same,1.3601983727862716,0.17460570282146534,0.4995808167368523,0.035350908027339756,0.35329034807273274,1.0010680032637538,5.615407855372723
8,26,female,90,135,135,same,valid,clock,2,0,2,0.3563035284519174,1,f,same,3.0175460428072256,0.004286635676082506,0.49906862418129094,0.03529895111159931,0.35331985446919134,1.0010426662493046,7.1573662718797095
8,26,female,91,15,65,change,valid,clock,5,1,3,0.5080408137605446,1,f,same,1.0128609402022448,0.15527579181137802,0.49989865194265803,0.035325891734828474,0.3533227409643587,1.0010558158392087,5.332787251184072
8,26,female,92,15,15,same,valid,clock,1,0,1,0.28498528528825773,0,j,change,1.18750898020744,0,0.499828093168162,0.035349625140497665,0.35331985446919134,1.0010522879001655,6.733873471440347
8,26,female,93,75,25,change,valid,anti,3,1,2,1.294388845555659,1,f,same,1.6953272131077028,0.147731818282519,0.500070558774496,0.035321401630881155,0.3532967625069432,1.001079869966361,6.851722339677508
8,26,female,94,15,325,change,valid,anti,4,1,2,0.23578978360228575,1,j,change,1.3826860955596203,0.1406276109543999,0.4997908894511056,0.03528227358310687,0.3533448707617026,1.0010362518150941,5.39125225146654
8,26,female,95,105,155,change,valid,clock,4,2,3,0.2831600580889244,1,f,same,1.423692289336941,0.17082562727073755,0.4995692707557282,0.0353149871966707,0.3532996490021105,1.001082115018562,5.450229765026506
8,26,female,96,135,135,same,valid,anti,5,0,2,0.3044992764516792,1,j,change,1.3629601073516824,0.0035898666957180636,0.4997953795545982,0.03535507740934918,0.35331344003543563,1.0010635131598065,5.426798799730932
8,26,female,97,45,45,same,catch,anti,1,0,1,0.3491418128728583,0,j,change,0.5218777100981242,0,0.49999550989650743,0.03532396740411059,0.3533115157051725,1.0010773041926768,6.180823536354637
8,26,female,98,15,15,same,valid,clock,2,0,1,0.33147710303637723,0,j,change,0.6822321460645071,0,0.5000824254771032,0.035349304419014516,0.35329612106352215,1.0010465149093761,6.334113114694901
8,26,female,99,135,85,change,valid,anti,3,2,2,0.6693612634899182,1,f,same,2.528321971232799,0.16728172900749796,0.499248869776693,0.03534545575848824,0.35334070138014795,1.0010728140891842,7.004386189980323
8,26,female,100,45,355,change,catch,anti,1,2,2,0.2573576765380494,1,j,change,1.7243137197046963,0,0.49934829350377186,0.03533968276815358,0.35328072642141706,1.0010391383107162,7.263190642110658
8,26,female,101,15,15,same,valid,anti,1,0,1,0.4827163075437966,0,j,change,0.6155149764203998,0.0029865711001033912,0.5068249577930146,0.03532236379578535,0.3532707840495277,1.001101999763705,4.7979947196381545
8,26,female,102,135,135,same,valid,anti,1,2,2,0.47673965864942147,1,f,same,1.3432880003902028,0.16401204675219713,0.49912635408736605,0.03534096565454092,0.35329034807273274,1.0010763420282274,5.555169584806663
8,26,female,103,45,355,change,catch,anti,2,2,3,0.36315735119796955,1,j,change,1.5461005372731051,0,0.5004512554328358,0.03531979802210117,0.3533371734411048,1.0010660789334906,7.158882323359649
8,26,female,104,45,45,same,catch,anti,1,1,2,1.0480960676954965,1,j,change,1.039315348970831,0,0.49993457277287234,0.03536213328698068,0.3533144022003398,1.001069927594017,7.4050769603791196
8,26,female,105,105,55,change,valid,anti,1,1,2,0.8449705064322188,1,f,same,1.4666580927068935,0.13386544201094366,0.5001488148691351,0.03531627008351279,0.35329740395036424,1.0010827564615283,6.074561701723724
8,26,female,106,105,105,same,catch,anti,2,0,2,0.35658512210511617,1,j,change,0.8951673012679748,0,0.4997649109932354,0.035328778229995805,0.35329772467230214,1.0010715312023422,6.557288913805223
8,26,female,107,165,165,same,valid,anti,1,1,2,0.363708351079822,1,f,same,0.9020945692836904,0.1273633485247178,0.5004012228478132,0.03534738008829663,0.35330189405431156,1.00102630944275,5.050178513698938
8,26,female,108,165,215,change,catch,clock,4,1,1,0.4215880342580931,0,j,change,0.45058769044453584,0,0.499785757904192,0.03530857276291499,0.3532909895161538,1.0010853222356673,6.204319287433464
8,26,female,109,45,355,change,catch,anti,5,1,1,0.32124960871942676,0,j,change,0.441427878669856,0,0.49950897507642367,0.03536534050408591,0.35328008497845076,1.0009958408809325,6.109621394446549
8,26,female,110,165,165,same,valid,anti,1,2,2,1.6347897091950472,1,j,change,0.7696980854193498,0.16066981395301744,0.4996295664354875,0.0353521909137271,0.3533156850871819,1.0010340067638026,6.309569886541794
8,26,female,111,15,15,same,valid,anti,4,0,1,0.28221585340179445,0,j,change,0.399197490160077,0.00883149258659685,0.49972834871960004,0.03531883585719697,0.3533124778700767,1.001045552744472,4.461177279561525
8,26,female,112,165,165,same,catch,clock,2,0,2,0.7268987366132933,1,f,same,0.9130921164041865,0,0.4997761362528763,0.03535796390451651,0.35329387601177586,1.0010577401694718,6.910902228630675
8,26,female,113,105,55,change,catch,anti,5,0,1,0.49690503558713317,0,j,change,0.4850742534881647,0,0.4999384214333986,0.03529991327695825,0.3533439085972532,1.0010676825418159,6.381031813027221
8,26,female,114,75,25,change,catch,anti,3,1,1,0.4070545303866311,0,j,change,0.32237758694100194,0,0.49943296403307613,0.03532653317824952,0.35331857158234925,1.0010631924383233,6.121448969328867
8,26,female,115,75,75,same,valid,anti,4,2,2,0.7548502742811252,1,f,same,1.5898376763329907,0.15750279345168713,0.4995288598215666,0.03530215832915928,0.3533227409643587,1.0010984718251166,6.203569440096999
8,26,female,116,165,165,same,catch,anti,3,2,1,0.304405625714935,0,j,change,0.8152854679715347,0,0.4996282835486454,0.035345135036550346,0.35328265075213494,1.0010715312023422,6.557269670503501
8,26,female,117,75,75,same,catch,clock,3,0,2,0.692428530376219,1,j,change,3.6814704320249803,0,0.5000535605240657,0.03533070256025894,0.35334005993627216,1.0009984066546167,9.678100288393125
8,26,female,118,135,85,change,valid,anti,4,2,2,0.9526085578813763,1,f,same,1.2809720946461312,0.1545605067107295,0.5003511902623359,0.03532589173437373,0.3533009318889526,1.0010728140891842,6.02763626823662
8,26,female,119,45,45,same,valid,anti,1,1,3,1.5535621276421807,1,f,same,2.615450832080569,0.12143151154656913,0.4996363015911811,0.0353448143150672,0.35330061116746947,1.0010824357400452,7.911281321681145
8,26,female,120,15,15,same,valid,clock,1,1,3,1.8767703837884255,1,f,same,1.3450330471641792,0.1156474740207515,0.4998162264655548,0.03534770081023453,0.35328457508194333,1.001072493367701,6.992362333417077
8,26,female,121,165,165,same,valid,clock,1,1,3,0.951204758996937,1,f,same,1.7133674880565195,0.11029604824913704,0.5004470860508263,0.03535026658391871,0.35329515889861796,1.0010545329519118,6.416483748389965
8,26,female,122,75,75,same,valid,clock,2,2,1,0.6781936184079314,0,j,change,0.972113889558841,0.1515420699729216,0.5000737659911465,0.0353515494707608,0.35328361291703914,1.0010824357405,5.462702631970842
8,26,female,123,105,105,same,catch,anti,4,0,1,0.3897499910199258,0,j,change,0.28744522073338885,0,0.49946439475979787,0.03531659080545069,0.35333204189373646,1.001059023056314,6.00364660573814
8,26,female,124,75,125,change,valid,clock,5,0,1,0.24387934706192027,0,j,change,0.2901857876668146,0.014877049944853643,0.4999862089666749,0.035311138536599174,0.35330830848806727,1.0010631924383233,4.389890146403104
8,26,female,125,135,185,change,catch,clock,2,0,2,1.0396950834647214,1,j,change,1.0540377579245614,0,0.5000538812455488,0.03533743771595255,0.3532807264218718,1.0010830771834662,7.452306117317676
8,26,female,126,15,15,same,valid,anti,3,1,2,0.30801887639654524,1,f,same,2.054529103569621,0.10505222870197356,0.500717133722901,0.03531947730061802,0.35329836611526844,1.0010522879001655,6.158134721074475
8,26,female,127,15,15,same,valid,anti,5,1,1,0.27338061198861396,0,j,change,0.32062227707319835,0.10014439004833925,0.49932039071609324,0.035316911526933836,0.35331087426175145,1.0010266301642332,4.342381961585033
8,26,female,128,105,155,change,valid,clock,1,1,2,0.5116944753763164,1,j,change,1.1659045249980409,0.10844673807358449,0.4996988423226867,0.0353371169944694,0.35325122002495846,1.0010968682167913,5.544125533039278
8,26,female,129,45,355,change,valid,anti,2,0,1,2.7648125317514314,0,j,change,0.5003082135544901,0.020572864555923887,0.5003624155219768,0.03532589173437373,0.35330381838411995,1.0010433076927256,7.216970154921455
8,26,female,130,135,185,change,valid,clock,2,1,2,0.4015047620760015,1,j,change,0.7547453982851948,0.10385468981980597,0.5005230970941739,0.03532076018700536,0.3532922724034506,1.0010853222352125,4.991812616422067
8,26,female,131,105,105,same,valid,anti,5,1,2,0.3586428725375299,1,f,same,2.134083159288366,0.09926728055689035,0.49924373822932466,0.03532621245631162,0.3533195337477082,1.0010612681080602,6.333192001970474
8,26,female,132,15,65,change,valid,clock,1,0,2,0.8574209228572727,1,f,same,1.3436786394213414,0.02643027864680242,0.49996888999521616,0.03530344121554663,0.35332819323366493,1.0010407419190415,6.027942557460392
8,26,female,133,165,115,change,valid,anti,5,1,2,0.4376193084726765,1,f,same,1.0054124994226186,0.09496733995058755,0.49908979181327595,0.035291895234422554,0.3533374941630427,1.0010676825418159,5.2142661502621195
8,26,female,134,105,105,same,valid,clock,2,1,2,0.36351944599800845,1,f,same,1.2550369343107377,0.0906883505904524,0.49967895757754377,0.03536950988564058,0.35331055353981355,1.001059664499735,5.402756859595684
8,26,female,135,15,65,change,valid,clock,3,1,1,0.3152174749711776,0,j,change,0.9467730265355385,0.08659016327268698,0.5003479830452306,0.03534577647997139,0.3532547479640016,1.0010946231645903,5.108791366685182
8,26,female,136,45,355,change,valid,anti,2,2,2,1.0713634649232517,1,j,change,1.0571500413093418,0.16156009849359815,0.5004945528626195,0.035293178121264646,0.35332113735603343,1.001093981721624,6.015823446552076
8,26,female,137,45,45,same,valid,clock,5,0,1,0.595825550486552,0,j,change,0.3908260123262153,0.02037969537422818,0.5003543974794411,0.03530247905064243,0.35332434457313866,1.0010638338812896,4.826657618038553
8,26,female,138,165,115,change,valid,anti,5,0,1,0.240769308729341,0,j,change,0.47895616632376914,0.025880405489123987,0.50004554248153,0.03532557101289058,0.353304459827541,1.0010667203769117,4.460819995586917
8,26,female,139,15,325,change,valid,anti,1,2,1,0.3278859821525657,0,j,change,0.881921174303443,0.15877814752439373,0.5003072513895859,0.035280028531360585,0.3533249860165597,1.0010949438865282,5.085620827410821
8,26,female,140,105,105,same,valid,clock,2,2,2,0.7470070250883509,1,f,same,2.054223135067332,0.16828297539696074,0.5000731245481802,0.035388111744396156,0.3533099120963925,1.0010545329523666,6.5929303956936565
8,26,female,141,15,15,same,valid,clock,4,1,1,0.9131902572444233,0,j,change,0.9359855521288409,0.09358638240294828,0.5001978852892535,0.03531370430982861,0.35333396622445434,1.0010253472773911,5.6739389243252845
8,26,female,142,45,45,same,valid,clock,3,1,2,0.9723185100037881,1,f,same,1.0646113109564794,0.09995495033623986,0.5005372088489821,0.03531659080499594,0.3532855372473023,1.0010805114102368,5.792799669527994
8,26,female,143,15,65,change,valid,clock,4,0,1,0.3513551133301007,0,j,change,2.193317891652441,0.03155113253122224,0.49960583302936357,0.03535892606987545,0.3533076670446462,1.0010817942970789,6.462741760017707
8,26,female,144,105,105,same,valid,anti,3,2,2,0.4072678103175349,1,j,change,0.8788772046409576,0.16579288780047632,0.500251766535257,0.035345455758033495,0.35329772467230214,1.0010433076927256,5.108814779369368
8,26,female,145,45,95,change,valid,clock,1,2,2,0.3537053619534163,1,j,change,2.0266413895201367,0.1634337925365274,0.5003341920123603,0.03529542317301093,0.3533451914836405,1.0010433076927256,6.204718906672497
8,26,female,146,15,65,change,valid,clock,5,2,2,0.31685251420185523,1,f,same,2.046849743166149,0.1609710594952653,0.49972161356390643,0.035317232248416985,0.3533317211722533,1.0010433076927256,6.180714170254305
8,26,female,147,165,115,change,valid,anti,1,2,3,0.324198965479809,1,f,same,1.3118245600981027,0.15858315788122762,0.4997373289270399,0.03529542317301093,0.3533355698327796,1.0010615888295433,5.414835559569838
8,26,female,148,165,115,change,catch,anti,3,1,1,0.3604183878733238,0,j,change,0.5893662154326194,0,0.5001379103314321,0.03534128637602407,0.35328938590782855,1.0010840393488252,6.3219513478006775
8,26,female,149,135,85,change,valid,anti,2,2,1,0.23779621856283484,0,j,change,0.35925352665572063,0.1563403570319774,0.5005115511130498,0.03532813678657476,0.3532932345683548,1.0010747384194474,4.450043104996894
8,26,female,150,45,95,change,valid,clock,2,2,2,0.4724249896089532,1,j,change,1.9917991461102247,0.16454792204321228,0.4996160961241003,0.035380735145281506,0.3533172886959619,1.0010846807917915,6.2276139460054765
8,26,female,151,45,355,change,valid,anti,5,2,2,0.27446016123303707,1,j,change,1.2952721131200633,0.1623447188019562,0.5054128201441017,0.03531338358834546,0.35330862921000517,1.0010295166598553,5.244117001842369
8,26,female,152,15,15,same,valid,anti,3,0,2,0.3737183960834045,1,f,same,1.1536013198337969,0.036915866744415465,0.4992568878192287,0.03536245400846383,0.35330862921000517,1.0010429869707878,5.214297901710324
8,26,female,153,45,355,change,catch,anti,4,1,2,0.7102135108507355,1,f,same,4.191813065432598,0,0.49937010257963266,0.03532557101289058,0.3532990075586895,1.0010327238765058,10.266430572732133
8,26,female,154,75,25,change,valid,anti,2,0,2,0.3697876309183812,1,j,change,0.8427822222674877,0.03131376931358287,0.5006058432927603,0.03532108090894326,0.35330349766218205,1.0010673618203327,4.95598864388603
8,26,female,155,165,115,change,valid,anti,2,2,2,0.3324562663888173,1,j,change,1.360920958778479,0.16019134111050562,0.5005526034901777,0.035317232248416985,0.35331632653060296,1.0010548536743045,5.47492629815315
8,26,female,156,165,165,same,valid,clock,3,1,2,0.5857503989777797,1,f,same,0.8977131901292523,0.09625283841013056,0.4990946026387064,0.03529863039011616,0.3533333247810333,1.0010622302729644,5.226209505678071
8,26,female,157,165,165,same,catch,anti,3,0,1,0.342355020962259,0,j,change,1.1189444535675648,0,0.4998454121400755,0.035106838813135255,0.35330798776612937,1.0010567780041129,6.709844680894548
8,26,female,158,75,25,change,catch,anti,5,2,2,0.26983535430736083,1,j,change,1.7733337866197871,0,0.5006533101045534,0.03529670605985302,0.35336058612529087,1.0010702483155,7.276123423973786
8,26,female,159,165,215,change,valid,clock,5,0,1,0.26668009421518946,0,j,change,0.36644314502245834,0.025910243090313756,0.5004082787249899,0.035303761937029776,0.35331183642665565,1.001058702334376,4.390586433215503
8,26,female,160,165,165,same,valid,clock,2,1,1,0.35062130207870723,0,j,change,0.3861922251926444,0.09276461204765185,0.49975304429062817,0.035330381838321046,0.35329804539333054,1.0010663996554285,4.496223501972963
8,26,female,161,165,115,change,catch,anti,3,2,1,0.29456909115151575,0,j,change,0.6211968820721268,0,0.4995875518925459,0.0353143457537044,0.35333909777136796,1.001013159852846,6.191355716287035
8,26,female,162,75,75,same,valid,clock,5,0,2,0.6941524095177556,1,j,change,3.5747445130932647,0.03094024145256044,0.5008037285820137,0.03535283235760289,0.35321690280352414,1.0010718519238253,8.112978067767017
8,26,female,163,75,25,change,valid,anti,4,1,2,0.997906008015434,1,f,same,1.035332306169039,0.09861273528843557,0.4994432271273581,0.03532460884798638,0.3532974039499095,1.001079869966361,5.826277242101241
8,26,female,164,135,85,change,catch,anti,5,2,1,0.5144231756066802,0,j,change,0.43920623944813997,0,0.49993232772112606,0.0353146664747328,0.353304459827541,1.0010561365606918,6.251226760505233
8,26,female,165,75,75,same,valid,anti,5,2,2,0.3058556085247801,1,f,same,2.059380981459981,0.15811351323112155,0.5002610674646348,0.03533262689052208,0.3533086292095504,1.001105206981265,6.181093584026712
8,26,female,166,135,185,change,valid,clock,4,1,3,0.44551194880796174,1,j,change,1.3274417825969067,0.09525938344464992,0.49950544713738054,0.03536854772073639,0.35332691034682284,1.001068965428658,5.473467976579741
8,26,female,167,165,115,change,valid,anti,5,2,2,0.9942042381449028,1,f,same,3.1625898662205145,0.15615475852860064,0.49951378590185413,0.035361491843559634,0.35328714085608226,1.001059343777797,7.923300367418506
8,26,female,168,135,135,same,valid,clock,2,1,3,0.3659726462879007,1,f,same,1.4980336552525841,0.09206029770185589,0.5000712002174623,0.035328778229995805,0.3533099120963925,1.001069606872079,5.650925538684078
8,26,female,169,15,15,same,valid,anti,5,2,4,0.8935675414240905,1,f,same,0.9553455968757589,0.15428347618984672,0.49976298666297225,0.03532845750805791,0.3533102328183304,1.0010747384194474,5.579717303063717
8,26,female,170,15,15,same,catch,clock,3,1,1,0.3436231545674673,0,j,change,0.3949588321625015,0,0.5001286094020543,0.03530504482387187,0.3533041391056031,1.0010734555326053,5.968799551502798
8,26,female,171,135,85,change,catch,anti,4,1,1,0.22614888927637367,0,j,change,0.3962705839189766,0,0.5002947432431029,0.035302158328704536,0.3532727083793361,1.0010991132685376,5.874124429756648
8,26,female,172,105,105,same,valid,anti,2,2,2,0.6647726981163942,1,j,change,1.0139796174944422,0.15232182836908556,0.5003810173807324,0.03533390977690942,0.35332049591306713,1.0010625509944475,5.4505613912651825
8,26,female,173,75,125,change,catch,clock,3,0,2,0.24690054548318585,1,j,change,0.9308119903730585,0,0.49970621892180134,0.03536469906066486,0.3532887444644075,1.0010423455273667,6.404249177669499
8,26,female,174,105,55,change,valid,anti,3,2,2,2.0304512426041583,1,j,change,1.2518483191615815,0.15039434318179357,0.500217449313368,0.035316911526933836,0.35331279859155984,1.0010442698580846,7.064134397787257
8,26,female,175,135,85,change,catch,anti,2,1,1,0.23646105412217366,0,j,change,0.7096913759219206,0,0.4994024954712586,0.03531755297035488,0.3532794435350297,1.0010708897589211,6.21515005926949
8,26,female,176,75,125,change,valid,clock,4,2,4,0.8399781524376522,1,j,change,1.164769490899289,0.14851127886882404,0.4999557404053121,0.03534738008875138,0.35328874446395275,1.0010442698576298,5.827532867559967
8,26,female,177,15,325,change,valid,anti,2,1,3,0.42013420278863123,1,j,change,0.8509984707989133,0.08877429548022645,0.499657789945104,0.03533423049884732,0.35333332478057855,1.001058702334376,5.014660830387129
8,26,female,178,75,125,change,valid,clock,4,0,1,1.939365638133495,0,j,change,1.0086184335436883,0.025845174622672162,0.49933642680116463,0.035348342253655574,0.3533259481814639,1.001059985221218,6.651470444854112
8,26,female,179,135,85,change,valid,anti,2,1,2,0.38866146156760806,1,j,change,1.659716199781542,0.08567693054827824,0.49947465785407985,0.03530825204143184,0.35332113735603343,1.0010795492448779,5.814588539715714
8,26,female,180,75,75,same,valid,anti,3,0,1,0.25900233742004275,0,j,change,0.44935772272219765,0.030604920087713566,0.500010904537703,0.03527521770593012,0.35335256808275517,1.0010647960466486,4.461300436694728
8,26,female,181,45,95,change,valid,clock,4,0,1,0.29732024190116135,0,j,change,0.4016442760157588,0.03517263145611052,0.49981558502213375,0.035336154829110455,0.3533034976626368,1.0010955853299492,4.4376985267326745
8,26,female,182,45,95,change,valid,clock,4,2,3,0.7834891185539163,1,j,change,1.522377394508112,0.1467296814333618,0.499738611813882,0.0353448143150672,0.353316967974024,1.0010724933672464,6.156823290040393
8,26,female,183,45,45,same,valid,anti,3,2,4,1.3268131680633815,1,f,same,1.2431715142679423,0.14502663721372416,0.5001119318735618,0.03533807915937359,0.3533034976626368,1.0010166877914344,6.298845594310478
8,26,female,184,105,55,change,valid,anti,4,1,2,1.688763964222744,1,j,change,2.3870697197658046,0.08272061429014256,0.49972033067706434,0.03533390977736417,0.35334711581390366,1.0010378554234194,7.92396650639148
8,26,female,185,15,65,change,valid,clock,2,1,2,0.9473734175589925,1,f,same,1.1650308790849522,0.07966983032022645,0.4995602905478336,0.03531659080545069,0.3533079877665841,1.001068965428658,5.885820188019807
8,26,female,186,15,15,same,valid,clock,4,0,2,0.43959174693281966,1,j,change,1.1521324144441678,0.03989390663581291,0.5000051315473684,0.03530183760676664,0.35330991209684726,1.0010856429571504,5.450808346975009
8,26,female,187,45,45,same,catch,anti,5,0,1,0.3642346553911011,0,j,change,0.4441732564287122,0,0.4997668353234985,0.03531370430982861,0.35331087426175145,1.001058060890955,6.132938503538298
8,26,female,188,45,355,change,valid,anti,4,2,2,0.8217938734455856,1,j,change,1.5790822740964359,0.1433794114425868,0.5004679329613282,0.03533807915937359,0.35334134282311425,1.0010465149098309,6.227920555952096
8,26,female,189,45,45,same,catch,anti,5,2,2,0.60957649340844,1,j,change,5.500095254345069,0,0.49976779748885747,0.03535668101767442,0.3532845750823981,1.0011109799715996,11.432432276405962
8,26,female,190,135,85,change,catch,anti,4,2,1,0.43101821442678556,0,j,change,2.6325055292422803,0,0.5009291307669628,0.03533551338568941,0.35329002735079484,1.0010981511036334,8.348160083746734
8,26,female,191,135,135,same,valid,anti,4,2,3,0.7182203281108741,1,j,change,0.8259202788481161,0.14163201955918187,0.5001055174393514,0.03529702678179092,0.3533047805494789,1.0010898123391598,5.309378415686297
8,26,female,192,15,325,change,valid,anti,2,2,1,0.5756672294264717,0,j,change,1.6977852242230256,0.13989861936099118,0.4992812626687737,0.03532236379578535,0.353315364365244,1.0010259887208122,6.038190577966361
8,26,female,193,135,135,same,valid,clock,1,0,1,0.23469804693286278,0,j,change,0.45158705926405673,0.0351478722379229,0.499796020998474,0.03532076018746011,0.35335737890818564,1.001059023056314,4.496168337840572
8,26,female,194,105,105,same,valid,clock,4,0,1,0.26396518501769606,0,j,change,0.37254487538029935,0.03962948249240089,0.5002379755019319,0.035327495343153714,0.35328938590782855,1.0010670410983948,4.449816996197569
8,26,female,195,165,215,change,valid,clock,1,0,1,0.23029742447624812,0,j,change,0.4314162300574935,0.04399424722850631,0.4998123778050285,0.0351812462477028,0.35348791264050305,1.001047797796673,4.437739579110712
8,26,female,196,15,325,change,catch,anti,2,0,2,0.9192589532667625,1,j,change,2.6327104704087105,0,0.4991824803846612,0.03532653317779477,0.3533073463231631,1.0010901330610977,8.853427616960744
8,26,female,197,15,65,change,valid,clock,2,2,2,0.36811538797064713,1,f,same,1.8088989367438444,0.14586544989468142,0.5000169982499756,0.03535603957425337,0.35331119498368935,1.0010593437773423,5.980920586741377
8,26,female,198,105,55,change,catch,anti,2,2,2,0.21772994463071882,1,f,same,1.2605318592109143,0,0.49908433954442444,0.03531466647518755,0.3533217787994545,1.0010388175887783,6.815370138500384
8,26,female,199,135,185,change,valid,clock,4,0,2,0.5870342479461215,1,f,same,2.163059402790168,0.04813034241141925,0.5000298271183965,0.035318194414230675,0.35330478054902414,1.0010904537830356,6.616496384825041
8,26,female,200,135,135,same,valid,clock,4,0,1,0.2855651501236025,0,j,change,1.8219439712020176,0.043695150166197655,0.4993970432024071,0.03531787369183803,0.35331921302622504,1.0010663996549738,5.885243209680084
8,26,female,201,105,55,change,valid,anti,2,1,2,0.34397242049954,1,f,same,1.5220749539444114,0.07674731307810671,0.5024333155438399,0.035299271833537205,0.3533076670446462,1.0010962267733703,5.676289493670083
8,26,female,202,165,115,change,valid,anti,3,1,2,0.32300684291794823,1,f,same,1.1535378169369324,0.07397491448788318,0.49993104483428397,0.035278745644518494,0.35331632653060296,1.0011016790422218,5.215290535374152
8,26,female,203,15,325,change,valid,anti,5,0,2,0.24640727550740849,1,j,change,0.7861713141378459,0.04764194439533195,0.49903623128921026,0.03534705936681348,0.353292593124479,1.001078587079519,4.754241544492743
8,26,female,204,135,135,same,valid,clock,5,2,2,0.29768939257883176,1,f,same,1.1150560236665115,0.14434185024691348,0.5002257880773868,0.0352707276019828,0.35336315189897505,1.0010417040844004,5.1325850682237615
8,26,female,205,165,165,same,valid,clock,2,2,2,0.18172476433392148,1,f,same,0.9174821550445813,0.14273362005180423,0.5002508043698981,0.03531915657868012,0.3532900273512496,1.0010779456365526,4.861834694903791
8,26,female,206,45,45,same,valid,clock,3,0,3,0.2713036182540236,1,f,same,1.2704476120347863,0.04342313685862062,0.49981301924844956,0.03534609720190929,0.3532829714736181,1.001037213980453,5.2976377563845745
8,26,female,207,105,55,change,catch,anti,3,2,3,0.49073274645570564,1,f,same,0.9635188686993388,0,0.49967350530869226,0.035281952861168975,0.35334294643189423,1.0010558158392087,6.733957821247714
8,26,female,208,45,45,same,valid,anti,3,0,2,0.34054069830108347,1,f,same,1.9734541855468706,0.039228387060268044,0.5001908294120767,0.035342248541383015,0.35331728869550716,1.0010635131598065,6.087075300323704
8,26,female,209,15,15,same,valid,clock,1,2,3,0.4674621420103904,1,f,same,0.8550956905269231,0.1411471070188542,0.49900127262390015,0.03532781606463686,0.35328810302098645,1.0010757005848063,5.143204484459147
8,26,female,210,135,135,same,valid,clock,3,1,1,0.21764816059703662,0,j,change,1.425276654539175,0.07113725665796602,0.49954136796759485,0.03532076018746011,0.3532114505346726,1.0011212430658816,5.379241865214681
8,26,female,211,165,215,change,valid,clock,4,2,1,0.2672766365785719,0,j,change,0.30277090720619526,0.13956607713381874,0.5001237985766238,0.03534000348963673,0.35326084167627414,1.0010904537830356,4.319773647452166
8,26,female,212,135,135,same,catch,anti,4,1,1,0.14588668004262217,0,j,change,0.34131716553838487,0,0.49974149830904935,0.035323005239206395,0.3532884237424696,1.0010837186268873,5.7563239904966395
8,26,female,213,45,355,change,catch,anti,5,0,2,0.2780936173817281,1,f,same,2.2251466339616854,0,0.49979345522433505,0.035357001739612315,0.3532566722942647,1.001057740169017,7.7935777403745305
8,26,female,214,15,15,same,catch,anti,5,2,1,0.20315506765928149,0,j,change,0.3103235825383308,0,0.5005907693725931,0.0352925366778436,0.3533737357147402,1.0010368932585152,5.792019674352105
8,26,female,215,75,25,change,catch,anti,4,1,1,0.0504649181775676,0,j,change,0.6731480246112369,0,0.5008845504507917,0.03532653317824952,0.3532874615775654,1.0010558158392087,6.00507477947167
8,26,female,216,165,165,same,valid,anti,3,2,2,0.6010783305023324,1,f,same,1.164529270345156,0.14503963476244783,0.49958723117106274,0.03535443596592813,0.35331087426175145,1.0010689654291127,5.579560149430563
8,26,female,217,45,45,same,catch,clock,3,1,1,1.0345372370725272,0,j,change,0.44594652671230506,0,0.49952340755271507,0.035293498842747795,0.3533304382854112,1.0010391383107162,6.73328911650151
8,26,female,218,135,135,same,valid,clock,1,1,2,0.3727988869673027,1,j,change,0.7228736792681048,0.07579397174979365,0.5000737659911465,0.03528323574846581,0.3533637933423961,1.0010628717163854,4.861427378343706
8,26,female,219,105,105,same,valid,clock,3,0,1,0.1723933664488868,0,j,change,1.6982172363541395,0.035315095948010744,0.5003030820071217,0.035324288126048486,0.353316967974024,1.0010554951172708,5.591834168920286
8,26,female,220,135,85,change,valid,anti,2,0,2,0.33964909197266024,1,f,same,1.3205780174780557,0.03903678698447585,0.49983707337605665,0.03533326833348838,0.35328361291703914,1.0010795492448779,5.450331433805786
8,26,female,221,165,115,change,valid,anti,3,2,2,0.2681124373307284,1,f,same,1.1728125497115798,0.14366067818548486,0.5001420797134415,0.03532685389973267,0.35331344003543563,1.0010407419190415,5.2269452412597275
8,26,female,222,45,95,change,valid,clock,5,2,2,0.24420327597999858,1,j,change,1.793083187511911,0.14219389456336695,0.499522766109294,0.035377848650114174,0.3533208166345503,1.0010680032637538,5.744467871382767
8,26,female,223,15,15,same,catch,clock,4,0,1,0.11206657669345077,0,j,change,0.4544523869394652,0,0.499919178131222,0.03531177998002022,0.3533192130257703,1.0010853222356673,5.826719517326637
8,26,female,224,165,165,same,valid,clock,4,0,1,0.06903406321043803,0,j,change,0.23697517100890764,0.03529045916477641,0.5007120021759874,0.035315628640091745,0.35330221477533996,1.001083718627342,4.072866366813287
8,26,female,225,165,115,change,catch,anti,5,1,1,0.11297421910649064,0,j,change,0.4676083911058413,0,0.4998396391492861,0.03533102328174209,0.3532855372473023,1.001060947386577,5.897277329337612
8,26,female,226,75,75,same,catch,clock,2,0,1,0.13059627295751852,0,j,change,0.4883292580293528,0,0.5008935306586864,0.03533102328174209,0.3532909895161538,1.0010850015141841,5.934109971622547
8,26,female,227,45,95,change,catch,clock,5,1,2,0.1956373509929108,1,f,same,2.267063035926185,0,0.499840601314645,0.035342569262866164,0.3532242794026388,1.0011250917264078,7.746566994914701
8,26,female,228,135,85,change,valid,anti,5,2,2,0.12902217084956646,1,j,change,1.0673101840684467,0.1407380324893055,0.5000096216508609,0.0353367962725315,0.3533002904455316,1.0010577401694718,4.979469321045144
8,26,female,229,165,215,change,catch,clock,4,1,3,0.0442358613045144,1,f,same,1.4387338163828645,0,0.49933354030554256,0.035348342253655574,0.35331087426175145,1.0010670410988496,6.8752771035492515
8,26,female,230,105,105,same,valid,anti,1,1,3,0.25533456404946264,1,f,same,1.3196796759939389,0.07321277754688374,0.4993428412353751,0.03532043946552221,0.3532909895161538,1.0010846807922462,5.437507376599115
8,26,female,231,15,65,change,catch,clock,1,1,1,0.10766274702018563,0,j,change,0.2694883334274891,0,0.5003588875833884,0.035293819564230944,0.35331536436569877,1.0010753798628684,5.627616126913381
8,26,female,232,45,45,same,valid,clock,2,1,2,0.6902331903343111,1,f,same,1.338520793029602,0.07054612139413224,0.499622510557856,0.03534417287164615,0.35331632653060296,1.0010644753247107,5.932551584878183
8,26,female,233,105,155,change,valid,clock,5,1,3,1.5154748220638794,1,f,same,1.8783281290889136,0.06792590625669892,0.4999012177163422,0.03529029162564257,0.3533599446818698,1.0010513257352613,7.134366677272283
8,26,female,234,165,215,change,catch,clock,1,0,2,0.32005395821897764,1,j,change,1.0083727607211586,0,0.49969499366261516,0.03534609720145454,0.35330285621921576,1.0010622302734191,6.5803635572910935
8,26,female,235,45,45,same,valid,clock,3,2,3,0.5687082099625513,1,f,same,1.0556705521034928,0.1392865076916394,0.50027325488918,0.035299271833537205,0.3533365319976838,1.0010526086221034,5.3565902536524845
8,26,female,236,165,215,change,catch,clock,5,2,2,0.21827132286171036,1,f,same,1.912128026971459,0,0.49937138546647475,0.03531338358834546,0.35332113735603343,1.001048439240094,7.416318255992337
8,26,female,237,135,185,change,valid,clock,5,0,2,2.184153910495297,1,f,same,6.618932586864048,0.03886076071185926,0.5006792885624236,0.035328778229995805,0.3533076670446462,1.0010503635703571,12.52938644655751
8,26,female,238,45,45,same,valid,clock,4,0,2,0.7831497949946424,1,j,change,1.6875881984678927,0.03526790175894093,0.4994284739291288,0.03536341617336802,0.35329483817668006,1.0010747384194474,6.1803222483358695
8,26,female,239,105,105,same,valid,clock,3,1,1,0.37480981203134434,0,j,change,0.5100546253202083,0.06544900412531607,0.49923187152671744,0.03536213328652593,0.35328297147407284,1.001082115018562,4.602202460063836
8,26,female,240,75,75,same,valid,clock,3,1,2,0.32058539407717035,1,f,same,2.0330032251772536,0.06988942674516926,0.49941628650412895,0.03532172235281905,0.35332017519112924,1.0010465149093761,6.120649410128408
8,26,female,241,45,45,same,catch,clock,4,1,1,0.6883576098280173,0,j,change,0.8176504697930795,0,0.5006353496892189,0.03528034925329848,0.35333524911129643,1.0010760213058347,6.804918138992889
8,26,female,242,135,135,same,valid,anti,4,1,1,0.22798470029192686,0,j,change,0.36594570566467155,0.06744320304087228,0.5007979555916791,0.03534449359358405,0.3533002904455316,1.0010542122304287,4.308953459432814
8,26,female,243,165,165,same,valid,clock,3,0,1,0.08885851298009584,0,j,change,1.2749550348175944,0.03183622745533263,0.49983450760237247,0.03535603957470812,0.353316967974024,1.0010657582120075,5.096712025267607
8,26,female,244,45,355,change,valid,anti,1,0,2,0.18549067854473833,1,f,same,1.531720659095754,0.03499222660084078,0.4997081432520645,0.03531883585719697,0.3532874615775654,1.0010923781132988,5.509160453218556
8,26,female,245,105,105,same,valid,clock,3,2,2,0.5034307600335524,1,f,same,2.6415441082140205,0.1378957360452639,0.4997581758375418,0.03533551338568941,0.35330927065297146,1.001059023056314,6.8867185295039235
8,26,female,246,165,165,same,valid,clock,5,0,2,0.25158404448029614,1,j,change,1.2311402811060361,0.03158330285166827,0.5000166775284924,0.03533551338568941,0.35329740395036424,1.0010657582115527,5.226464800151916
8,26,female,247,15,325,change,valid,anti,4,0,2,0.1799854905502798,1,f,same,1.8383312465039126,0.028250670556173946,0.5002771035492515,0.03529606461643198,0.35331183642665565,1.0010920573913609,5.791821147618975
8,26,female,248,45,45,same,valid,anti,1,0,1,0.10739686873012033,0,j,change,1.1700293267922461,0.0251395761006607,0.5004150138806835,0.03531755297035488,0.35333589055426273,1.0010660789334906,5.038722013824554
8,26,female,249,75,25,change,valid,anti,2,1,2,0.17760862202567296,1,f,same,1.2360075536375916,0.0716939015506804,0.4998216787344063,0.035338079158918845,0.3533127985920146,1.001068965428658,5.155631167478532
8,26,female,250,75,75,same,valid,anti,1,0,1,0.2095383916703213,0,j,change,0.2530157461528688,0.02813075002164897,0.5001568329116708,0.035315628640091745,0.3533070256012252,1.0010696068725338,4.178632044973256
8,26,female,251,105,155,change,valid,clock,3,0,2,3.6341267774400876,1,j,change,1.5160588562807789,0.03112575876369228,0.5106861263489009,0.03529381956468569,0.35335962396038667,1.0010436284146635,8.8651839916256
8,26,female,252,105,105,same,valid,anti,2,0,2,0.3416019664086889,1,f,same,1.2678382202766443,0.028018731578819484,0.49948363806151974,0.03531787369229278,0.35333396622445434,1.0010763420277726,5.355653104842531
8,26,female,253,45,95,change,catch,clock,4,2,2,0.27262627454820176,1,f,same,1.407711047707835,0,0.4995125030145573,0.035361491843559634,0.35325314435567634,1.001101999763705,6.910279707809423
8,26,female,254,75,25,change,valid,anti,1,2,2,0.3356846510291689,1,f,same,0.9396045758003311,0.13656564487314116,0.5002828765400409,0.03532781606463686,0.353284895804336,1.0010705690369832,4.979932443181042
8,26,female,255,15,65,change,catch,clock,1,2,2,0.3023257454851773,1,f,same,0.8979299979987445,0,0.49952661476936555,0.03538169731064045,0.3533079877665841,1.001035931093611,6.391660850913013
8,26,female,256,105,105,same,catch,clock,4,0,2,1.2077253518959878,1,j,change,1.5671703494067515,0,0.50039929851755,0.03530921420633604,0.3533220995213924,1.001048439240094,8.041702159868237
8,26,female,257,105,155,change,catch,clock,4,1,1,0.028897666685679724,0,j,change,0.9776376794116004,0,0.49997113504696244,0.03533615482865571,0.353306063436321,1.0010721726457632,6.33361310956343
8,26,female,258,135,135,same,valid,clock,5,1,1,0.3102918310901259,0,j,change,0.831120781226673,0.06930077530489481,0.49978575790373725,0.03536694411241115,0.3532897066293117,1.0010654374900696,4.814456402375072
8,26,female,259,45,45,same,valid,clock,1,2,3,0.9358627157171213,1,f,same,1.2785676440553289,0.13528221844929983,0.4992408517346121,0.03534160709796197,0.3532996490021105,1.0010702483155,5.991170852298637
8,26,female,260,105,55,change,valid,anti,2,2,3,0.37800516233664894,1,j,change,0.9614678534226186,0.13403288592686288,0.49962251055831075,0.03531787369229278,0.3533166472520861,1.0010519671786824,5.085097730316647
8,26,female,261,135,85,change,valid,anti,1,1,3,0.22957451776255766,1,j,change,1.3077590918187525,0.07331780086372125,0.5000343172218891,0.03535251163611974,0.3532909895161538,1.0010570987260508,5.238909122864243
8,26,female,262,45,45,same,valid,anti,2,2,3,0.2841045834979923,1,f,same,0.9004553606705485,0.13270335512278614,0.4995538761145326,0.03533198544710103,0.35330638415780413,1.0010500428484193,4.919675891477709
8,26,female,263,165,115,change,valid,anti,1,1,2,0.781109042812659,1,f,same,3.428793047266481,0.07104168911859274,0.5000391280473195,0.03534898369707662,0.35331568508763667,1.0010112355225829,7.970613232721007
8,26,female,264,105,55,change,valid,anti,1,2,3,0.36085328649915027,1,j,change,0.9447133517724069,0.13138431745691287,0.5001834528129621,0.03528419791337001,0.3533182508608661,1.001091095226002,5.00262029629539
8,26,female,265,105,155,change,valid,clock,2,1,3,0.30842234429564996,1,j,change,0.7498765221448593,0.06877473073301035,0.4999727386552877,0.03530985564975708,0.35329740395036424,1.0010850015137294,4.779261365094044
8,26,female,266,75,125,change,valid,clock,3,0,2,0.2595331318348144,1,j,change,1.0660712361382139,0.0251148110796634,0.4997851164603162,0.03533839988085674,0.35332113735603343,1.0010516464571992,4.9786764970008335
8,26,female,267,135,135,same,valid,clock,4,1,1,0.5226647611521003,0,j,change,0.7419842025319667,0.06662402683787857,0.5005221349288149,0.03531306286640756,0.3533195337477082,1.0010657582115527,5.026784431398937
8,26,female,268,165,115,change,valid,anti,4,2,3,1.2269933495149417,1,f,same,1.3290591821341877,0.13006331159251266,0.5000497118635394,0.035345135036550346,0.3533079877665841,1.0010500428484193,6.251689882641585
8,26,female,269,105,55,change,valid,anti,4,2,3,0.13934780600675367,1,j,change,0.933264549219075,0.12875805210489905,0.49972866944153793,0.035380735145281506,0.3533330040590954,1.0010487599615772,4.755803459175695
8,26,female,270,105,55,change,valid,anti,4,0,3,0.15356604044700362,1,f,same,0.9371731845867544,0.02231487678004801,0.49935438721649916,0.03534160709796197,0.3533073463231631,1.0010670410988496,4.825543751571786
8,26,female,271,45,45,same,valid,anti,5,2,3,0.2341460848861061,1,j,change,0.6631565814659552,0.1275124657101289,0.5002049411664302,0.03530857276291499,0.353271425492494,1.001092378112844,4.578830186839696
8,26,female,272,75,125,change,valid,clock,3,2,3,0.23515090597447852,1,j,change,1.4144009816650396,0.12631475462327488,0.5000134703113872,0.035392601848343475,0.3532428812609396,1.0010657582115527,5.320486291071575
8,26,female,273,75,25,change,valid,anti,3,2,1,2.602233249346682,0,j,change,2.263719191473683,0.1251538019270071,0.5004502932679316,0.03529285739932675,0.3533435878753153,1.0010532500655245,8.571903560267401
8,26,female,274,135,135,same,catch,anti,1,1,3,0.8764653774510407,1,f,same,1.049911673243514,0,0.49974598841299667,0.03531915657913487,0.3533147229222777,1.0010340067638026,7.192599795764181
8,26,female,275,105,155,change,catch,clock,5,2,2,0.31096823315692745,1,j,change,1.1494194295773923,0,0.5008255376578745,0.03535443596592813,0.35333781488452587,1.001058060890955,6.747031079215503
8,26,female,276,165,215,change,valid,clock,4,1,2,0.40105286519928995,1,j,change,2.2223194721686923,0.07044575694682562,0.5000003207219379,0.035352511635664996,0.3532909895161538,1.0010866051225094,6.3690166159494765
8,26,female,277,165,115,change,catch,anti,5,1,1,0.3113043494995509,0,j,change,0.47714473015776093,0,0.4995513103403937,0.0353220430743022,0.3532855372473023,1.0010776249150695,6.039273013706406
8,26,female,278,45,355,change,valid,anti,3,2,2,0.3626955119489139,1,j,change,1.6986258358006125,0.1296943296532701,0.49964656468591784,0.035311138536599174,0.35331087426175145,1.0010317617116016,5.803769955304233
8,26,female,279,135,185,change,valid,clock,3,1,2,0.5274669271780112,1,j,change,1.5469225469919365,0.06830189462293484,0.49905611603480793,0.03532525029095268,0.3532864994126612,1.001059985221218,5.803198429233362
8,26,female,280,15,15,same,valid,anti,1,1,2,0.6433937102628988,1,f,same,1.4254331667293627,0.06627362936332548,0.4997164820160833,0.03531017637124023,0.3533054219924452,1.0010721726457632,5.82686865291771
8,26,female,281,45,45,same,valid,anti,4,0,1,0.27313718421737576,0,j,change,0.8277573727500567,0.01944778497490532,0.4997780605826847,0.03533294761200523,0.3533147229222777,1.0010808321312652,4.8613468771968655
8,26,female,282,135,135,same,valid,anti,3,0,1,0.3100740610552748,0,j,change,1.4952218881012413,0.02209463297367492,0.5000359208306691,0.03530087544231719,0.35333140045077016,1.0010061039752145,5.53276140101525
8,26,female,283,75,75,same,valid,clock,3,2,3,1.4136338153566612,1,f,same,0.9785475668768413,0.12849052195496055,0.4996340565394348,0.03533743771595255,0.35329644178546005,1.0010686447071748,6.156247594587057
8,26,female,284,15,65,change,valid,clock,5,0,1,0.26805246237290703,0,j,change,0.5968364652876517,0.024605794378672358,0.500366584904441,0.035334871942268364,0.3533089499314883,1.0010625509949023,4.614676609895014
8,26,female,285,45,355,change,valid,anti,3,0,1,0.22491860083255233,0,j,change,0.8922718257531415,0.027041624415307386,0.4999708143254793,0.0353002339984414,0.3533111949832346,1.0010875672874135,4.86171378282279
8,26,female,286,165,215,change,catch,clock,2,0,2,0.25708345948396527,1,j,change,1.0537715589125582,0,0.49945990465585055,0.0353518701926987,0.35330285621921576,1.0010859636790883,6.545445302838289
8,26,female,287,135,85,change,valid,anti,3,1,1,0.7598734175589925,0,j,change,2.2321236138404856,0.0643222925710327,0.49949293899089753,0.035350908027339756,0.353292593124479,1.0010474770751898,6.7335328649937765
8,26,female,288,135,185,change,valid,clock,1,1,2,0.18498201392731062,1,j,change,1.149743679216499,0.067609593502617,0.4997286694410832,0.035355077409803926,0.353302856218761,1.0010676825422706,5.073358674623705
8,26,female,289,135,135,same,catch,clock,2,0,1,0.793573891714459,0,j,change,0.26214573080915216,0,0.49939543959408184,0.03532941967341685,0.35329483817668006,1.0010817942966241,6.2622201382441744
8,26,female,290,75,75,same,valid,anti,4,1,1,0.7737747789587957,0,j,change,0.7499711350469624,0.06569522694484789,0.5000128288679662,0.03533583410717256,0.3533034976626368,1.0010596644992802,5.1915119077552845
8,26,female,291,45,45,same,valid,clock,4,2,2,1.0160133137992489,1,f,same,1.4366141666623662,0.1273387950349627,0.4993624052585801,0.03531017637124023,0.353327231068306,1.001069927594017,6.180279271628024
8,26,female,292,105,105,same,valid,clock,2,0,2,0.30123400881575435,1,f,same,1.4753419534772547,0.02966974570501882,0.49974951635158504,0.035351228748822905,0.35330285621921576,1.0010943024431072,5.46181487430249
8,26,female,293,135,185,change,catch,clock,4,1,1,2.2133463204240797,0,j,change,1.0740100603984502,0,0.5002296367374583,0.035328778229995805,0.3531963766145054,1.0011789729719567,8.4299267984793
8,26,female,294,105,105,same,valid,anti,3,0,2,0.23569356709231215,1,j,change,1.5151310084006582,0.026974543712997623,0.5003608119136516,0.03530119616380034,0.35333428694548275,1.0010619095514812,5.473688953831697
8,26,female,295,165,165,same,valid,anti,4,2,3,0.9122409210099249,1,f,same,2.630145979689587,0.1262286208472484,0.5001722275533211,0.03532557101289058,0.3533179301389282,1.0010426662493046,7.252356021614105
8,26,female,296,75,75,same,valid,anti,1,1,2,0.3033539792581905,1,j,change,2.109119785706298,0.06913763624998126,0.499578571685106,0.035325891734828474,0.3532980453937853,1.0010522879001655,6.156119305906941
8,26,female,297,135,85,change,catch,anti,3,0,1,0.2576229133842389,0,j,change,1.6853328834677086,0,0.5004656879095819,0.035343852150163,0.353291951681058,1.0010442698576298,7.146790794517528
8,26,female,298,165,165,same,valid,anti,2,0,1,0.15258848070288877,0,j,change,0.7676332791102141,0.024422897925356485,0.5004239940885782,0.035345135036550346,0.353283292195556,1.001047797796673,4.662072862839068
8,26,female,299,105,105,same,valid,anti,5,2,3,0.3238054399535031,1,f,same,1.4405186326480361,0.12515049110766271,0.4998011525453876,0.035355718852770224,0.35330927065297146,1.0010692861505959,5.508836203578994
8,26,female,300,75,125,change,valid,clock,5,1,3,0.2317066756299937,1,j,change,1.2650636568432674,0.06723455883420607,0.49985727884313746,0.03536245400846383,0.3532909895161538,1.001080190688299,5.214328690993625
8,26,female,301,45,95,change,catch,clock,5,0,1,0.2421378282265323,0,j,change,1.3485670795848819,0,0.5036033083088114,0.035348342253655574,0.3532396740438344,1.001103603372485,6.819735160848268
8,26,female,302,15,65,change,valid,clock,4,2,3,0.6366559887719632,1,f,same,1.0981004295103958,0.12409571920700138,0.5002771035497062,0.03532236379578535,0.3532922724029959,1.0010952646080113,5.485525508921455
8,26,female,303,135,135,same,valid,anti,2,0,2,0.33347263345876854,1,f,same,1.617557652933101,0.026722387156941668,0.5006978904211792,0.03530119616380034,0.35331183642665565,1.0010663996549738,5.7568913471850465
8,26,female,304,135,135,same,valid,anti,1,1,3,0.2647175981278451,1,f,same,1.0563479163351985,0.06541704131608611,0.4998835780229456,0.03534321070628721,0.35329868683720633,1.0010888501742556,5.061212943814553
8,26,female,305,45,45,same,valid,anti,3,1,3,1.98425769603773,1,f,same,0.9977985662458195,0.06365103928500968,0.5004021850127174,0.03529606461643198,0.35328778229904856,1.0010894916176767,6.757694755045577
8,26,female,306,45,95,change,valid,clock,3,1,3,0.28696157240892717,1,j,change,1.2318381715272153,0.06181710741188773,0.4998082084230191,0.03525148430026093,0.353397789842802,1.0010227815041617,5.226135739686924
8,26,female,307,105,105,same,valid,anti,2,1,3,0.43756222001002243,1,f,same,1.1476464800148278,0.0599695106188837,0.5000359208302143,0.03535443596592813,0.35329195168151273,1.0010971889387292,5.2854718201083415
8,26,female,308,105,155,change,valid,clock,2,2,3,0.18376968589791431,1,j,change,0.9327696756349724,0.12296899062475061,0.5000641443402856,0.03533551338568941,0.3533111949832346,1.0010487599615772,4.849659457698181
8,26,female,309,165,165,same,valid,anti,1,0,1,0.1719822012282748,0,j,change,0.5737919696416611,0.024245470600291336,0.5003107793281742,0.03532525029095268,0.3533160058091198,1.001046194187893,4.472807931319494
8,26,female,310,105,105,same,valid,anti,4,2,2,1.1711361373818363,1,j,change,1.3051660568680745,0.12184871858961593,0.5003338712904224,0.035284518635307904,0.35337149066344864,1.0010599852207633,6.310714542291862
8,26,female,311,45,355,change,valid,anti,5,1,2,1.4646988038361997,1,j,change,1.4524671196113559,0.05815903345183451,0.4996148132372582,0.03533807915937359,0.3533086292095504,1.001084360070763,6.686550022322535
8,26,female,312,45,95,change,catch,clock,3,2,1,0.32132337471057326,0,j,change,0.5281529508961285,0,0.49995638184873314,0.03532685389973267,0.3532945174551969,1.001105527702748,6.086655154895652
8,26,female,313,105,105,same,valid,clock,1,0,1,0.12146115675341207,0,j,change,0.4340580147068067,0.026484152852502968,0.5000468253683721,0.035343531428225106,0.35331087426175145,1.0010830771834662,4.261022884134945
8,26,female,314,75,25,change,valid,anti,1,1,2,0.10558735689392051,1,j,change,1.2049472605235678,0.05644033565763962,0.4998245652300284,0.03535347380056919,0.35329323456790007,1.0010875672874135,5.049592234429383
8,26,female,315,105,155,change,valid,clock,3,2,1,0.36129331667279985,0,j,change,0.7367278945775979,0.12072588653239062,0.49977164614938374,0.03532396740411059,0.3533195337477082,1.0010673618203327,4.7432555433538255
8,26,female,316,105,55,change,valid,anti,1,0,1,0.28405839957304124,0,j,change,0.8878400932912882,0.028890150306046358,0.5000458632030131,0.035339041324732534,0.35330638415780413,1.0010779456365526,4.849484343649692
8,26,female,317,75,25,change,valid,anti,4,2,2,0.2710720571863021,1,f,same,3.0903466616719015,0.12461489312097596,0.5005080231740067,0.035318515135259076,0.3533240238516555,1.0010654374900696,7.1349212050927235
8,26,female,318,15,325,change,valid,anti,1,1,1,0.22931345029837757,0,j,change,2.088121815233535,0.054782539286381854,0.5001318166187048,0.03531755297080963,0.35332113735603343,1.0010654374900696,5.992729239043001
8,26,female,319,105,55,change,valid,anti,5,1,2,0.5365911388444147,1,f,same,0.9104298055658546,0.057573760760098514,0.4995545175574989,0.03533519266375151,0.3533127985920146,1.0010622302729644,5.1907043305127445
8,26,female,320,15,15,same,valid,anti,5,0,1,0.2173264767307046,0,j,change,0.7385896840505666,0.03131904098911653,0.4999977549482537,0.03533839988085674,0.35328585796924017,1.0010789078019116,4.673531287043716
8,26,female,321,105,55,change,catch,anti,4,2,1,0.19762261832056538,0,j,change,0.3614283405090646,0,0.4997196892336433,0.03532460884798638,0.3533314004503154,1.0010426662493046,5.814857304500947
8,26,female,322,75,125,change,valid,clock,2,1,3,0.3893782745685712,1,f,same,1.300687178316366,0.055939349498303925,0.500705587741777,0.03530889348439814,0.3533467950924205,1.0010519671786824,5.451089940628208
8,26,female,323,165,165,same,valid,anti,3,0,3,0.17703036079910817,1,j,change,1.0089984887590617,0.03363847894495117,0.49984958152253967,0.03534256926332091,0.35326533178022146,1.0010625509944475,4.873499343161711
8,26,female,324,105,155,change,valid,clock,1,0,2,0.17093664848380286,1,j,change,1.102746404068057,0.031146287795225464,0.4993040339095387,0.03536373689530592,0.35331344003543563,1.0010442698576298,4.97835577529986
8,26,female,325,105,105,same,catch,clock,1,0,2,0.2580469074728171,1,f,same,3.562139188086803,0,0.5001959609589903,0.03534577647997139,0.3532739912661782,1.0011071313110733,9.06575789103681
8,26,female,326,165,165,same,valid,clock,4,1,1,0.164529911788577,0,j,change,1.4708014963589449,0.05435438589325384,0.5005846756607752,0.03534192781944512,0.3532951588981632,1.0010558158392087,5.391829550527746
8,26,female,327,105,105,same,valid,anti,1,0,1,0.18657086923258248,0,j,change,0.6157760438850346,0.02867258045137311,0.49981462285722955,0.03534128637602407,0.3532884237424696,1.0010519671786824,4.555217693061422
8,26,female,328,105,155,change,valid,clock,5,0,2,0.12180144247804492,1,j,change,1.1711040652116935,0.03098175999130101,0.4999996792780621,0.03535636029619127,0.3533079877665841,1.0010577401694718,5.049755802497202
8,26,female,329,75,125,change,valid,clock,4,1,2,0.08592423013988082,1,j,change,1.6434110292348123,0.057036369464110476,0.49989897266459593,0.03532236379578535,0.3532980453937853,1.0010737762545432,5.450395578145617
8,26,female,330,105,105,same,catch,clock,3,2,2,0.060448984723279864,1,j,change,1.6306613794627083,0,0.499759138002446,0.03531755297080963,0.35333556983232484,1.0010567780041129,6.93362728546299
8,26,female,331,45,355,change,valid,anti,2,1,2,0.2301886998197915,1,j,change,2.6507061650409014,0.055477115530415955,0.5007908997140476,0.03523448604983059,0.35339297901737154,1.0010715312023422,6.64106430854963
8,26,female,332,45,95,change,valid,clock,1,1,2,0.19053082007258126,1,j,change,2.24977228759235,0.05395746365895751,0.49922257059733965,0.03532845750805791,0.35330542199289994,1.0010843600703083,6.156333868724687
8,26,female,333,165,115,change,catch,anti,1,2,2,0.10777018878980016,1,j,change,1.2708283086935808,0,0.49993072411234607,0.035342569262866164,0.3532887444644075,1.0010920573913609,6.627761413843928
8,26,female,334,15,15,same,valid,clock,2,1,1,0.17409190857642898,0,j,change,1.3972503887148378,0.05237858301641368,0.5000291856749755,0.03532332596114429,0.3533099120963925,1.0010888501742556,5.391454306137803
8,26,female,335,75,75,same,valid,anti,5,1,2,0.35700879547175646,1,f,same,2.1581048939565335,0.05497642550225254,0.49966452510125237,0.03536020895671754,0.35325891734646575,1.001079869966361,6.286323336224086
8,26,female,336,135,135,same,valid,anti,1,0,2,0.4080253549745976,1,j,change,1.27070643444722,0.028572107098674693,0.5000958957884905,0.0353223637962401,0.35331889230428715,1.001034968928252,5.367833152874027
8,26,female,337,45,355,change,catch,anti,2,2,1,0.13542634177110813,0,j,change,2.079513644783674,0,0.5002937810781987,0.03533006111638315,0.3532900273512496,1.0010862844005715,7.452873474006083
8,26,female,338,105,105,same,valid,anti,5,0,2,0.24006564531782715,1,f,same,2.5360866436089964,0.026311943154954,0.4999304033908629,0.035328778229995805,0.353315364365244,1.0010413833624625,6.5697114274425985
8,26,female,339,15,325,change,valid,anti,4,2,2,0.15923800372547703,1,j,change,0.8439416312162393,0.12354893216941011,0.49903045829842085,0.035331985446646286,0.35330670487974203,1.0010503635699024,4.672250645292024
8,26,female,340,135,135,same,valid,anti,2,2,2,0.3004331667293627,1,f,same,0.90122605491797,0.12249251017653674,0.49948524167029973,0.035300875441862445,0.35329163095957483,1.0010850015137294,4.943294478968255
8,26,female,341,45,95,change,valid,clock,1,0,3,0.18438130218146398,1,f,same,1.4307276405656921,0.0241465781132624,0.5003223253092983,0.035324288126048486,0.3532929138464169,1.0010487599615772,5.415813440035436
8,26,female,342,75,75,same,catch,anti,5,0,1,0.15397816783251983,0,j,change,0.6203851354471226,0,0.4990994134641369,0.0353595675132965,0.35329612106352215,1.0010651167681317,6.03832496035875
8,26,female,343,105,55,change,valid,anti,5,0,1,0.12753017349768925,0,j,change,1.7865237872870239,0.02195146471750406,0.5004272013056834,0.03533358905542627,0.3532637281718962,1.001104886259327,5.651076919326897
8,26,female,344,45,45,same,catch,anti,3,2,2,0.22935931350184546,1,f,same,1.5962591662264458,0,0.5000805011468401,0.035306327711168706,0.3533034976626368,1.0010307995462426,7.134873096837509
8,26,female,345,135,85,change,valid,anti,4,1,2,0.18370137217561933,1,f,same,1.7228813765887026,0.05344280580474828,0.49955195178381473,0.03530344121554663,0.3533317211722533,1.0010606266646391,5.6855028659692834
8,26,female,346,15,325,change,valid,anti,5,1,2,0.1705973249240742,1,j,change,1.0469831633936337,0.05191601552964978,0.500046183924951,0.03533358905542627,0.35330157333237366,1.0010420248058836,4.943765298425205
8,26,female,347,135,135,same,catch,clock,4,0,1,0.0932357227529792,0,j,change,1.4659890672387519,0,0.4999727386552877,0.03533839988131149,0.3532874615775654,1.0010567780041129,6.851470573142706
8,26,female,348,75,125,change,catch,clock,4,1,1,0.07272685287352942,0,j,change,0.7820962242071801,0,0.5007241896005326,0.03535026658391871,0.35327206693591506,1.001091736669423,6.110101194110939
8,26,female,349,75,125,change,valid,clock,2,2,3,0.25481659850265714,1,j,change,1.2611393061124545,0.12143745123201305,0.5003014783987965,0.03536758555583219,0.3533038183845747,1.0010612681080602,5.238401741134112
8,26,female,350,45,45,same,valid,anti,1,2,3,0.23545495014695916,1,f,same,1.25919477043999,0.12037588180928208,0.49980179398880864,0.03530119616380034,0.35334038065821005,1.0010606266646391,5.226222334546037
8,26,female,351,165,115,change,valid,anti,4,1,2,4.686477539217776,1,f,same,1.1411890692916131,0.05037304447213581,0.5026558964045762,0.03533968276769883,0.35331600580957456,1.0010465149098309,9.539827862248785
8,26,female,352,75,75,same,valid,anti,2,0,1,0.4663354466756573,0,j,change,1.300992826097172,0.02393687839189995,0.499900255551438,0.03532043946597696,0.35330445982799574,1.0010654374900696,5.5206265747428915
8,26,female,353,45,45,same,catch,clock,3,0,2,0.5264973854764321,1,f,same,2.6806182744658145,0,0.49988421946636663,0.03532396740411059,0.35334198426699004,1.0010497221264814,8.488478072898943
8,26,female,354,135,135,same,catch,anti,1,1,2,0.1009070651143702,1,j,change,0.8747148784077581,0,0.5005205313200349,0.03530600698923081,0.35332851395469334,1.0010484392396393,6.239793994036518
8,26,female,355,75,25,change,valid,anti,3,0,1,0.20751399629534717,0,j,change,0.9583241393111166,0.025859847068942593,0.5000157153626787,0.03532011874358432,0.3533281932332102,1.00107185192428,4.89652138828842
8,26,female,356,165,215,change,valid,clock,3,1,2,0.13615887013565953,1,j,change,0.8244549013970754,0.0488271180385145,0.4999076321500979,0.03529189523396781,0.353316967974024,1.00106864470672,4.661203386307534
8,26,female,357,75,75,same,catch,clock,2,1,2,0.19995907591146533,1,j,change,1.0196672961365039,0,0.49960326725613413,0.03534128637602407,0.3532544272420637,1.001080190688299,6.415320811503079
8,26,female,358,165,165,same,catch,clock,5,2,1,0.13132014183611318,0,j,change,0.6663747030115701,0,0.5003046856154469,0.03531434575415915,0.35334005993718165,1.001032723876051,6.0276449277225765
8,26,female,359,15,15,same,valid,clock,4,2,2,0.45496778671167704,1,f,same,1.9086164450691285,0.11930733566040969,0.5005712053489333,0.03533358905588102,0.35329034807273274,1.0010548536738497,6.122116391187774
8,26,female,360,105,155,change,catch,clock,4,2,2,0.08786587931626855,1,j,change,0.8935345070894982,0,0.5002075069405691,0.03532076018746011,0.353339739214789,1.001056457282175,6.204819292564935
8,26,female,361,135,185,change,valid,clock,2,0,2,0.2013407449976512,1,f,same,1.388340098423214,0.027919521287876642,0.49938613866470405,0.035355718852770224,0.3533041391056031,1.0010712104804043,5.35557773524306
8,26,female,362,15,65,change,catch,clock,2,0,1,0.08769268959804322,0,j,change,0.2632111682996765,0,0.49993136555622186,0.03533455122033047,0.353260520954791,1.0010731348102127,5.567600437208057
8,26,female,363,75,25,change,valid,anti,1,0,2,0.22571783931107348,1,f,same,0.9235607934397194,0.02583446544230983,0.5002084691050186,0.035317232248416985,0.3532929138464169,1.0010461941883477,4.908400920086024
8,26,female,364,75,75,same,valid,anti,3,2,3,0.25966302412325604,1,f,same,1.7023118903080103,0.1182786350568595,0.4999656827776562,0.035303761937029776,0.35328168858723075,1.0010965474948534,5.745227340370548
8,26,female,365,165,215,change,valid,clock,5,2,3,0.2003644681408332,1,j,change,1.1977284564818547,0.11728989049090985,0.4997559307857955,0.035327495343153714,0.35331793013847346,1.00103368604141,5.084892468428734
8,26,female,366,75,25,change,catch,anti,5,2,2,0.3794878587596031,1,f,same,1.0856387878266105,0,0.5001587572414792,0.035328457508512656,0.35329772467230214,1.0010769834716484,6.686758170705616
8,26,female,367,165,115,change,valid,anti,2,1,3,0.14545723368519248,1,f,same,1.483222085666057,0.047357155467251166,0.5008027664171095,0.03532332596114429,0.3533076670446462,1.0010641546032275,5.392055980048099
8,26,female,368,135,185,change,catch,clock,1,0,2,0.18793008779994125,1,j,change,0.9748682475255919,0,0.5002187321997553,0.035328457508512656,0.3533195337477082,1.0010538915084908,6.357737154454298
8,26,female,369,165,165,same,valid,anti,5,2,2,0.44594492310352507,1,f,same,4.27059674762495,0.11633345029679058,0.49961353035087086,0.03532525029095268,0.3533243445735934,1.0010785870799737,8.511720774556125
8,26,female,370,165,165,same,catch,clock,4,0,2,0.08734566871771676,1,j,change,1.2608038312127974,0,0.49988037080493086,0.035330702559804195,0.3533349283889038,1.0010641546032275,6.557245295653956
8,26,female,371,45,45,same,valid,clock,5,1,2,0.1517340780919767,1,f,same,0.9122332236893271,0.04594633083280644,0.5005493962735272,0.035330381838321046,0.35327751920431183,1.001070569037438,4.850086659003864
8,26,female,372,75,75,same,valid,clock,2,0,1,0.09139894957206707,0,j,change,0.6895744279609062,0.023822377813548373,0.49978383357301936,0.0353367962725315,0.35328970662976644,1.001058702334376,4.496240820944877
8,26,female,373,105,105,same,valid,anti,4,1,1,0.10941677400114713,0,j,change,0.2065720366599635,0.04457411838783881,0.4994374541365687,0.03535636029573652,0.35316045578383637,1.0011735207026504,4.0131351572554195
8,26,female,374,165,165,same,valid,clock,5,1,2,0.11837998337432509,1,j,change,0.8745833825105365,0.046897962864522774,0.5000724831043044,0.0353214016313359,0.35330798776703887,1.0010888501747104,4.696877581809531
8,26,female,375,15,15,same,valid,clock,3,1,1,0.18484442431781645,0,j,change,0.21073981516201457,0.045544235954199874,0.499852468017707,0.03533423049884732,0.3533034976626368,1.001037213980453,4.095622533650385
8,26,female,376,45,45,same,valid,anti,2,0,2,0.05101399372870219,1,f,same,1.2568352208872966,0.02565972966468938,0.5003508695399432,0.03533134400367999,0.3533022147757947,1.0010699275935622,5.073813778717522
8,26,female,377,15,65,change,catch,clock,3,0,1,0.10246192391969089,0,j,change,0.3074556890896929,0,0.5002373340585109,0.0352999132765035,0.35327367054378556,1.0010991132685376,5.662898721217971
8,26,female,378,75,25,change,valid,anti,5,1,2,0.20546009452300495,1,f,same,1.7206202885981838,0.04800003866464947,0.5001068003266482,0.03534449359267455,0.35332658962488495,1.0010599852203086,5.710135254756096
8,26,female,379,165,115,change,valid,anti,1,0,1,0.11939346394865424,0,j,change,0.21671325683928444,0.023693666471507085,0.4995602905473788,0.03532781606463686,0.3533108742612967,1.001056778003658,3.989724076706807
8,26,female,380,105,105,same,valid,anti,4,0,2,0.2330982870898879,1,f,same,1.021095149149005,0.02549271618815263,0.49942302165982255,0.03532011874358432,0.35329515889861796,1.0010494014049982,4.990242042253158
8,26,female,381,135,185,change,valid,clock,3,0,2,0.24021895029090956,1,f,same,1.1919926695845788,0.023570407465502347,0.4999730593772256,0.03534802153171768,0.3532935552902927,1.001025988721267,5.167421859364367
8,26,female,382,45,95,change,catch,clock,2,0,1,0.16404754635004792,0,j,change,0.26155271638526756,0,0.5004416337815201,0.0353374377154978,0.35329227240254113,1.0010503635703571,5.62687461834048
8,26,female,383,105,105,same,catch,clock,2,1,2,0.10375988464238617,1,f,same,1.3266014917408029,0,0.5007953898184496,0.03541697669697896,0.353306063436321,1.0010660789339454,6.700016164373665
8,26,female,384,75,75,same,valid,anti,1,2,1,0.25844877176405134,0,f,same,1.2619423932510472,0.11540232069214898,0.499966324221532,0.035286442965116294,0.35338079159191693,1.0010785870790642,5.286031479476151
8,26,female,385,165,165,same,valid,clock,2,0,1,0.3602686108388298,0,j,change,2.688716176689013,0.02160274213037988,0.4990048005620338,0.03532685389927792,0.3533015733319189,1.0010635131593517,6.756281334510277
8,26,female,386,15,65,change,valid,clock,1,2,2,0.14527313942926412,1,f,same,1.0471194701167406,0.1190541220028275,0.49984797791330493,0.03530664843219711,0.3533249860165597,1.001056457282175,4.908132155301246
8,26,female,387,105,155,change,catch,clock,5,1,1,0.158738960759365,0,j,change,1.3227884314392213,0,0.5002976297382702,0.03530312049406348,0.3533275517902439,1.0010753798624137,6.686670613682509
8,26,female,388,75,125,change,catch,clock,2,1,2,0.08430811348898715,1,j,change,1.276080767987878,0,0.500428484191616,0.035357001739612315,0.35328970662976644,1.0010888501747104,6.61658843195346
8,26,female,389,135,135,same,catch,anti,2,1,2,0.5815492654191985,1,j,change,0.8203968097168399,0,0.5001221949678438,0.03534128637693357,0.35327495343153714,1.001058702334376,6.604632247669542
8,26,female,390,165,165,same,valid,anti,2,2,3,0.3009504908322924,1,f,same,1.3228724605251045,0.11809048624066505,0.49980852914541174,0.03533358905588102,0.3532887444644075,1.0010763420277726,5.403466295998442
8,26,female,391,135,135,same,valid,clock,5,0,1,0.1943291271754788,0,j,change,1.7044488589999673,0.02339431338800249,0.4991959506960484,0.03532845750760316,0.3532861786907233,1.0010981511040882,5.567285488496964
8,26,female,392,45,355,change,valid,anti,1,2,3,0.19022068218782806,1,j,change,0.979299659265962,0.11716242734262654,0.5000712002174623,0.03532011874358432,0.35330702560077043,1.0010606266641844,4.849644383778468
8,26,female,393,75,75,same,valid,anti,5,0,2,0.2896132994310392,1,f,same,1.2940020551850466,0.025123179545683494,0.4999858882456465,0.03533455122123996,0.3532948381771348,1.0010551743953329,5.344515081616919
8,26,female,394,45,45,same,valid,anti,2,1,2,0.3260806396983753,1,f,same,1.1764209895682143,0.04665164715123732,0.49971327479943284,0.03530889348439814,0.35333140045077016,1.0010724933672464,5.2145634592789065
8,26,female,395,15,65,change,valid,clock,3,2,2,0.20456367736915126,1,f,same,1.4052174364842358,0.11626322203139845,0.50009108496306,0.03535443596592813,0.3531822648592424,1.001145297193034,5.356791346159298
8,26,female,396,75,75,same,valid,clock,1,1,2,0.1871164168460382,1,f,same,1.1299564331638976,0.04534790869932703,0.4993476520612603,0.03536213328698068,0.3532961210639769,1.0010625509949023,5.072563926250041
8,26,female,397,45,45,same,valid,anti,5,0,2,0.2161779723210202,1,f,same,0.8033174169850099,0.0232820457124501,0.50035696325358,0.03530761059755605,0.35334871942177415,1.0010843600703083,4.767732702836838
8,26,female,398,165,215,change,valid,clock,4,0,1,0.24968376840297424,0,j,change,0.31891122679826367,0.021389140517331845,0.5001180255858344,0.03534994586243556,0.35331536436569877,1.0010542122308834,4.296842045845551
8,26,female,399,105,105,same,valid,clock,5,0,1,0.38147023959209037,0,j,change,2.225338104817638,0.02311838420105447,0.49955515900091996,0.03533775843789044,0.3533073463231631,1.0010724933672464,6.297777270325241
8,26,female,400,105,155,change,valid,clock,4,1,2,0.1895183016631563,1,j,change,1.5777814268785733,0.04407148187824306,0.4999926234013401,0.035337116994924145,0.35327431198766135,1.001069606872079,5.462569853186324
8,26,female,401,105,105,same,catch,clock,5,0,2,0.4035371754944208,1,f,same,1.0557109630371997,0,0.5106229441735195,0.03533615482865571,0.3533115157051725,1.0010548536738497,6.697148591647419
8,26,female,402,15,15,same,catch,anti,3,0,2,0.1893861643220589,1,j,change,1.0832744274475772,0,0.5004518968771663,0.03530761059755605,0.35332851395469334,1.0010615888295433,6.510658544282705
8,26,female,403,75,75,same,valid,clock,1,0,2,0.29735135190639994,1,j,change,1.7060242439947615,0.02478339939371263,0.4997815885217278,0.03535443596592813,0.3532698218841688,1.0010689654291127,5.75639390782726
8,26,female,404,105,155,change,valid,clock,1,2,3,0.19098079261857492,1,j,change,1.1631944266264327,0.11538669874700587,0.4996109645771867,0.03536373689530592,0.3532704633271351,1.0010449113005961,5.026335741739786
8,26,female,405,135,85,change,valid,anti,5,1,2,0.21539701497840724,1,j,change,1.6155922703510441,0.042742408251193714,0.4997665146011059,0.03532813678612001,0.353316967974024,1.0010692861496864,5.485738788852359
8,26,female,406,75,75,same,valid,anti,3,1,2,1.2326617848548267,1,f,same,2.043151180512723,0.041406208591561494,0.4996982008797204,0.03530889348439814,0.35333075900689437,1.0010423455278215,6.9807358510415725
8,26,female,407,135,135,same,valid,anti,3,1,2,0.14791781057374465,1,j,change,1.0306276395394889,0.040045476207666686,0.5005121925560161,0.03529638533746038,0.3533237031297176,1.0010898123400693,4.850764664678536
8,26,female,408,15,15,same,valid,anti,3,2,2,0.1036501978214801,1,j,change,1.0436646559546716,0.11452713858157976,0.49958049601536914,0.03532460884798638,0.35331119498368935,1.0010734555326053,4.80174780498055
8,26,female,409,75,75,same,valid,anti,2,2,3,0.3478018376072214,1,f,same,1.6128103303180978,0.11360828650761622,0.5001914708554978,0.03531883585765172,0.353294196733259,1.0010901330615525,5.662459653210135
8,26,female,410,45,95,change,catch,clock,1,2,3,0.21537039507802547,1,j,change,1.458602846469148,0,0.5001568329116708,0.0353448143150672,0.3532868201345991,1.0010407419194962,6.910761752526014
8,26,female,411,105,105,same,valid,clock,4,1,1,0.0941234804204214,0,j,change,0.43263785901581286,0.03869235941422905,0.5006048811283108,0.03530985564975708,0.35328970662885695,1.0010981511031787,4.250079859703874
8,26,female,412,165,215,change,valid,clock,3,2,1,0.18108075515829114,0,j,change,0.5084628835193143,0.11269529463750437,0.49915553976188676,0.035330061116837896,0.35335000230952573,1.0010410626409794,4.366267710252032
8,26,female,413,105,155,change,catch,clock,5,1,2,0.35338752674852003,1,f,same,1.228180340529434,0,0.499341558348533,0.035270727602437546,0.3533512851963678,1.0010532500655245,6.780252074428063
8,26,female,414,45,95,change,valid,clock,3,0,2,0.4398656432649659,1,j,change,4.070650179861332,0.022960864174789264,0.5007100778448148,0.03525052213444724,0.3533471158143584,1.0010846807917915,8.230214998999145
8,26,female,415,135,85,change,valid,anti,3,0,2,0.22790131264991942,1,f,same,1.7550343685370535,0.021134518724094664,0.500246314265496,0.035269765437078604,0.35336603839368763,1.0010401004756204,5.7566190544612255
8,26,female,416,105,55,change,valid,anti,5,2,2,0.2401044526432088,1,f,same,1.2808229590546034,0.11582688524827665,0.4996205862280476,0.03532653317779477,0.35330638415780413,1.001037213980453,5.238061776131872
8,26,female,417,75,75,same,valid,clock,5,2,2,0.22747058340610238,1,f,same,0.8438800526500927,0.11500252504654995,0.5001353445577479,0.03530889348439814,0.3533317211722533,1.0011071313110733,4.837858823439092
8,26,female,418,75,75,same,catch,anti,2,1,2,0.13859892083564773,1,j,change,1.1260330445984437,0,0.5003762065553019,0.03533872060233989,0.3532861786907233,1.0010673618207875,6.474890056600998
8,26,female,419,105,105,same,catch,clock,3,0,2,0.11830268944322597,1,j,change,1.1742910767525245,0,0.5006696669106532,0.03538714957994671,0.3532807264218718,1.001092378112844,6.522959504395658
8,26,female,420,15,65,change,catch,clock,5,0,1,0.21902598102406046,0,j,change,2.6447542117175544,0,0.5000984615626294,0.03531498719712545,0.35331664725254086,1.0010898123391598,8.030026927794097
8,26,female,421,135,185,change,valid,clock,2,2,2,0.14331801994194393,1,j,change,1.0471130556816206,0.11419143638389077,0.4993476520603508,0.03535187019224395,0.3533022147757947,1.0010436284146635,4.872332878336238
8,26,female,422,165,165,same,valid,anti,5,1,1,0.12886341360808728,0,j,change,0.31979000425872073,0.041036310232183015,0.49962283128024865,0.03525821945640928,0.35333460766833014,1.0011218845093026,4.118940925627612
8,26,female,423,15,15,same,valid,anti,4,1,2,0.5368284729029256,1,f,same,2.6653134349044194,0.043218191386361016,0.4997793434695268,0.03532011874358432,0.35329580034158425,1.0010686447076296,6.98128845453175
8,26,female,424,45,355,change,valid,anti,5,0,2,0.19470020218250284,1,f,same,2.623351169736452,0.019287528379413416,0.4999724179333498,0.035316911526933836,0.35330125261134526,1.0010734555326053,6.521772513380711
8,26,female,425,45,45,same,valid,clock,1,1,2,0.31843238930014195,1,f,same,0.7956370944148148,0.04195945250539468,0.5004884591508016,0.03529830966817826,0.35333268333670276,1.0010776249146147,4.861865484187547
8,26,female,426,15,325,change,valid,anti,5,2,2,0.16374125712627574,1,j,change,1.0440559364305955,0.11332148317492986,0.5003685092342494,0.035348662974683975,0.35329644178455055,1.001049080683515,4.8738890200284
8,26,female,427,75,25,change,valid,anti,5,2,2,0.21010189969911153,1,f,same,3.0376941007734786,0.11245466552273928,0.49971455768627493,0.03533775843789044,0.3532961210639769,1.0010846807917915,6.969673518137824
8,26,female,428,105,105,same,catch,clock,4,0,1,0.2454431860751356,0,j,change,0.6845945821123678,0,0.4998229616212484,0.03533294761291472,0.3533237031297176,1.0010740969755716,6.144873199468748
8,26,female,429,135,135,same,valid,anti,5,1,2,0.3386615898562013,1,j,change,1.4652000918549675,0.04068337423240426,0.5003957705785069,0.03535764318348811,0.3532874615775654,1.001055495116816,5.6038939463142015
8,26,female,430,45,95,change,valid,clock,5,0,2,0.8215244672173867,1,j,change,1.857731702185447,0.01753794775576767,0.5000388073258364,0.035343852149708255,0.3532550686859395,1.0010856429571504,6.439758201495351
8,26,female,431,15,325,change,valid,anti,3,0,1,0.2578907160050221,0,j,change,0.3242178880609572,0.01587483641309409,0.4999624755610057,0.035303761937029776,0.3533362112757459,1.0010417040848552,4.2846642428658015
8,26,female,432,75,25,change,valid,anti,4,0,2,0.2552489313557089,1,f,same,1.301880263043131,0.017486124680928472,0.49929216720647673,0.03534802153262717,0.3533217787999092,1.0010689654282032,5.296282386477287
8,26,female,433,75,25,change,catch,anti,5,2,2,0.15764754481097043,1,j,change,1.0431175047333454,0,0.5005481133866851,0.03526559605506918,0.3533583410735446,1.0010603059436107,6.416941738978494
8,26,female,434,45,355,change,valid,anti,3,1,2,0.12121003166157607,1,f,same,1.6175412961265465,0.03938354657736176,0.5000570884621993,0.0353595675132965,0.35330862921000517,1.0010625509949023,5.498063482370526
8,26,female,435,75,75,same,valid,clock,1,2,2,0.5257135416395613,1,f,same,2.280724818215276,0.11158551837949744,0.49961000241182774,0.035315949361574894,0.35331055353981355,1.0010461941874382,6.556832847546502
8,26,female,436,75,75,same,valid,clock,4,1,1,0.16287659142108168,0,j,change,0.18787652727678505,0.03813377741855173,0.5004005814043921,0.03533423049884732,0.35332338240823447,1.0010567780045676,3.98983665002379
8,26,female,437,15,15,same,valid,anti,1,2,2,0.14881230339778995,1,f,same,0.804156104231879,0.11070870106988305,0.500439388729319,0.03529221595636045,0.35333813560646377,1.0010702483150453,4.70850246057671
8,26,female,438,105,105,same,valid,clock,1,2,1,0.14835559569564793,0,j,change,0.42773691070578934,0.10981751019094939,0.5000561262968404,0.03526623749803548,0.3533403806577553,1.0010843600703083,4.284343521165283
8,26,female,439,105,155,change,catch,clock,2,1,1,0.16951905856694793,0,j,change,0.27998491325070063,0,0.500240861997554,0.03533455122033047,0.35331183642665565,1.0010436284146635,5.709846284503328
8,26,female,440,15,15,same,valid,anti,2,2,3,0.41162385245752375,1,f,same,0.776808485526999,0.1129325983748237,0.500261388186118,0.0353589260703302,0.3534609720181834,1.0009060388047146,4.9440497785735715
8,26,female,441,105,155,change,valid,clock,4,0,1,0.1771131069981493,0,j,change,0.9167762465813212,0.01585494964308279,0.500298271182146,0.035329419672962104,0.35330061116656,1.0010522879001655,4.837754588886128
8,26,female,442,105,105,same,valid,anti,3,1,2,0.3162704043143094,1,f,same,3.241693949393266,0.040345671876074185,0.5000112252591862,0.035331023281287344,0.3532727083793361,1.0010952646089208,7.370278976564805
8,26,female,443,45,95,change,valid,clock,4,1,2,0.17941075726230338,1,j,change,1.8547903634671457,0.03908328590366833,0.49934733133886766,0.035354115244444984,0.3533201751906745,1.0010522879001655,5.74424785629617
8,26,female,444,165,165,same,valid,clock,3,2,2,0.16395068839665328,1,j,change,0.924547012669791,0.11210552084589602,0.4995869104495796,0.03533423049884732,0.35329580034158425,1.0011000754338966,4.767354571951728
8,26,female,445,15,325,change,valid,anti,3,1,1,0.26772596768114454,0,j,change,0.06003621589479735,0.03787971003690721,0.4997078225305813,0.03533711699401465,0.35328778229904856,1.001092378112844,4.012820208545236
8,26,female,446,105,55,change,valid,anti,2,0,1,0.2211940597217108,0,j,change,0.8347677076862965,0.017436198157926575,0.5004300878008507,0.03532492956946953,0.3533224202428755,1.0010593437773423,4.814626064154254
8,26,female,447,75,25,change,valid,anti,5,0,2,0.6594692440721701,1,f,same,0.9395324134184193,0.019036103356816214,0.5003043648939638,0.035312742144924414,0.35330574271392834,1.0010702483159548,5.367773819360082
8,26,female,448,105,155,change,valid,clock,3,1,2,0.1746227029916554,1,j,change,1.0515152817470153,0.040021680631594975,0.5006420848449125,0.035299592555020354,0.3533362112766554,1.0010394590326541,4.932850497502841
8,26,female,449,45,355,change,valid,anti,4,1,2,0.16406903470397083,1,j,change,0.9436091069565009,0.03880117418483364,0.4999377799904323,0.03533166472516314,0.3533144022003398,1.0010166877909796,4.8026397320309115
8,26,female,450,15,15,same,valid,clock,3,2,1,0.42755313717134413,0,j,change,0.44604210177931236,0.1112736553164427,0.4999336106084229,0.03534288998525881,0.3533002904459863,1.0010631924378686,4.590669628424621
8,26,female,451,15,15,same,catch,anti,4,0,2,1.444316619028541,1,j,change,1.3618799166633835,0,0.5086168299349083,0.03532364668262744,0.35330798776612937,1.0010612681071507,8.026397961749353
8,26,female,452,135,135,same,valid,clock,4,2,3,0.5422579705755197,1,f,same,1.3169249973061596,0.11415922046551166,0.4998114156396696,0.03536405761678907,0.35330862920909567,1.0010138012958123,5.591461169582544
8,26,female,453,105,105,same,valid,clock,5,1,2,0.31556513729447033,1,j,change,1.045356462926975,0.03764051171595592,0.499662600771444,0.03532621245631162,0.35327623631837923,1.0011003961553797,5.06125239258381
8,26,female,454,45,95,change,valid,clock,5,1,2,0.18164330102172244,1,j,change,2.3837646826386845,0.03652551966043596,0.5002806314878399,0.03530632771071396,0.35329708322842635,1.001068323985237,6.2628400932908335
8,26,female,455,15,15,same,valid,anti,2,0,2,0.1882229067141452,1,j,change,1.1911170993416818,0.017388066837252913,0.5005638287502734,0.03532621245631162,0.353260520954791,1.0011096970847575,5.073798384076326
8,26,female,456,165,215,change,valid,clock,2,2,2,0.1540211445408204,1,j,change,0.902747879387789,0.11336728364879177,0.5004506139903242,0.03533230616903893,0.35327495343153714,1.0010506842918403,4.72084222801459
8,26,female,457,45,355,change,valid,anti,1,1,2,0.19072613958815055,1,j,change,5.828620755569318,0.03544319182387212,0.4999698521605751,0.03531145925808232,0.35333877704943006,1.0010551743962424,9.69005454834678
8,26,female,458,165,215,change,valid,clock,1,1,2,0.18359200607574166,1,j,change,0.8874776777702209,0.03438152897597521,0.49974085686608305,0.03531498719712545,0.35331728869641665,1.0010824357405,4.6962473636676805
8,26,female,459,15,325,change,valid,anti,1,0,2,0.22813864670843031,1,f,same,1.0463256839075257,0.015817320298118553,0.5002155249831048,0.03530568626774766,0.35330574271483783,1.0010817942966241,5.002743453428593
8,26,female,460,135,185,change,catch,clock,3,2,3,0.25139578084235836,1,j,change,1.1432230863174482,0,0.5005439440046757,0.035318835856742226,0.3533095913753641,1.0010866051225094,6.616970411499096
8,26,female,461,45,45,same,catch,anti,4,2,3,0.2065653015033604,1,f,same,1.2676441836483718,0,0.5002921774694187,0.03531819441377593,0.3532996490021105,1.0010901330615525,6.687122831280249
8,26,female,462,105,105,same,valid,clock,4,2,2,0.2144848824618748,1,j,change,1.1909362123024039,0.112577548121968,0.4999409872070828,0.03532460884707689,0.3533368527196217,1.0010301581032763,5.120478786183412
8,26,female,463,135,135,same,catch,anti,2,2,2,0.431091338974511,1,j,change,1.0758894895652702,0,0.49968922067182575,0.035354115244444984,0.3532848958038812,1.0010744176979642,6.71033795087078
8,26,female,464,45,95,change,valid,clock,2,0,1,0.17768623667689099,0,j,change,1.514704769259879,0.014292525322149363,0.5003213631443941,0.03530312049406348,0.35337341499325703,1.001000330984425,5.4041189646586645
8,26,female,465,75,75,same,valid,anti,4,0,2,0.1250724831043044,1,j,change,1.000498080800753,0.015685006755330855,0.4991221847049019,0.035330381838321046,0.35330317694024416,1.0010850015132746,4.79028489067241
8,26,female,466,15,325,change,catch,anti,5,2,2,0.22803248782565788,1,f,same,1.5261628727430434,0,0.499202685851742,0.03533839988085674,0.353314722921823,1.0010657582115527,7.0162647596134775
8,26,female,467,165,165,same,valid,clock,4,2,3,0.9102328824419601,1,f,same,0.9459840511508446,0.11178545647836416,0.4999698521596656,0.035335192663296766,0.3533140814788567,1.0010429869707878,5.638980579659801
8,26,female,468,165,165,same,valid,clock,1,0,1,0.15338515340772574,0,j,change,0.39787162664924836,0.014187455425725526,0.49988486090933293,0.03532525029095268,0.35332787251172704,1.0010465149098309,4.30771803944026
8,26,female,469,75,75,same,valid,clock,4,0,2,1.1830294602132199,1,f,same,1.0477339728950028,0.015557241382409992,0.49972129284196853,0.03532653317870427,0.3532948381771348,1.0010628717163854,5.933265190662496
8,26,female,470,45,95,change,valid,clock,3,2,2,0.12217155532107427,1,j,change,1.2162241562455165,0.11098654333706487,0.4995253318829782,0.03531594936248439,0.35329836611526844,1.001103282650547,5.002531135662139
8,26,female,471,75,125,change,valid,clock,1,1,1,0.17150272228536778,0,j,change,1.445559736341238,0.033276456894784784,0.4996699773701039,0.03533166472516314,0.353269180440293,1.0010920573904514,5.32049110189746
8,26,female,472,15,65,change,catch,clock,4,0,2,0.479001388083816,1,f,same,1.1694937215515893,0,0.49961000241182774,0.03533390977736417,0.3532476920863701,1.0011013583207387,6.851350943948091
8,26,female,473,135,185,change,valid,clock,1,2,2,0.2572669122964726,1,j,change,1.2882380447781543,0.11017638403424235,0.5004371436780275,0.03534449359358405,0.35331055353981355,1.0010375347019362,5.226988217968028
8,26,female,474,165,215,change,valid,clock,5,1,2,0.5649188830675484,1,f,same,1.1286450021298151,0.03509003506095709,0.4996077573596267,0.035330381838321046,0.35332947612096177,1.0010529293440413,5.4382148886716095
8,26,female,475,135,135,same,valid,anti,3,2,2,0.22955238796566846,1,f,same,0.919967106781769,0.10935813098247141,0.49948812816546706,0.035340644933057774,0.35326501105828356,1.0010712104804043,4.920168199289037
8,26,female,476,45,45,same,valid,anti,5,1,1,0.20543347462171369,0,j,change,0.38340868155137287,0.03405827171204781,0.49972995232747053,0.03533936204530619,0.3533095913744546,1.0010484392396393,4.2606675244906
8,26,female,477,15,65,change,valid,clock,1,1,2,0.2063494557987724,1,j,change,0.9718781591091101,0.03582195009106398,0.5001087246564566,0.03533968276769883,0.3532935552902927,1.0010439491361467,4.87381268826357
8,26,female,478,165,115,change,valid,anti,2,0,2,0.17410634105272038,1,j,change,1.1559801126886668,0.014085854099849748,0.49970269098321296,0.03532076018746011,0.3533195337467987,1.0010663996554285,5.014806117317676
8,26,female,479,135,185,change,valid,clock,5,1,2,0.23504731286539027,1,f,same,1.7402513431825355,0.03480496851712364,0.4997264243893369,0.03531755297080963,0.35330862920909567,1.0010766627492558,5.720905410190426
8,26,female,480,15,15,same,valid,anti,4,2,2,0.15697851934328355,1,f,same,1.0347040123569968,0.10856984678223773,0.5002174493129132,0.03534128637602407,0.3532781606481876,1.0010628717163854,4.932807520794995
