subject,age,gender,ntrial,memory_ori,test_ori,type,trial_type,which_change,trial,quest,pas,pas_rt,vis,test_key,test,test_rt,contrast,fix_dur,target_dur,mask_dur,retention_dur,trial_dur
9,20,female,1,105,105,same,valid,anti,4,1,1,3.934037911627456,0,j,change,1.528001711360048,0.2,0.504447098577657,0.03532566514058999,0.353296420640163,1.0010583748239696,9.258724215744678
9,20,female,2,165,165,same,valid,clock,3,1,1,1.5003345105883454,0,j,change,1.1960703504951198,0.33948538693435915,0.4995272592454967,0.035340418243777094,0.35326595227434154,1.001098144059597,6.474104775259093
9,20,female,3,45,355,change,valid,anti,4,1,1,1.5233304297516952,0,j,change,1.6232156762630439,0.43994886294822894,0.499960872203701,0.035290065260142,0.35336762040105896,1.0010583748239696,7.040282066512191
9,20,female,4,75,25,change,valid,anti,4,0,1,1.3603586671920311,0,f,same,1.363952651517593,0.2,0.5000519565819559,0.03532438226193335,0.3532768567424682,1.0010256614200443,6.569740807212838
9,20,female,5,165,165,same,catch,anti,1,1,1,1.1778095361491978,0,j,change,1.412698188703871,0,0.49965811285983364,0.03536607581554563,0.35329545848162525,1.0010455460383128,7.922968914569083
9,20,female,6,135,135,same,valid,anti,2,1,2,2.2191419594946638,1,j,change,3.507883930277785,0.5219745890327315,0.5006722283728777,0.03529070669901557,0.3533275304462222,1.0010862774324778,9.467136499562912
9,20,female,7,165,115,change,catch,anti,4,2,1,2.167842211066727,0,j,change,2.730030070673365,0,0.5000176395801645,0.03532342010294087,0.3533111737442596,1.0010968611809403,10.231942842627632
9,20,female,8,165,215,change,valid,clock,1,0,1,1.8103373072635804,0,f,same,1.7099841307917814,0.3150270229513009,0.5004512525388236,0.035337531767254404,0.3532473505347298,1.0010904467881119,7.394164441941484
9,20,female,9,135,135,same,valid,clock,5,2,1,2.003028876314147,0,j,change,1.6025013566440975,0.2,0.49994291190341755,0.03532470298159751,0.35332304037046924,1.001064789216798,7.34679479202623
9,20,female,10,165,165,same,valid,anti,5,1,1,1.6710372201559949,0,f,same,3.5704024518372535,0.47956959569945107,0.4992331593325616,0.03538371539571017,0.35330540079075945,1.0010654306556717,8.982399226681082
9,20,female,11,15,15,same,valid,anti,4,1,1,2.0958130691974475,0,j,change,2.989857241272148,0.5308293844487841,0.5000291854876195,0.035322137224284234,0.35328102609764755,1.0010827495166268,8.877410368481378
9,20,female,12,15,15,same,valid,anti,1,2,1,1.9423981105765051,0,j,change,1.4041551795580745,0.3670372117912738,0.5002405397326584,0.035314119233589736,0.35332111605293903,1.0010622234594848,7.134791410358048
9,20,female,13,105,105,same,catch,clock,2,0,1,6.9508580533342865,0,f,same,1.739717086788005,0,0.5000788970323811,0.03531476067246331,0.35329225128498365,1.0010827495166268,13.942109142177287
9,20,female,14,105,105,same,valid,anti,2,2,1,1.5761410884197176,0,j,change,2.4616300640032023,0.4895303947352734,0.4997331612562448,0.03535677494619449,0.3533220782119315,1.0010609405808282,7.970741067637391
9,20,female,15,15,65,change,valid,clock,2,2,1,2.468087754026328,0,j,change,2.9774543712160266,0.5890718826496524,0.49940827225782414,0.03534619119773197,0.35331790885629744,1.0010352830095144,9.242512158481532
9,20,female,16,75,75,same,catch,clock,1,2,1,3.838606178086593,0,j,change,1.4186590839990458,0,0.49915907309423346,0.03535901998338886,0.35329706207994604,1.0010894846291194,10.513475035824285
9,20,female,17,45,45,same,valid,anti,1,2,2,3.5048829565730557,1,j,change,2.1668104559735184,0.6758845662617424,0.5003649789541669,0.0352801229510078,0.3533519051388794,1.0010638270578056,9.442871492770337
9,20,female,18,135,135,same,valid,clock,3,1,1,2.5910487788919454,0,f,same,1.7046191325948712,0.577368190467487,0.5005631836943394,0.03529423461577608,0.3533070043886255,1.001083070236291,8.006955767629734
9,20,female,19,135,135,same,valid,anti,4,1,1,2.7433315971711636,0,j,change,0.9500427840007433,0.6220459593146785,0.4991674118055016,0.035371207329717436,0.3532816675369759,1.0010821080772985,7.44031247073417
9,20,female,20,15,15,same,valid,anti,4,2,1,2.868318928744884,0,j,change,0.7420618681021551,0.651215509254541,0.4998729950211782,0.03531540211179163,0.3533304169227449,1.001070241450634,7.263994601647028
9,20,female,21,75,125,change,valid,clock,2,0,1,3.7801832463756,0,j,change,0.4922555827670294,0.3996559747928428,0.49981879340111846,0.03532951377655991,0.35327236666717,1.0010933332646346,7.970633626556264
9,20,female,22,165,165,same,valid,clock,3,0,1,2.948897173433579,0,j,change,0.7845822370063615,0.46690619962159796,0.4997620260246549,0.035332400253082596,0.3532781396206701,1.001079221600321,7.4406149093583736
9,20,female,23,45,45,same,valid,clock,4,1,1,3.1463026798051033,0,j,change,1.133550866776659,0.6632309782364425,0.5000397692356273,0.03529583821364213,0.35334805650290946,1.001061261300947,8.099943938206707
9,20,female,24,135,185,change,valid,clock,4,2,1,2.0974099323025257,0,f,same,2.4909345385549386,0.7114586072288558,0.500637269931758,0.03529647965297045,0.35332785116543164,1.0010574126649772,8.336017970563262
9,20,female,25,45,355,change,valid,anti,5,0,1,2.8086150427775465,0,j,change,5.174261094013218,0.5261480498876727,0.5005343189259293,0.03532694801924663,0.35333105836207324,1.0010429802805447,11.65807469432184
9,20,female,26,75,75,same,valid,clock,3,0,1,3.1718662804346422,0,j,change,0.6385880894986258,0.5793366454280041,0.49940057498633905,0.03531411923313499,0.353323040370924,1.0010452253186486,7.5696535714700985
9,20,female,27,45,355,change,catch,anti,1,0,1,2.2057666674791108,0,j,change,0.5634806804901018,0,0.5001504175129412,0.03535388846876231,0.353263386517483,1.001073448646821,8.017947150533928
9,20,female,28,15,15,same,catch,clock,2,1,1,1.8450539258005847,0,j,change,0.6598450667547695,0,0.5002071848894047,0.03530770484076129,0.353311494463469,1.0010593369829621,7.687902583332743
9,20,female,29,75,75,same,valid,clock,5,2,1,1.4680040461989847,0,f,same,0.44309599652069664,0.7663769332055907,0.5005384882815633,0.03528749950282872,0.35330443863176697,1.0010933332650893,5.591843842888466
9,20,female,30,105,55,change,valid,anti,1,1,1,1.5070244016333163,0,j,change,0.6041880212496835,0.7023484232001032,0.49999903784146227,0.0352769157543662,0.35331726741742386,1.001088522470127,5.768296093506251
9,20,female,31,75,25,change,valid,anti,1,1,1,1.1642443781051952,0,j,change,1.0267736758446517,0.7401861610409943,0.49951635477737,0.03536318933856819,0.3532755738638116,1.001057091945313,5.862196711469096
9,20,female,32,75,75,same,valid,anti,3,1,1,1.2164835143689743,0,j,change,2.2823221256785473,0.777261681959426,0.49994066686576843,0.035368962292523065,0.35329321344397613,1.0009085987503568,7.181792874122493
9,20,female,33,15,15,same,valid,clock,1,0,1,1.4865442073546546,0,j,change,1.404825483613422,0.6269063766957922,0.4999105192191564,0.03534394616008285,0.3532973827996102,1.0010567712256488,6.580847969908973
9,20,female,34,75,75,same,valid,anti,4,0,1,1.4043559500546507,0,f,same,1.0635419379423183,0.6716318026819171,0.5002123164040313,0.03533175881375428,0.3532624243580358,1.0011080863687312,6.180861183558136
9,20,female,35,75,125,change,valid,clock,5,0,1,1.364006853137198,0,f,same,1.8166622193543844,0.7121782405476902,0.5000327134034706,0.035335286729605286,0.3532662729940057,1.0010513189918129,6.863848738352772
9,20,female,36,15,325,change,valid,anti,1,0,1,1.1737142670208414,0,j,change,1.7793917102949308,0.7502722747458377,0.5000041693556341,0.03531443995279915,0.353287440490476,1.0010920503864327,6.67488329012167
9,20,female,37,105,155,change,valid,clock,4,2,1,1.3269412839304096,0,f,same,1.7496141742685722,0.8196068439220769,0.5003816563757937,0.03526857704400754,0.3533307376424091,1.0010975026202686,6.875755134400606
9,20,female,38,135,85,change,catch,anti,1,2,1,1.6077974001182156,0,j,change,1.3516690891688086,0,0.5000375241979782,0.0353112327566123,0.3532752531441474,1.001086598152142,8.264770743184727
9,20,female,39,135,135,same,valid,anti,4,0,1,1.3842516391982826,0,j,change,0.9907802724064823,0.7869214580172195,0.5008620944017821,0.03529583821364213,0.35333105836207324,1.0010718450489549,6.099142139097239
9,20,female,40,105,55,change,valid,anti,3,0,1,2.4593311455978437,0,f,same,1.8298335336762648,0.8226559822230832,0.49938133180739896,0.03529583821364213,0.35335896097103614,1.001023095662731,8.02935546897561
9,20,female,41,135,135,same,catch,anti,4,0,1,1.5496233468506944,0,j,change,2.893468480314823,0,0.4990872318944639,0.035351964151232096,0.3533066836694161,1.0010468289165146,9.736294687471855
9,20,female,42,15,65,change,valid,clock,4,1,1,1.5469094172267432,0,j,change,0.9338050691667377,0.813834314085742,0.500534318926384,0.03531187419594062,0.35333843491389416,1.0010282271773576,6.169128296837698
9,20,female,43,165,165,same,valid,anti,2,1,1,1.923470199372332,0,f,same,0.9722189437547968,0.8477291541363177,0.499719049592386,0.03531315707459726,0.35329513776150634,1.0010878810307986,6.663234752667449
9,20,female,44,135,135,same,catch,anti,1,1,1,1.4278637377692576,0,j,change,0.7437196679397857,0,0.5000904429393813,0.035351322711903777,0.3533002692761329,1.0010705621702982,7.4169977562451095
9,20,female,45,165,165,same,valid,clock,1,2,1,1.8676906389632677,0,j,change,1.752162291836612,0.8693706839187043,0.5005811439941681,0.03530898771896318,0.35332432324958063,1.0010378487668277,7.382034504302283
9,20,female,46,15,15,same,valid,anti,4,0,1,1.2621254475639034,0,j,change,1.4343294457835327,0.8555383277756634,0.49991212281793196,0.03533721104804499,0.3532919305653195,1.0010667135343283,6.357202785899062
9,20,female,47,165,165,same,valid,anti,3,1,2,1.9355542741022873,1,f,same,4.506820744659763,0.882058954769668,0.49974149996751294,0.03535068127257546,0.3533121359027973,1.0010619027398207,10.160662901845626
9,20,female,48,75,25,change,valid,anti,3,2,2,1.4770480194279116,1,j,change,5.588149473314388,0.9172016729517056,0.5006266861832955,0.03529070669947032,0.35331694669730496,1.0010753729652606,10.762091451282231
9,20,female,49,135,185,change,catch,clock,4,2,1,1.3127404595529697,0,j,change,2.8427633461064943,0,0.5003694690290104,0.035318288588769065,0.35331502237977475,1.0010449045989844,9.384743302411607
9,20,female,50,135,85,change,valid,anti,2,2,2,2.234672487514672,1,f,same,2.7046043794912293,0.9036046433641443,0.49940506506118254,0.035333041692410916,0.3532996278368046,1.0010718450489549,8.676604592448712
9,20,female,51,135,135,same,valid,anti,1,1,2,3.7801242339614873,1,f,same,2.2488264868243277,0.8628967470552913,0.5096129298763117,0.035329834496224066,0.35330924942581987,1.0010577333846413,9.746654252678582
9,20,female,52,105,105,same,valid,anti,3,0,2,3.175305998611748,1,j,change,2.5314173755641605,0.8887039530740575,0.49976010170666996,0.035352284870896256,0.3532919305653195,1.001049715393492,9.383350416999292
9,20,female,53,135,85,change,valid,anti,2,0,1,0.827641094192586,0,f,same,2.6001604239659173,0.8581017008287286,0.5000057729535001,0.03525638969722422,0.35337788343031207,1.0010452253186486,7.170284170433206
9,20,female,54,45,45,same,valid,clock,2,0,2,1.316573059293205,1,j,change,1.4337736386410143,0.8821077793398129,0.49972386038689365,0.035305780522321584,0.35330540079075945,1.001034320850522,6.43888077824522
9,20,female,55,105,55,change,valid,anti,5,0,2,3.1446852906424283,1,j,change,1.1917018282301797,0.8587297925496671,0.500681849961893,0.035317967869104905,0.3533339448385959,1.0010522811503506,8.053968135862306
9,20,female,56,75,75,same,valid,anti,2,2,2,1.3212879587736097,1,j,change,0.7469627849754943,0.8916712004423017,0.5000070558321568,0.035304818363329105,0.35330219359411785,1.001055167627328,5.803812266115074
9,20,female,57,45,45,same,valid,clock,5,1,1,0.769900333163605,0,j,change,0.8982565038736539,0.8470521080744662,0.4995086575058849,0.03532855161711268,0.353302514313782,1.0010772972827908,5.40232868118801
9,20,female,58,135,135,same,valid,clock,3,0,3,2.7305464292999204,1,f,same,1.5150436756011914,0.8398081344914099,0.5000904429393813,0.03531540211179163,0.3533086079869463,1.0010468289165146,8.064376771174011
9,20,female,59,15,325,change,valid,anti,3,1,2,2.1558027163673614,1,f,same,2.7489050631370446,0.8705156607956828,0.5007995540713637,0.03530385620479137,0.3533121359027973,1.0010808251990966,8.70194625508475
9,20,female,60,75,125,change,valid,clock,4,0,2,0.5306765131877,1,f,same,1.4140760002924253,0.8237589876059841,0.49992783808011154,0.035353888469217054,0.35329289272431197,1.001047470355843,5.756922412786935
9,20,female,61,15,15,same,valid,clock,4,1,2,1.6006552943754286,1,j,change,2.8552002124447426,0.8575465696646536,0.499799870942752,0.03532470298159751,0.3533076458279538,1.0010263028593727,8.252965053105072
9,20,female,62,105,155,change,catch,clock,3,0,1,0.39582352465731674,0,j,change,1.9380196460024308,0,0.5002203343947258,0.035318930028097384,0.3533143809404464,1.0010449045989844,7.593762387796232
9,20,female,63,45,95,change,valid,clock,3,1,2,0.540473536139416,1,j,change,2.101960944045004,0.8463778338666796,0.500457025491869,0.03534105968356016,0.35329994855646873,1.001055167627328,6.498923023436873
9,20,female,64,135,185,change,valid,clock,5,2,2,0.5248294733651164,1,j,change,1.3134915849577737,0.8814928826403345,0.4996430390365276,0.03534362544041869,0.35327589458347575,1.0010170019895668,5.638202905206981
9,20,female,65,135,135,same,valid,anti,3,2,3,1.768323996115214,1,f,same,1.2805645820317295,0.8725004205188873,0.5002305974235242,0.03532983449576932,0.3533207953332749,1.0010465081973052,6.910740515999805
9,20,female,66,165,115,change,catch,anti,2,0,1,0.5466852341960475,0,j,change,1.3437688021890608,0,0.5002915341560765,0.035338173206582724,0.353283912574625,1.0010795423199852,7.1577985547091885
9,20,female,67,75,75,same,valid,clock,5,1,2,1.8592329412426807,1,f,same,3.156030748034027,0.8364908718528588,0.5008742817485654,0.0353307966547618,0.3533410006707527,1.0010657513757906,8.808114720133744
9,20,female,68,15,325,change,valid,anti,2,2,3,0.6684730666056566,1,j,change,1.7608980534882903,0.8643395691020272,0.4993636922272344,0.03524291947223901,0.35331662597809554,1.0010708828899624,6.180307300734057
9,20,female,69,135,85,change,valid,anti,4,0,3,0.5931228728268252,1,j,change,1.4576313314869367,0.8096130850052943,0.49913854703754623,0.035319892186635116,0.3532845540139533,1.001086598152142,5.83830181514486
9,20,female,70,75,75,same,catch,clock,1,1,1,0.6662495173168281,0,f,same,1.6033650546442004,0,0.49944483429680986,0.03532887233723159,0.35330443863176697,1.001067996412985,7.475319661268713
9,20,female,71,15,15,same,catch,anti,2,1,1,0.5562266435917991,0,f,same,0.7300188454864838,0,0.5006138573980934,0.03532277866361255,0.35329834495814794,1.0010779387221191,6.440143130762408
9,20,female,72,135,85,change,valid,anti,5,2,2,0.7400304298798801,1,j,change,3.028766306990292,0.8567852985067863,0.5006353456137731,0.03534170112243373,0.35326915947098314,1.001088522470127,7.571261659762968
9,20,female,73,75,25,change,valid,anti,3,1,1,0.4273262116466867,0,f,same,0.7786970315473809,0.827557934081113,0.49912764256941955,0.03535003983324714,0.35329225128498365,1.0010821080772985,4.955149923604949
9,20,female,74,15,325,change,valid,anti,1,2,3,2.7463351366332063,1,f,same,5.305539662115734,0.8502126411931705,0.4993155842807937,0.035334324571067555,0.3533143809404464,1.0010506775520298,11.738520481797877
9,20,female,75,75,75,same,valid,anti,1,1,4,2.252730607045578,1,f,same,1.8677486892188426,0.8421312750520367,0.5002883269598897,0.03533143809409012,0.3533063629492972,1.0010481117951713,7.805826064757184
9,20,female,76,15,15,same,catch,anti,4,1,1,0.49812186576718886,0,f,same,0.7974049290760377,0,0.4999326488746192,0.03528814094215704,0.353307966547618,1.0010971819006045,6.404329651044009
9,20,female,77,165,115,change,valid,anti,5,0,4,2.0457310932565633,1,f,same,1.506102332658429,0.797274119110917,0.49983482938341695,0.03532951377610516,0.3533179088567522,1.0010211713452009,7.252625090282436
9,20,female,78,45,45,same,catch,clock,2,2,1,0.8245849567092591,0,f,same,0.9631627831795413,0,0.4997206531907068,0.035356133506411425,0.35328102609764755,1.0010859567132684,6.945985680509693
9,20,female,79,75,125,change,valid,clock,4,2,3,0.7235249141431268,1,j,change,1.8832477867135822,0.8439384462649409,0.49962283369950455,0.03534522903873949,0.35332207821238626,1.001032717252201,6.286512327821583
9,20,female,80,45,45,same,valid,anti,2,2,3,0.5782132580366124,1,j,change,1.2975996058999044,0.8378680811362336,0.4993826146860556,0.035332720972746756,0.35331245662246147,1.0010407352433504,5.4973861349049
9,20,female,81,105,55,change,valid,anti,4,2,4,0.7941502661328741,1,j,change,1.1047874462633445,0.832432472515473,0.4989826772903143,0.03530770484030654,0.3533304169227449,1.0010679964134397,5.543172071220397
9,20,female,82,75,25,change,valid,anti,5,0,2,0.5329885810979249,1,f,same,1.5655249474980337,0.7862636676062991,0.5001988461790461,0.03528589590496267,0.3533403592314244,1.0010266235790368,5.72145915891906
9,20,female,83,75,75,same,valid,clock,4,2,1,0.5265196658870082,0,j,change,1.612271439145843,0.8270539920359674,0.4997235396672295,0.03531572283145579,0.3533467736242528,1.0010279064576935,5.791467125595318
9,20,female,84,105,105,same,valid,clock,3,1,3,0.5808191051410176,1,f,same,1.4659456675267393,0.8339871215500685,0.5002405397326584,0.0353423425622168,0.3532986656778121,1.001060619861164,5.685781022890296
9,20,female,85,15,15,same,valid,clock,5,2,4,0.587916951572879,1,f,same,1.114216603783916,0.8447939202049703,0.5005766539193246,0.03532662729958247,0.3532835918545061,1.0010859567132684,5.309833777423137
9,20,female,86,45,95,change,valid,clock,5,1,4,0.6105074811061968,1,j,change,1.070529136096411,0.8264153648594252,0.4996860154692513,0.03529840397050066,0.3533426042690735,1.0010692792916416,5.296583245349211
9,20,female,87,135,135,same,valid,anti,2,0,4,0.5120478334106338,1,f,same,1.2403014379788146,0.7762756782579603,0.5004496489400481,0.0353096291582915,0.3533169466977597,1.0010535640290072,5.4277360913511075
9,20,female,88,135,135,same,catch,clock,1,0,1,0.7765838098162021,0,f,same,1.1124548907823737,0,0.4994355334274587,0.03531604355111995,0.35330155215478953,1.0010805044789777,7.015678379775636
9,20,female,89,15,325,change,valid,anti,4,0,3,0.422267179989376,1,j,change,1.6826126335317895,0.7670945514226257,0.5004409895100252,0.03534939839391882,0.3533211160533938,1.001064147777015,5.780660797925066
9,20,female,90,75,75,same,valid,clock,2,2,4,0.6561298504034312,1,f,same,1.7364358041145351,0.8400531822477071,0.49999647208369424,0.03529776253117234,0.3535449783639706,1.0010243785418425,6.027907740504361
9,20,female,91,165,115,change,valid,anti,4,2,3,0.4007632486077455,1,f,same,3.244451550166559,0.8356961100845499,0.49938742548056325,0.03532309938327671,0.35329994855646873,1.0010692792916416,7.310394716079827
9,20,female,92,135,185,change,valid,clock,3,0,4,0.44063607685484385,1,j,change,1.270878207356418,0.7585654378074898,0.5002318803021808,0.03535901998338886,0.35329738279915546,1.0010388109258201,5.3567310073035515
9,20,female,93,45,45,same,valid,clock,1,1,4,0.4948393002150624,1,f,same,1.0934926625759545,0.8196442775707724,0.4994695297095859,0.03530898771896318,0.3533387556331036,1.001034320850522,5.190530239372038
9,20,female,94,15,15,same,valid,clock,2,0,4,0.31840725493475475,1,f,same,0.8565311989655129,0.7505873475779894,0.5004403480706969,0.03533881464591104,0.35332239893159567,1.0010644684966792,4.79089752750815
9,20,female,95,45,45,same,valid,anti,2,1,4,1.7947779144756169,1,f,same,1.1920963133916302,0.8132571108560198,0.5005064163169664,0.03526569056748485,0.3533628096065513,1.0010635063381415,6.593789648965867
9,20,female,96,135,85,change,catch,anti,4,2,1,0.39970647738209664,0,f,same,0.8700520976990447,0,0.4992819087178759,0.03532438226193335,0.3533070043886255,1.0010481117951713,6.438524458721531
9,20,female,97,135,135,same,catch,anti,2,2,1,0.28597993321318427,0,f,same,0.8640408494193252,0,0.5007896117626842,0.03532983449576932,0.3532867990511477,1.0010779387221191,6.370071982316858
9,20,female,98,135,135,same,valid,anti,5,1,4,0.3789199958437166,1,f,same,1.1592167769726984,0.8071142770665176,0.49948973504706373,0.035334003851403395,0.3532903269669987,1.0010801837597683,5.1674403493534555
9,20,female,99,75,125,change,valid,clock,2,1,4,0.5895343407350992,1,j,change,0.932902243369881,0.8015275617039721,0.4998912760411258,0.03532245794394839,0.3533297754834166,1.001058695543179,5.155836712649489
9,20,female,100,105,105,same,valid,clock,1,1,3,1.1900658373283477,1,f,same,3.3322469489939976,0.796087662661485,0.4996658101313187,0.03535805782485113,0.35325761356352814,1.0010724864878284,8.206440820169973
9,20,female,101,165,215,change,valid,clock,3,1,1,0.35821978788862907,0,f,same,0.6910501259144439,0.7910760718902927,0.5017065492233996,0.03534843623492634,0.35329385488330445,1.00106992073097,4.69774578991337
9,20,female,102,75,125,change,valid,clock,3,1,3,0.4580434562285518,1,j,change,0.8777997221282021,0.7994217596953284,0.5007257885531544,0.03531251563526894,0.3533143809404464,1.0010602991414999,5.003768455811951
9,20,female,103,45,45,same,catch,anti,2,0,3,0.9467008853143852,1,j,change,0.7395317108343988,0,0.49992847951943986,0.03535901998338886,0.35330989086560294,1.0010622234594848,6.815894095807835
9,20,female,104,135,85,change,valid,anti,5,0,2,0.6119247412116238,1,j,change,1.94466367413861,0.7430493180972828,0.5009358599199913,0.035321175065291754,0.3532813468173117,1.001084994554276,6.24004614514206
9,20,female,105,105,55,change,valid,anti,1,2,2,1.3032991146856148,1,j,change,1.4095201777554394,0.8316881654126931,0.5006010286119817,0.03522431773308199,0.3533201538944013,1.001083390955955,6.345904153576157
9,20,female,106,105,55,change,valid,anti,3,2,1,0.9383272161403511,0,j,change,1.0239580780939832,0.8276144986803764,0.5002793468092932,0.03532277866361255,0.3532726873872889,1.001073769366485,5.6039160509917565
9,20,female,107,165,115,change,valid,anti,5,2,2,4.177452575186635,1,f,same,1.4810092277457443,0.8413906881012512,0.5001180248291348,0.0353275894581202,0.35330732510828966,1.001034320850522,9.30206883413257
9,20,female,108,15,15,same,valid,anti,1,1,4,0.3019229066949265,1,f,same,1.1676783233288006,0.7946924668037125,0.49979922950296896,0.03534554975840365,0.35328936480846096,1.0010753729648059,5.108893619859828
9,20,female,109,45,45,same,catch,clock,5,1,1,0.35745038146433217,0,j,change,1.0719560177913081,0,0.4992241791824199,0.035356454226075584,0.3532550478066696,1.001118670116739,6.58021454861273
9,20,female,110,105,155,change,catch,clock,3,1,1,0.4426566106089922,0,j,change,0.554635553440221,0,0.4998652977496931,0.035333683131739235,0.35327429098515495,1.0010622234594848,6.156560256165449
9,20,female,111,75,25,change,catch,anti,2,2,1,0.37450753498706035,0,f,same,1.022229719934785,0,0.5004118040224057,0.035301931886806415,0.3533448493067226,1.0010593369825074,6.545835647860258
9,20,female,112,45,95,change,valid,clock,5,2,3,1.2759779704088032,1,j,change,0.7894975862641331,0.8377363017840036,0.5001051960430232,0.03532502370126167,0.3532867990511477,1.0010740900861492,5.709503372046129
9,20,female,113,15,65,change,catch,clock,2,0,1,0.4719572365256681,0,f,same,0.5243557704520754,0,0.49955291681681047,0.03533496600994113,0.3532473505351845,1.0011157836402163,6.121250627006702
9,20,female,114,135,135,same,valid,clock,4,1,3,0.4162132759970518,1,f,same,1.383240410162216,0.7900268874189045,0.5004746650720335,0.03528621662462683,0.35331406022078227,1.0010689585719774,5.380152200714292
9,20,female,115,135,135,same,valid,clock,1,1,1,0.46171537542795704,0,f,same,0.7529894277977291,0.7856668813352936,0.4996388696813483,0.035336890327926085,0.3532444640582071,1.0010878810312533,4.767244133075565
9,20,female,116,135,85,change,valid,anti,1,1,2,0.4848527319541063,1,j,change,1.1791135822204524,0.7931679041700186,0.4992216134251066,0.03532406154226919,0.35329834495814794,1.001077618002455,5.284240670586314
9,20,female,117,105,105,same,valid,anti,3,1,3,0.3247122824077451,1,f,same,1.111034744200424,0.788977681686011,0.5004130869010623,0.035318930028097384,0.35330924942581987,1.001042018122007,4.979576893817466
9,20,female,118,45,45,same,valid,anti,4,2,4,0.24586881027107665,1,f,same,1.0301774734220999,0.8343641134686248,0.5002341253398299,0.03535837854406054,0.35330283503344617,1.0010314343735445,4.873793292340906
9,20,female,119,165,165,same,catch,anti,4,0,1,0.42636148695874,0,f,same,0.9456963913908112,0,0.49983386722442447,0.03534330472075453,0.35330604223008777,1.0010384902057012,6.45083560295916
9,20,female,120,165,165,same,valid,anti,1,0,4,0.12328944178079837,1,f,same,1.6654416245351058,0.7358486429752189,0.500732523665647,0.035317967869104905,0.35329898639747626,1.0010394523651485,5.415956058843221
9,20,female,121,15,15,same,valid,clock,5,1,4,0.17473094829119873,1,f,same,0.9097408328707388,0.7850772701539346,0.4998729950211782,0.03532887233677684,0.35332239893159567,1.0010609405808282,4.708733003462385
9,20,female,122,105,105,same,valid,clock,1,2,4,0.1749961834361784,1,f,same,0.9807151278323545,0.8309254533223738,0.4991513758227484,0.03534170112288848,0.3532848747331627,1.0010772972827908,4.7902519188660335
9,20,female,123,135,185,change,valid,clock,2,0,3,0.6654320029456358,1,j,change,1.0407313947325747,0.7291664420491744,0.49968601546879654,0.03535741638506806,0.35326755587266234,1.001094295423627,5.355650823544238
9,20,female,124,135,185,change,valid,clock,2,1,4,0.273920553896005,1,j,change,1.0029333018601392,0.7813839979726489,0.5003422078598305,0.035305459802657424,0.3533034764727745,1.0010689585719774,4.920744723840926
9,20,female,125,105,105,same,catch,anti,3,2,1,0.41458209589018225,0,f,same,0.6161842187975708,0,0.5000323926838064,0.03535741638506806,0.35330315575311033,1.0010279064576935,6.144820634332518
9,20,female,126,165,165,same,valid,anti,3,2,1,0.6895244625702617,0,f,same,2.758043327940868,0.8276538655381163,0.5004797965871148,0.035300328288485616,0.35334132139041685,1.0010388109258201,7.064754258194625
9,20,female,127,45,355,change,valid,anti,3,2,1,0.22378309345640446,0,j,change,1.364782994674897,0.8389126774842826,0.49907504454813534,0.03534298400109037,0.3532851954528269,1.0010449045989844,5.261163288633725
9,20,female,128,75,75,same,valid,clock,2,1,1,0.3137972307781638,0,f,same,1.2852310528455746,0.7776551222081225,0.4998290564299168,0.035338173206582724,0.35330219359411785,1.0010737693669398,5.202643820309731
9,20,female,129,165,215,change,valid,clock,4,2,1,0.3898042583869028,0,j,change,0.8905550630729522,0.8495274600053213,0.5004640813240258,0.03534619119773197,0.35330283503344617,1.001017643428895,4.920903159345016
9,20,female,130,165,165,same,valid,clock,5,2,2,0.3151214821864414,1,f,same,2.465180430457167,0.8596911996285679,0.4999358560712608,0.03533175881375428,0.3533207953332749,1.0010218127845292,6.415666128285011
9,20,female,131,45,95,change,valid,clock,2,2,2,0.3470321245622472,1,f,same,2.0378702547927787,0.8569522532924103,0.5004820416243092,0.035317326429776585,0.35332015389394655,1.0010314343739992,6.086805658007506
9,20,female,132,45,45,same,valid,anti,4,1,3,0.9674370138691302,1,f,same,2.6546875741664735,0.7839338689991371,0.5001430409611203,0.035336569608261925,0.35327878105999844,1.001068317132649,7.416893843080743
9,20,female,133,15,15,same,catch,clock,5,2,1,0.3358851926304851,0,f,same,0.949781397490824,0,0.5004201427327644,0.03532309938327671,0.3532701216299756,1.0010821080772985,6.404686932727145
9,20,female,134,45,45,same,valid,anti,5,2,2,0.3778311526534708,1,f,same,1.3929925323641328,0.8543890169728097,0.49981751052291656,0.03533207953341844,0.35327429098515495,1.0010657513757906,5.403447992744077
9,20,female,135,45,45,same,valid,anti,4,0,4,0.22828567653277787,1,f,same,1.6608348075747017,0.7227631651811144,0.4991237939339044,0.03537665956400815,0.35330315575311033,1.0010558090666564,5.473201628742572
9,20,female,136,105,105,same,valid,clock,4,2,4,0.3318463701593828,1,f,same,1.1927720696808137,0.8517446383800626,0.4997119937597745,0.03532951377610516,0.3533063629492972,1.0010789008811116,5.096515765936601
9,20,female,137,15,65,change,valid,clock,3,2,4,0.23086714894361648,1,f,same,1.2086444848409883,0.8491837911099596,0.5004332922385402,0.035336890327926085,0.35326499011534906,1.0010840323952834,5.061816466259643
9,20,female,138,165,115,change,valid,anti,1,1,4,0.2233158049357371,1,f,same,0.9394417169019107,0.7803827869129534,0.5004211048917568,0.035334645290731714,0.3533063629492972,1.001059016263298,4.77979228913
9,20,female,139,135,85,change,catch,anti,2,2,1,0.2939757946469399,0,f,same,1.2222648066640431,0,0.49969980641390066,0.03531283635447835,0.35333811419423,1.0010612613004923,6.639706438895701
9,20,female,140,15,65,change,catch,clock,3,2,1,0.265968631053056,0,f,same,0.5418500648493136,0,0.5002559342751738,0.03534715335672445,0.3532951377619611,1.001081145918306,6.004066404360856
9,20,female,141,165,115,change,valid,anti,4,0,1,0.28919578907925825,0,f,same,1.0884766073509127,0.7165103997782436,0.49984252665490203,0.03535100199223962,0.35332336109058815,1.0010513189913581,5.061453411623006
9,20,female,142,15,65,change,catch,clock,5,2,1,0.2060604466728364,0,j,change,0.7580545531286589,0,0.49973251981691647,0.035332400253082596,0.35330475935143113,1.001045546037858,6.215300379603377
9,20,female,143,75,25,change,valid,anti,1,2,3,0.34785765692504356,1,j,change,1.0576724477450625,0.8467777329815065,0.5001420788021278,0.035300328288940364,0.35336697896173064,1.0010545261879997,5.038482829311761
9,20,female,144,105,155,change,valid,clock,5,2,3,0.7699554969422024,1,j,change,1.959580986200308,0.8445076475868201,0.4995006395151904,0.03527659503470204,0.35338076990683476,1.0010558090666564,6.4033944325638
9,20,female,145,45,45,same,valid,clock,5,2,3,0.4236167682493033,1,f,same,1.032769529581401,0.8421516746150937,0.5001138554735007,0.03531476067246331,0.3533086079869463,1.0010574126649772,5.050315139121722
9,20,female,146,165,115,change,valid,anti,1,2,2,0.18348819815855677,1,j,change,1.5333763311468829,0.8398521414818942,0.4998502239263871,0.03535998214238134,0.3533137395011181,1.0010564505059847,5.320827084645316
9,20,female,147,165,165,same,valid,clock,2,2,4,0.32821005084042554,1,f,same,1.4101805395016527,0.837654876152437,0.4997565737903642,0.03530834627963486,0.3533349069975884,1.0010753729652606,5.332587553255507
9,20,female,148,135,135,same,valid,clock,1,0,2,0.6897630779849351,1,f,same,1.7904219002766695,0.7223320059357359,0.4996241165781612,0.03532951377610516,0.353306042229633,1.0010686378523133,6.168547473563194
9,20,female,149,105,55,change,valid,anti,1,0,2,0.5024326584962182,1,j,change,1.0763521219450922,0.7164812011009423,0.5000028864765227,0.035333362412075076,0.35329385488330445,1.0010246992610519,5.249842847374566
9,20,female,150,45,45,same,catch,anti,5,0,1,0.2802278264061897,0,f,same,0.9857661414989707,0,0.5004862109794885,0.035332400253082596,0.3533307376424091,1.0010275857375746,6.439877895617428
9,20,female,151,165,115,change,valid,anti,2,0,1,0.6681728730195573,0,j,change,1.0165719047026869,0.7109929129058739,0.5038303547030409,0.03529680037263461,0.35333779347456584,1.0010484325148354,5.372207654423164
9,20,female,152,105,105,same,valid,anti,1,1,2,0.35188974428365327,1,f,same,1.9429196007167775,0.7769897153647605,0.49908530757647895,0.03529776253117234,0.3533275304462222,1.0010484325148354,5.920189878857855
9,20,female,153,15,15,same,valid,anti,2,1,3,0.3982542588364595,1,f,same,1.799399484539208,0.7738075173868433,0.499889672442805,0.03527659503470204,0.3533432457084018,1.0010465081973052,5.8272110091506875
9,20,female,154,45,45,same,valid,clock,3,2,4,0.3213110505876102,1,f,same,0.8196253481410167,0.8355823268281573,0.49998685049467895,0.03532662729912772,0.3533329826800582,1.001038169486037,4.755768784228621
9,20,female,155,165,165,same,valid,anti,3,0,4,0.2722149668311431,1,f,same,1.5793854883345375,0.7160429815395577,0.49988197517131994,0.035319892186635116,0.3533143809409012,1.0010599784218357,5.461805497647674
9,20,female,156,135,135,same,valid,clock,4,2,4,0.30346685105905635,1,f,same,0.8414708459431495,0.8335990533581774,0.5000477872267766,0.03530898771896318,0.35331053230493126,1.0010558090666564,4.779463230775946
9,20,female,157,105,55,change,valid,anti,4,1,4,0.381503071852876,1,j,change,1.1985809438647266,0.7705737345651043,0.4998681842262158,0.03535613350686617,0.35330283503344617,1.0010445838788655,5.22693256035609
9,20,female,158,135,135,same,valid,clock,4,0,2,0.53173296369323,1,f,same,1.3841458017159312,0.7108728721804705,0.49937876605054043,0.035391091947531095,0.35330379719243865,1.0010275857380293,5.614559453083075
9,20,female,159,75,25,change,catch,anti,1,2,1,0.28220025221389733,0,f,same,0.9642888298481012,0,0.5000612574522165,0.03531572283145579,0.3532951377619611,1.0010798630396494,6.368625857443931
9,20,female,160,15,15,same,catch,anti,2,1,1,0.27316173121926113,0,j,change,0.7100578963099906,0,0.5001898660289044,0.035349719114037725,0.3532941756029686,1.0010397730843579,6.2394989974304735
9,20,female,161,105,105,same,valid,anti,1,0,4,0.3799293005617983,1,f,same,0.8658821008934865,0.7057654237248996,0.5003274547557339,0.03534330472120928,0.35330219359411785,1.001062544179149,4.873838193091615
9,20,female,162,15,65,change,valid,clock,2,0,1,0.30059352377156756,0,f,same,1.0246745657777865,0.7009248369661343,0.49922706565939734,0.035300328288940364,0.353307966547618,1.0010994269377989,4.967115652785651
9,20,female,163,135,135,same,valid,clock,5,0,2,0.9655761984968194,1,f,same,1.2776011325249783,0.7054151141322997,0.49917350547912065,0.03533400385094865,0.35328423329428915,1.0010651099364622,5.968244585931643
9,20,female,164,105,105,same,valid,anti,3,2,2,0.3562746232510108,1,f,same,1.1822595212033775,0.8315134027721427,0.49943040191283217,0.035329834496224066,0.35330251431332726,1.0010801837597683,5.249609363474519
9,20,female,165,105,155,change,valid,clock,4,1,1,0.5669450940795286,0,j,change,0.9493134675312831,0.7674505411068611,0.5001924317857629,0.035314119233589736,0.35331855029562576,1.0010269442982462,5.285866077740138
9,20,female,166,105,105,same,valid,clock,5,2,3,0.4004713937329143,1,f,same,0.9931035655035885,0.8294602147305732,0.49975689451002836,0.03529583821273263,0.35333202052061097,1.0010651099364622,4.990608045957742
9,20,female,167,75,125,change,catch,clock,4,1,1,0.2833381655091216,0,j,change,1.4909534610142146,0,0.4997774205667156,0.03530161116668751,0.35332656828722975,1.0010477910755071,7.016309876753439
9,20,female,168,75,125,change,valid,clock,2,2,2,0.4842241214528258,1,j,change,0.9536656330947153,0.8274996745832017,0.5006747941306458,0.03531251563526894,0.353323040370924,1.0010535640285525,5.086151389934457
9,20,female,169,45,355,change,valid,anti,2,0,1,0.39252075376771245,0,j,change,0.8423986878715368,0.7008229798710115,0.5000179603002834,0.03530610124198574,0.35335382945686433,1.0010558090671111,4.8968697121354126
9,20,female,170,15,325,change,valid,anti,2,1,2,0.8536155366855382,1,j,change,1.0982736303021738,0.7727888226622879,0.49946792611081037,0.035319250747306796,0.3532996278372593,1.0010359244479332,5.603158511194124
9,20,female,171,45,95,change,valid,clock,3,2,3,0.5504270702776921,1,j,change,1.3283386594175681,0.8256391656559809,0.5000163567010532,0.035354529908545373,0.3532576135639829,1.001103596293433,5.532935983076641
9,20,female,172,135,185,change,catch,clock,1,1,1,0.2752117711806932,0,f,same,0.6469470055690181,0,0.4995827437433036,0.03533207953296369,0.3533124566220067,1.0010477910755071,6.109378547961569
9,20,female,173,45,45,same,valid,anti,3,2,2,0.360502349592025,1,f,same,1.324024980212016,0.8238508515927438,0.5004820416243092,0.03532309938327671,0.35327397026503604,1.0010869188718061,5.368050807122927
9,20,female,174,165,115,change,valid,anti,3,0,2,0.6397619233948717,1,j,change,1.6082111284586063,0.7050931169425807,0.5004461210237423,0.03526216265072435,0.3533939194121558,1.0010317550932086,5.850792883103168
9,20,female,175,105,55,change,valid,anti,5,2,2,1.064871962304096,1,j,change,0.754047802621244,0.8219646386847681,0.5000821042285679,0.035317647148986,0.3532861576113646,1.0010683171321944,5.427290611765784
9,20,female,176,45,45,same,catch,clock,4,2,1,0.44360465787576686,0,f,same,1.2613839437481147,0,0.49977838272661756,0.03535068127257546,0.35329770351927436,1.0010468289165146,6.85195100173587
9,20,female,177,135,135,same,catch,anti,2,0,1,0.7695488244344233,0,j,change,1.4746958615614858,0,0.49968344971148326,0.03531315707368776,0.35332656828722975,1.0010590162628432,7.499717445994065
9,20,female,178,135,85,change,catch,anti,5,2,1,0.5619213415830018,0,f,same,1.0706330492612324,0,0.4995448988256612,0.035321816504620074,0.3533076458279538,1.0010352830095144,6.768651130152648
9,20,female,179,15,15,same,valid,clock,4,0,2,0.3492245640454712,1,f,same,1.090523760835822,0.7007239950609554,0.5006577959893548,0.03533560745017894,0.35332400252991647,1.0010744108058134,5.074070522400689
9,20,female,180,105,105,same,catch,anti,1,0,1,0.379353288081802,0,f,same,2.128784331434872,0,0.49971295591876697,0.035331438094544865,0.35328968552857987,1.0010728072074926,7.628328268100631
9,20,female,181,105,55,change,valid,anti,3,1,2,0.31369652480952936,1,j,change,0.9775974121776017,0.7697742464507213,0.5009275212096327,0.035335928168933606,0.35329321344397613,1.0010333586915294,4.980040975141492
9,20,female,182,45,45,same,valid,anti,3,0,3,0.3344653667681996,1,f,same,1.0054833437452544,0.6963615071291223,0.4997790241650364,0.035353567749552894,0.35329770351927436,1.0010619027398207,4.94330735076619
9,20,female,183,75,75,same,catch,anti,3,0,1,0.27507546533161076,0,f,same,0.4678972465580955,0,0.5000243746926571,0.03528525446563435,0.3533358691565809,1.0010490739541638,5.909253980452377
9,20,female,184,165,165,same,catch,anti,5,2,1,0.26418959919010376,0,j,change,0.553779231991939,0,0.5009432364713575,0.03532438226193335,0.3533134187819087,1.0010503568328204,6.004233499294969
9,20,female,185,75,25,change,catch,anti,2,2,1,0.32204357425416674,0,f,same,0.7466558562773571,0,0.5003729969457709,0.03535709566585865,0.3533012314355801,1.0010683171331038,6.263464452076732
9,20,female,186,135,135,same,valid,anti,1,2,2,0.2788997263614874,1,f,same,1.7145604793859093,0.8201018585156443,0.49972899190106546,0.035331117374880705,0.3532662729940057,1.0010744108058134,5.6384982879990275
9,20,female,187,165,115,change,valid,anti,2,1,2,0.258879123332008,1,j,change,0.9229256174176044,0.766898987561476,0.4996241165781612,0.035330155215888226,0.35329289272431197,1.0010772972827908,4.81423789956807
9,20,female,188,15,325,change,valid,anti,2,0,2,0.34582333222624584,1,j,change,0.9239281870231935,0.6922237273895144,0.4994214217631452,0.035330475935552386,0.35330411791164806,1.0010673549741114,4.943290352624899
9,20,female,189,15,65,change,valid,clock,5,2,2,0.6544066237584047,1,j,change,1.3048902048376476,0.8182829851817095,0.5000808213499113,0.035338173206582724,0.3532678765923265,1.0010917296667685,5.638687191868485
9,20,female,190,45,95,change,catch,clock,1,0,1,0.29099919563486765,0,j,change,1.3220406877771893,0,0.5003553573651516,0.03534138040322432,0.3532932134448856,1.0010679964134397,6.863894921982137
9,20,female,191,135,85,change,valid,anti,1,0,2,0.4414311408509093,1,j,change,0.7890335049396526,0.688024758010757,0.5000660682462694,0.03536479293688899,0.3532829504156325,1.001049394673828,4.9436210145777295
9,20,female,192,165,165,same,valid,anti,1,1,2,0.3442578996455268,1,f,same,1.0827168032719783,0.7641807437419197,0.5005436197952804,0.035282047268992756,0.3533355484369167,1.0010702414501793,5.01481596465419
9,20,female,193,135,135,same,valid,anti,3,1,2,0.3212347193120877,1,f,same,1.2557995733150165,0.7614100507063726,0.5000583709743296,0.03529487605464965,0.35334581146616983,1.001034641570186,5.179395174067395
9,20,female,194,75,25,change,catch,anti,5,1,2,0.34146539370976825,1,j,change,0.9200692882714065,0,0.5003932022837034,0.03532406154226919,0.35330091071500647,1.0010381694855823,6.474913630199808
9,20,female,195,75,125,change,valid,clock,3,0,2,0.38709995035242173,1,j,change,0.7656803040936211,0.6840392413364742,0.5008611322427896,0.035351964151232096,0.35329128912690066,1.001068637852768,4.827101002312702
9,20,female,196,45,45,same,valid,clock,4,2,3,0.27936797704114724,1,f,same,0.9369234262612736,0.8165579122681674,0.500170622850419,0.0353064219625594,0.353329134044543,1.0010340001308577,4.802845296389933
9,20,female,197,135,185,change,catch,clock,3,0,1,0.303334714565608,0,j,change,0.7704862879527354,0,0.4996552263828562,0.03532566514058999,0.35329385488330445,1.001077618002455,6.274410613510554
9,20,female,198,135,185,change,valid,clock,1,0,1,0.22289726580038405,0,j,change,1.2117230726998969,0.6800156851400623,0.5004618362872861,0.03530385620524612,0.3532973827996102,1.0010789008811116,5.180129942770691
9,20,female,199,165,215,change,valid,clock,2,1,2,0.36479101266650105,1,j,change,0.8390539027086561,0.7586771074078962,0.49956061408829555,0.03533079665430705,0.35333618987624504,1.001068637852768,4.884425789964553
9,20,female,200,105,105,same,catch,clock,4,2,1,0.2619298085819537,0,j,change,0.7667418861137776,0,0.4997764584086326,0.03531379851301608,0.35332336109058815,1.0010696000117605,6.227248789924488
9,20,female,201,165,165,same,valid,anti,5,0,1,1.1372516507435648,0,j,change,1.5382650606743482,0.6837167377825366,0.5009085987503568,0.03526921848333586,0.35332656828722975,1.0010808251990966,6.3463172404772195
9,20,female,202,105,55,change,catch,anti,5,0,1,0.3614042132303439,0,j,change,0.7088972119199752,0,0.49966292365479603,0.03531796786955965,0.35329000624733453,1.0010782594417833,6.227363286837317
9,20,female,203,135,85,change,valid,anti,3,0,2,0.49214910384580435,1,j,change,1.0604184493331559,0.6871767839462137,0.4997366891730053,0.035336890327926085,0.35330187287399895,1.0010372073274993,5.202441766933589
9,20,female,204,15,325,change,valid,anti,5,1,2,0.39762949697069416,1,j,change,0.7442071617979309,0.7560973509662987,0.5003091737362411,0.035229769967372704,0.3534051446004014,1.001043621719873,4.814591974055475
9,20,female,205,45,95,change,catch,clock,3,0,1,0.750412445461734,0,f,same,0.5998047458806468,0,0.4997710061752514,0.03532598586025415,0.35332432324958063,1.001064468497134,6.498397684660631
9,20,female,206,105,105,same,valid,anti,1,2,3,0.6678207228505926,1,f,same,1.4159701705066254,0.81490336944227,0.5004134076207265,0.03533432457061281,0.3533060422305425,1.0010702414501793,5.674188290653547
9,20,female,207,15,15,same,valid,clock,1,1,2,1.3812997355989864,1,f,same,0.8836996806921888,0.7536300112727345,0.49994772269837995,0.03520539527380606,0.35340225812251447,1.001059657703081,5.921247612242041
9,20,female,208,15,65,change,valid,clock,5,0,2,1.1004542031587334,1,j,change,0.8508730630137507,0.683527339724304,0.49969307130140805,0.03534971911358298,0.35329770351836487,1.001041376682224,5.6152483588775794
9,20,female,209,75,125,change,valid,clock,3,2,2,0.7739991302087219,1,j,change,0.9819200715337502,0.8131653800697225,0.49959108245457173,0.03534490831953008,0.3533108530245954,1.0010628648988131,5.449555931581926
9,20,female,210,45,95,change,valid,clock,5,0,2,0.48094572525678814,1,j,change,0.6848134117253721,0.6798159733795577,0.5002924963155237,0.03533272097229201,0.35328583689170046,1.0010724864878284,4.849564206147988
9,20,female,211,75,125,change,valid,clock,4,1,3,0.3342594647574515,1,j,change,0.7128603445553381,0.7510907493340946,0.500600066453444,0.03532534442092583,0.3532694801897378,1.0010821080768437,4.7328116721419065
9,20,female,212,45,355,change,valid,anti,5,2,4,0.33301795901661535,1,j,change,0.7452462934425057,0.8114571303269726,0.49997658746633533,0.03532823089699377,0.35332111605293903,1.0010789008811116,4.755859227168003
9,20,female,213,75,125,change,valid,clock,1,2,2,1.4895884782108624,1,j,change,0.8543669828113707,0.8097562289586071,0.4998864652461634,0.03534330472120928,0.35329160984565533,1.0010352830095144,5.979950532201656
9,20,female,214,165,165,same,valid,clock,2,1,3,0.795460085157174,1,f,same,0.7363799988961546,0.7485758079397782,0.5004602326880558,0.03533175881329953,0.3533044386313122,1.0010452253191033,5.144854630614645
9,20,female,215,135,185,change,valid,clock,2,2,3,0.3748853427268841,1,j,change,0.7702572941270773,0.8081011180956901,0.49994355334274587,0.035336248888597765,0.3533005899962518,1.0010721657690738,4.849839704322221
9,20,female,216,45,355,change,valid,anti,1,0,3,0.4738552553762929,1,j,change,0.5455739406306748,0.6762089481108693,0.5000157152626343,0.035315402112246375,0.35328198825664003,1.0010875603111344,4.7558127228203375
9,20,female,217,165,165,same,valid,anti,2,0,4,0.4377316397622053,1,f,same,1.6993593304405294,0.6727518954455167,0.49990378410711855,0.03533464529027697,0.353276856742923,1.0010930125454252,5.756894510177517
9,20,female,218,75,75,same,valid,anti,5,2,3,0.8801842726779796,1,j,change,0.7641277002994684,0.8065243149149275,0.4997559323510359,0.03532534442092583,0.3533310583616185,1.0010657513757906,5.308863600501354
9,20,female,219,105,155,change,valid,clock,2,1,3,0.5649306539989993,1,f,same,0.9159720948255199,0.7461964940549359,0.49963790752281056,0.03523842939739552,0.35330572150996886,1.0009836471472227,5.096251813670278
9,20,female,220,105,105,same,valid,anti,5,2,3,0.36419062549339287,1,f,same,0.9030907110609405,0.805006216093713,0.5002578585936135,0.035288782381030614,0.3533650546442004,1.0010599784218357,4.920606172954649
9,20,female,221,75,75,same,valid,clock,3,1,3,0.4109986953126281,1,f,same,0.8758661033971293,0.743914887962126,0.49969852353569877,0.035335286729605286,0.3532887233686779,1.0010516397105675,4.932316930019624
9,20,female,222,15,15,same,valid,anti,5,0,3,0.4210298436037192,1,f,same,0.6942191567122791,0.6691926305771099,0.4995426537880121,0.035319250747306796,0.3533166259785503,1.0010429802814542,4.754608420558725
9,20,female,223,75,75,same,valid,anti,4,1,2,0.5075102918935954,1,f,same,0.841533065553449,0.7415652052627335,0.5005785782368548,0.03533047593464289,0.35326050004005083,1.001073448646821,4.991799840153362
9,20,female,224,165,115,change,valid,anti,3,1,2,0.6530567147783586,1,j,change,1.4889688478597236,0.739215371262899,0.5000920465372474,0.035311553475366964,0.3532797432189909,1.0010763351237983,5.720968778584393
9,20,female,225,15,325,change,valid,anti,4,2,3,0.42248526934599795,1,j,change,0.5986180831996535,0.8035293980148586,0.5005744088812207,0.035288461661366455,0.35333137908128265,1.001047470355843,4.6618181340018054
9,20,female,226,105,55,change,catch,anti,1,0,1,0.2970264798968856,0,f,same,0.8144361043077879,0,0.5000545223392692,0.03536671725487395,0.3532511991706997,1.001090767507776,6.19274448779106
9,20,female,227,135,85,change,valid,anti,2,1,1,0.8044761557775928,0,j,change,1.1999241177318254,0.7369666544249822,0.49987491933916317,0.03534330472120928,0.35333137908219214,1.0010712036100813,5.6509364372159325
9,20,female,228,15,325,change,valid,anti,3,2,2,0.3559895034877627,1,j,change,0.9059717356194597,0.8019552673008885,0.4997726097726627,0.0353423425622168,0.35330508007064054,1.0010298307752237,5.014895823845109
9,20,female,229,165,215,change,valid,clock,5,1,2,0.5231335078906341,1,j,change,0.7536943695740774,0.7409347622884537,0.4990788931836505,0.035327268738001294,0.35329064768666285,1.0010503568328204,4.943250262668698
9,20,female,230,45,95,change,catch,clock,2,1,1,0.24069335738386144,0,f,same,0.9885066908536828,0,0.5000529187409484,0.03531411923268024,0.35333843491389416,1.001045546037858,6.345951620083724
9,20,female,231,75,75,same,valid,clock,2,0,3,0.5395578815569024,1,j,change,1.159776112031068,0.6657460312021461,0.49995092989502155,0.03533368313128449,0.3532935341636403,1.00104650819776,5.356121960699966
9,20,female,232,75,25,change,valid,anti,1,0,2,0.2627886957870942,1,j,change,1.0469735611550277,0.662412058200011,0.49977838272661756,0.03534298400154512,0.353283912574625,1.001026623578582,4.978446036353489
9,20,female,233,165,115,change,valid,anti,2,2,3,0.9935304433502097,1,j,change,0.6404081734763167,0.8003889267130302,0.5005994250132062,0.035299686849612044,0.35333298267960345,1.0010641477774698,5.250637911371086
9,20,female,234,75,75,same,valid,clock,3,2,1,0.26778775287129974,0,f,same,1.5151447022890352,0.7988270157837318,0.49993745966912684,0.03532374082260503,0.3532887233695874,1.001077618002455,5.308513053931165
9,20,female,235,75,25,change,catch,anti,5,1,1,0.29564193319492915,0,f,same,0.5244984906930767,0,0.5000981402108664,0.0353096291582915,0.3533172674169691,1.001049715393492,5.945326601642591
9,20,female,236,15,325,change,catch,anti,5,2,1,0.3973058908495659,0,f,same,0.27276339742184064,0,0.5000163567019626,0.03535003983324714,0.35331373950157285,1.001057733385096,5.8509400934190126
9,20,female,237,135,85,change,valid,anti,3,1,3,0.6034574219020215,1,j,change,0.8193014213011338,0.7387071451350096,0.4996382282424747,0.0353064219625594,0.3533102115852671,1.001070562170753,5.085425601380848
9,20,female,238,165,115,change,catch,anti,5,0,1,0.39290529662048357,0,f,same,0.29647291779201623,0,0.49904104826600815,0.03530834627963486,0.3532919305653195,1.0010898053487836,5.8492422036260905
9,20,female,239,75,75,same,valid,clock,4,1,1,1.218836634393483,0,f,same,0.7295124291686079,0.7365920407008217,0.5011128971627841,0.03532277866361255,0.35330411791164806,1.0010676756937755,5.498197555603838
9,20,female,240,135,185,change,catch,clock,3,1,1,0.3162982025587553,0,f,same,0.5157255255626296,0,0.5000705583215677,0.035320212906299275,0.3533284926043052,1.0010362451685069,5.968387306173099
9,20,female,241,75,75,same,catch,clock,4,1,1,0.35825410489087517,0,f,same,0.5031930847708281,0,0.5001215527445311,0.03535645422562084,0.3532964206406177,1.00104265956179,6.027565532644985
9,20,female,242,75,75,same,catch,anti,5,0,1,0.42264178053301293,0,f,same,0.42208148331519624,0,0.5003746005431822,0.035338173206582724,0.3532752531446022,1.001090767507776,6.01605009384275
9,20,female,243,165,215,change,catch,clock,2,2,1,0.5803774741916641,0,f,same,0.4372749349904552,0,0.49983611226252833,0.03532309938327671,0.3533031557526556,1.0010731279280662,6.168505780009582
9,20,female,244,75,125,change,catch,clock,5,2,1,0.38826512481773534,0,f,same,0.393383810328487,0,0.5005282252532197,0.03536094430182857,0.3532967413602819,1.0010413766831334,6.028146997358817
9,20,female,245,15,65,change,valid,clock,5,1,2,0.391199388836867,1,j,change,0.7866977037756442,0.7403570134098565,0.4998037195782672,0.03530289404625364,0.35332111605293903,1.0010529225892242,4.908627935707955
9,20,female,246,135,85,change,valid,anti,1,2,1,0.34126045385619364,0,f,same,0.5939769492379128,0.804305346435293,0.49982232131696946,0.03532502370126167,0.3533339448385959,1.0010458667575222,4.590671933310659
9,20,female,247,105,55,change,catch,anti,4,1,1,0.49478381571680075,0,f,same,0.35821914644930075,0,0.49949582872068277,0.03533368313219398,0.35331149446392374,1.0010551676277828,5.991388036130957
9,20,female,248,165,115,change,catch,anti,5,2,1,0.3299294288499368,0,f,same,0.4682291913886729,0,0.5004560633333313,0.03534426688020176,0.3533108530245954,1.0010307929342162,5.956965838227006
9,20,female,249,105,105,same,valid,clock,3,2,3,0.3706002075696233,1,f,same,1.1094904791161753,0.809300936365362,0.5000519565819559,0.03528461302539654,0.35332496468890895,1.00109878549938,5.085408923960131
9,20,female,250,75,25,change,catch,anti,3,1,1,0.5453439846469337,0,f,same,0.43014886522996676,0,0.4994868485700863,0.03532823089790327,0.35330026927658764,1.001077618002455,6.097268815658936
9,20,female,251,135,185,change,valid,clock,4,0,1,0.28107901633939036,0,j,change,0.7647005055823684,0.6589525348917842,0.5054493474644914,0.035321175065291754,0.353307966547618,1.0010532433097978,4.7016431750216725
9,20,female,252,45,45,same,valid,clock,1,2,3,0.3876653790839555,1,f,same,0.85425312733787,0.8079051144337306,0.49998203970062605,0.035319892186635116,0.3532935341636403,1.0010801837597683,4.850222002137343
9,20,female,253,105,105,same,valid,anti,4,2,3,0.5513549122060795,1,f,same,0.68322777380763,0.8065690347961489,0.49898428088908986,0.03535613350686617,0.3532823089763042,1.0010872395914703,4.849171003866104
9,20,female,254,15,325,change,catch,anti,1,0,1,0.5528468999882534,0,f,same,0.30462432825243013,0,0.49975208371506596,0.03534041824332235,0.3532781396206701,1.0010840323948287,6.038913235073778
9,20,female,255,135,135,same,catch,anti,5,1,1,0.307589060637838,0,f,same,0.4947401978452035,0,0.5005307910096235,0.035353247029888735,0.35328647833193827,1.0010471496361788,6.0041350383644385
9,20,female,256,75,25,change,valid,anti,2,1,3,0.5019669735747812,1,j,change,0.7002615147966935,0.738249037932228,0.5001622841400604,0.03532021290720877,0.35332881332487887,1.001038490206156,4.873529981513457
9,20,female,257,135,135,same,valid,clock,2,0,3,0.3855293862579856,1,f,same,0.6849064204225215,0.6621999957928355,0.4995147511799587,0.03529359317599301,0.35332720972564857,1.001077618002455,4.672228372912286
9,20,female,258,165,165,same,catch,anti,1,1,1,0.3107224915556799,0,f,same,0.37930197293917445,0,0.49986144911326846,0.03527563287570956,0.3533605645689022,1.001054526187545,5.850169724835723
9,20,female,259,105,55,change,valid,anti,5,1,3,0.1917974026837328,1,j,change,1.0490409199783244,0.7362524865608018,0.5008463791391478,0.03533272097229201,0.35332881332396937,1.0010340001308577,4.898090691818652
9,20,female,260,135,85,change,valid,anti,3,2,3,0.22743993883250369,1,j,change,0.8735896353673525,0.8052787019267165,0.4996433597561918,0.035319892186635116,0.3533063629502067,1.001086598152142,4.7436805401439415
9,20,female,261,165,165,same,valid,clock,2,0,4,0.20536448504572036,1,f,same,1.0231803329579634,0.6588592285066015,0.49920461528381566,0.035358699263269955,0.3533127773425804,1.0010731279271567,4.825202662742413
9,20,female,262,105,155,change,valid,clock,2,0,4,0.2475041597344898,1,j,change,0.7035905846978494,0.6556241921560544,0.5004753065113619,0.035281405829664436,0.35333362411893177,1.0010439424395372,4.614903264541681
9,20,female,263,165,165,same,catch,clock,3,1,1,0.47510157191118196,0,f,same,0.4804226315172855,0,0.4999425911837534,0.03531572283100104,0.35332400252991647,1.0010638270578056,6.0858999457350365
9,20,female,264,135,185,change,catch,clock,2,1,1,1.1246287670128368,0,f,same,1.9223996372020338,0,0.5003094944559052,0.035304818363329105,0.35332592684790143,1.0010349622898502,8.300671779365075
9,20,female,265,15,15,same,catch,anti,1,0,1,0.3724113113976273,0,f,same,0.38008100095248665,0,0.5005038505605626,0.0353080255599707,0.35330411791164806,1.0010821080777532,5.922117083196099
9,20,female,266,45,45,same,valid,clock,5,0,2,1.3064675040441216,1,f,same,0.8818128870289001,0.6524792160174163,0.49957665007059404,0.03533560745017894,0.35331630525888613,1.0010708828895076,5.803426440384101
9,20,female,267,15,15,same,valid,anti,3,2,2,0.29020252804002666,1,f,same,1.1830834499687626,0.8040215272848954,0.49951667549703416,0.03532598586025415,0.3532823089753947,1.0010657513757906,5.073286042153086
9,20,female,268,45,45,same,valid,anti,1,0,3,1.0375113695117761,1,f,same,0.5482160290548563,0.649200242094115,0.4994813963357956,0.035352284870896256,0.3532823089763042,1.0010962197411573,5.202495006395111
9,20,female,269,15,15,same,catch,clock,1,2,1,0.4032863500442545,0,f,same,0.7857416385177203,0,0.5002729324169195,0.03532438226193335,0.35326659371366986,1.001073448646821,6.26287913872693
9,20,female,270,135,185,change,valid,clock,3,1,2,0.6252625090282891,1,j,change,0.7979979396977797,0.7343292093065021,0.5005311117292877,0.035330155215888226,0.3533236818102523,1.0010397730848126,5.0978685613927155
9,20,female,271,135,185,change,valid,clock,5,1,4,0.3853927596901485,1,j,change,0.6039850057159128,0.7323469472423294,0.4993931984345181,0.03534619119727722,0.3532903269679082,1.0010712036100813,4.625329539433551
9,20,female,272,165,165,same,valid,anti,5,2,4,0.31888705152141483,1,f,same,0.7413428146610386,0.8026821905319894,0.5002559342756285,0.03534298400154512,0.35327942249932676,1.0010654306561264,4.673859873739275
9,20,female,273,75,25,change,catch,anti,2,2,1,0.4285491156479111,0,f,same,0.47446013262378983,0,0.49954137091026496,0.035315402112246375,0.3533198331742824,1.001056771225194,6.061770924069606
9,20,female,274,15,325,change,valid,anti,5,2,4,0.9852061650008181,1,j,change,0.6500159718380019,0.801352030067521,0.5010073804005515,0.035337531767254404,0.35330187287399895,1.0010359244488427,5.28613227504411
9,20,female,275,135,135,same,valid,clock,1,2,4,0.27238815543842065,1,f,same,1.2884972616957384,0.8000184246305411,0.5000041693547246,0.0353112327566123,0.353323040370924,1.0010615820201565,5.1792652826115955
9,20,female,276,135,85,change,valid,anti,4,2,4,0.2579429426923525,1,j,change,0.836209119470368,0.7986964024994914,0.499797305184984,0.03528525446472486,0.3533583195312531,1.001045546037858,4.767271714965318
9,20,female,277,15,15,same,catch,anti,2,0,1,0.41738101621922397,0,f,same,0.6157733769341576,0,0.49964784983149,0.035321816504620074,0.35331470165965584,1.0010490739541638,6.168536248375858
9,20,female,278,165,215,change,valid,clock,1,2,4,0.49805451464271755,1,j,change,0.7758586627014665,0.7974336319057294,0.5003851842920994,0.03533207953296369,0.353493663221343,1.0008752439080126,4.956124590601576
9,20,female,279,45,95,change,valid,clock,3,0,4,0.280222374171899,1,j,change,0.9924762378814194,0.645985434394507,0.5001677363734416,0.03532406154226919,0.3533326619599393,1.0010384902052465,4.908882587104017
9,20,female,280,45,95,change,valid,clock,4,1,4,0.41017155935151095,1,j,change,0.6072800793326678,0.7303613863342595,0.49963181384919153,0.03531027059761982,0.3533031557526556,1.001069600010851,4.649342139867258
9,20,female,281,75,75,same,valid,clock,4,0,2,0.43627076178563584,1,f,same,2.037632601536643,0.6428640549619379,0.4998418852155737,0.03532855161665793,0.35331855029562576,1.0010596577021715,6.09777202478017
9,20,female,282,135,135,same,catch,anti,3,0,1,0.36407099706593726,0,f,same,0.49855098865009495,0,0.49993008311776066,0.03531796786865016,0.3533413213908716,1.0010330379718653,6.015447782351657
9,20,female,283,135,85,change,valid,anti,5,1,2,0.31703104694497597,1,f,same,1.829880679463713,0.7283878337081513,0.5003765248611671,0.03531251563526894,0.35332560612823727,1.0010391316454843,5.850887495397728
9,20,female,284,135,135,same,valid,anti,5,2,3,0.40697173946773546,1,f,same,0.9052645488054623,0.796217781039007,0.4998906346017975,0.03533400385185814,0.3532871197712666,1.0010949368634101,4.932265935596661
9,20,female,285,45,355,change,valid,anti,1,2,3,0.5109185795454323,1,j,change,0.6225745576948611,0.7950375448418421,0.49935214632023417,0.0353032147659178,0.3533037971919839,1.00107954232044,4.755201110459893
9,20,female,286,105,155,change,catch,clock,4,2,1,0.334766201794082,0,f,same,0.3805434786791011,0,0.49978640071731206,0.03537569740547042,0.3532941756029686,1.0010683171321944,5.861884330536668
9,20,female,287,45,355,change,catch,anti,2,2,1,0.37180354767224344,0,f,same,0.30555633953645156,0,0.5009589517349013,0.035305139082993264,0.35332015389394655,1.001055488347447,5.875096376252259
9,20,female,288,15,15,same,valid,clock,3,0,4,0.8828626024214827,1,f,same,0.6114237771280386,0.6396125464997574,0.5000455421895822,0.035329834496224066,0.35333362411984126,1.0010333586915294,5.179549119497096
9,20,female,289,45,355,change,valid,anti,4,0,1,0.2857519015469734,0,j,change,1.2361943022224295,0.6363738041988329,0.49955259609669156,0.035320533625963435,0.35327942249932676,1.0010731279271567,5.238222853969091
9,20,female,290,75,25,change,valid,anti,5,2,2,0.4443759886180487,1,j,change,0.7945502035281606,0.7938826174206852,0.499298586139048,0.03535549206753785,0.353314060221237,1.0010593369825074,4.896241743073006
9,20,female,291,135,135,same,valid,anti,3,0,3,0.21079843796724163,1,f,same,0.9368842984640651,0.6395101503036864,0.5001103275581045,0.03533849392624688,0.35330828726819163,1.0010356037291785,4.79086096546871
9,20,female,292,105,105,same,catch,clock,2,1,1,0.8038161147514984,0,j,change,0.3450718861004134,0,0.49991725433210377,0.035276595035611535,0.35333298267960345,1.0010686378518585,6.333534638362835
9,20,female,293,165,215,change,valid,clock,3,2,2,0.455092835508367,1,j,change,0.7851168766528644,0.7926473184127254,0.5003178331671734,0.035336248888597765,0.3532733288257077,1.0010506775524846,5.01489903104175
9,20,female,294,15,65,change,valid,clock,3,0,4,0.48024399067526247,1,j,change,0.6196659512479528,0.6363854459646386,0.5002831954452631,0.035335286729605286,0.35329064768757235,1.0010224542238575,4.731955029974415
9,20,female,295,105,105,same,valid,clock,2,0,4,0.35281341685731604,1,f,same,0.8519981475228633,0.6333596412558544,0.49988165445120103,0.03531091203694814,0.35328423329428915,1.001095578301829,4.814238220288644
9,20,female,296,45,45,same,catch,anti,3,1,1,0.5636795266691479,0,j,change,0.3237263902237828,0,0.5002694045006137,0.03537216948825517,0.353221692963416,1.0011247637894485,6.038974813244749
9,20,female,297,135,135,same,catch,clock,2,0,1,0.40769175506738975,0,j,change,0.34131946627167054,0,0.5008707538327144,0.03534843623492634,0.3533166259776408,1.0010522811498959,5.94602160111026
9,20,female,298,165,165,same,valid,clock,3,2,4,0.35707770523822546,1,f,same,1.821380646751095,0.7914168369443606,0.49969307130140805,0.03536030286159075,0.35331855029653525,1.001034320850522,5.815537776284145
9,20,female,299,15,325,change,catch,anti,1,1,1,1.5126735574349368,0,j,change,0.3700062347897983,0,0.4992129539941743,0.03536703797453811,0.3532948170422969,1.0010532433088883,7.110321463713262
9,20,female,300,105,105,same,valid,clock,5,1,4,0.20182855097573338,1,f,same,0.7886399819371945,0.7265142133819966,0.4996751110011246,0.03530257332658948,0.3533486979422378,1.0010137947929252,4.649417508983788
9,20,female,301,15,15,same,valid,anti,2,0,1,0.8384685893588539,0,j,change,1.0458372514576695,0.6302269800954252,0.5097235781531708,0.035314119233589736,0.35331790885629744,1.0010269442991557,5.55449828543351
9,20,female,302,15,325,change,catch,anti,2,0,1,0.4088803420672775,0,j,change,0.9391639736904835,0,0.4997957015875727,0.0353080255599707,0.3533387556335583,1.0010400938044768,6.533737782185199
9,20,female,303,165,215,change,valid,clock,5,2,3,0.4391867447857294,1,j,change,0.5598959970348005,0.7901804333559062,0.49987908869479725,0.035354529908545373,0.3533037971928934,1.0010388109258201,4.684575117031272
9,20,female,304,75,75,same,valid,anti,2,0,2,0.6210171431066556,1,f,same,1.5044740390276274,0.6331472616137711,0.5003037215028598,0.035352926310224575,0.35329000624733453,1.0010500361131562,5.685834903790237
9,20,female,305,15,65,change,valid,clock,4,2,4,0.3926240254932054,1,j,change,0.483550289482082,0.7889401595525944,0.499984926176694,0.03532374082260503,0.3532797432189909,1.0010702414510888,4.50824570203622
9,20,female,306,15,325,change,valid,anti,3,0,4,0.4404324198812901,1,j,change,2.1649666387429534,0.6301089365087758,0.4995195619740116,0.035337852486918564,0.35325536852633377,1.0011119350037916,6.239268720725704
9,20,female,307,15,15,same,valid,anti,3,1,4,1.2323337998732313,1,f,same,1.0033377293311787,0.7247089409124223,0.499969852353388,0.035353888469217054,0.3532871197703571,1.0010535640285525,5.862995303381467
9,20,female,308,165,165,same,valid,anti,4,0,4,0.2441074179887437,1,f,same,0.7174851218160256,0.6270376748530297,0.49967863891652087,0.03533111737397121,0.353290968406327,1.0010817873571796,4.578785742601212
9,20,female,309,75,25,change,valid,anti,4,2,4,0.3272206307401575,1,j,change,2.01021331704942,0.7877508367919899,0.5000041693556341,0.035346511917850876,0.35330251431423676,1.0010696000117605,5.991954427021483
9,20,female,310,45,45,same,valid,anti,5,1,3,0.5856388799438719,1,f,same,0.7654974938968735,0.7228504160943836,0.500453497576018,0.03530064900860452,0.3533310583616185,1.00105645050553,4.955907142683827
9,20,female,311,15,65,change,valid,clock,1,2,4,1.8530783312826316,1,j,change,1.240342490092189,0.7866052897440672,0.5002976278292408,0.035359982141926594,0.353298986397931,1.0010689585715227,6.781811540005947
9,20,female,312,15,65,change,catch,clock,1,2,1,0.45382663435520953,0,f,same,0.29627471305229847,0,0.49966516869244515,0.03534458759895642,0.35332175749226735,1.001051639711477,5.862633852342697
9,20,female,313,75,125,change,valid,clock,5,2,2,0.9060461425769972,1,j,change,0.7005976289838145,0.7854935301567609,0.49978094848302135,0.03533304169195617,0.3532925720046478,1.0010433010011184,5.214899480050008
9,20,female,314,15,15,same,valid,clock,5,0,1,0.43758827808233036,0,f,same,1.2859571621193027,0.6240804692478306,0.4993701066205176,0.03530834627963486,0.35333073764195433,1.0010535640285525,5.332270361527662
9,20,female,315,165,215,change,valid,clock,2,0,2,0.4498125072959738,1,j,change,0.6705654415609388,0.6268005939014065,0.4993001897382783,0.03535741638552281,0.3533021935945726,1.0010279064581482,4.766301858762745
9,20,female,316,45,355,change,valid,anti,5,1,4,0.24394385097093618,1,j,change,1.026513892933508,0.7209929246228974,0.5005602972178167,0.03531091203694814,0.35333811419423,1.0010821080768437,4.897915578892935
9,20,female,317,75,75,same,valid,anti,3,2,4,0.23575812350827619,1,f,same,0.8182366320843357,0.7844064133836619,0.499788325035297,0.035288461661366455,0.3533252854085731,1.0010766558434625,4.672949029951269
9,20,female,318,105,105,same,catch,clock,5,1,1,0.23421866921944456,0,f,same,1.1220428045262452,0,0.49991821649109625,0.03528076439033612,0.35335511233552097,1.0010509982721487,6.509718446639454
9,20,female,319,105,155,change,valid,clock,1,1,3,0.4581047136807683,1,j,change,0.6941572578207342,0.7191141445939673,0.5007261092732733,0.03532726873891079,0.3533246439683353,1.0010452253181938,4.861885934134989
9,20,female,320,135,185,change,valid,clock,3,2,3,0.38484432909899624,1,j,change,0.5804028110433137,0.783245483945024,0.5001792822804418,0.035321816504620074,0.3532983449576932,1.0010548469072091,4.579474648394353
9,20,female,321,135,185,change,catch,clock,5,0,1,0.3866891084890085,0,f,same,0.45658161609298986,0,0.4991940315358079,0.03536447221722483,0.3533127773425804,1.001060619861164,6.003370763453859
9,20,female,322,105,105,same,valid,anti,4,0,4,0.28762714930235234,1,f,same,1.0735846321404097,0.6239381071796418,0.5001622841400604,0.03533977680399403,0.35329706207994604,1.0011029548541046,5.038082891916019
9,20,female,323,15,15,same,valid,clock,2,1,4,0.2632130078754926,1,f,same,0.659413057394886,0.7173098537439719,0.5000048107949624,0.035283971586977714,0.3533438871472754,1.0010410559625598,4.602373710225947
9,20,female,324,105,105,same,valid,anti,5,1,4,0.19991642046079505,1,f,same,0.7427911845716153,0.7155799412351529,0.4996552263828562,0.035352605590560415,0.35325216132969217,1.0010830702358362,4.625285921561954
9,20,female,325,15,15,same,valid,anti,2,2,4,0.5592096569971545,1,f,same,0.6178506780661337,0.7820912976111798,0.5001363058490824,0.035314439953253896,0.3533262475675656,1.0010468289165146,4.838450949779144
9,20,female,326,75,75,same,valid,anti,3,0,4,0.29651493206529267,1,f,same,0.9809248784795273,0.6209941517636826,0.4996863361884607,0.035375697404560924,0.3532560099656621,1.0010910882274402,4.931753746326649
9,20,female,327,165,165,same,valid,anti,2,2,4,0.8377678169381397,1,f,same,0.5979968492501939,0.7809342646102779,0.5003444528974796,0.03533207953296369,0.3532861576122741,1.0010721657681643,5.085855044983873
9,20,female,328,75,125,change,valid,clock,1,1,2,0.5469058893104375,1,j,change,1.6374302915855878,0.7138939942668177,0.4999602307643727,0.035353888469217054,0.35328744049093075,1.0010853152743948,5.83893042564614
9,20,female,329,15,15,same,valid,anti,3,0,2,0.45987412395425054,1,f,same,0.7595901587819753,0.6179871972991553,0.5001077617998817,0.035335286729605286,0.353283912574625,1.0010811459178512,4.8377171432348405
9,20,female,330,165,115,change,valid,anti,5,1,3,0.5536422847044378,1,j,change,0.95008287395558,0.7121391150655456,0.5005865962284588,0.03531860930888797,0.353314060221237,1.0010548469081186,5.179894855271414
9,20,female,331,165,165,same,catch,clock,4,0,2,1.063256176739742,1,j,change,2.382343998758188,0,0.500320078203913,0.035313477794261416,0.35329449632263277,1.0010824287965079,8.688935621305063
9,20,female,332,45,45,same,valid,clock,2,1,4,0.5247537835302865,1,f,same,0.6783409685995139,0.7103684094730158,0.5009185410590362,0.0353471533562697,0.3533102115852671,1.0010554883465375,4.86205976418114
9,20,female,333,165,165,same,valid,clock,5,0,4,0.5290103746383465,1,f,same,0.7680295754826147,0.6150857009555697,0.500553882823624,0.03530834627963486,0.35333683131557336,1.0010259821401633,4.932847400310493
9,20,female,334,105,105,same,valid,clock,1,0,4,0.4127402029762379,1,f,same,0.803063706467583,0.6122341548048915,0.499462153157765,0.03532245794394839,0.35328583689260995,1.0010962197420668,4.837248251115852
9,20,female,335,15,15,same,valid,anti,1,0,4,0.29621986999336514,1,f,same,0.7150027517745912,0.6092407997714038,0.5002459919660396,0.03532598586025415,0.35329160984565533,1.0010702414501793,4.673721322853453
9,20,female,336,165,215,change,valid,clock,4,0,1,0.3477438014515428,0,j,change,0.9868001416298284,0.6062985734958769,0.49953431507765345,0.03531893002764264,0.3533204746145202,1.001045546037858,5.025584126686226
9,20,female,337,45,95,change,valid,clock,1,2,2,0.4099964464257937,1,j,change,0.6950424440374263,0.7797614463636582,0.5003428492991588,0.035245164510342875,0.35336313032621547,1.0010930125454252,4.779675226459403
9,20,female,338,75,75,same,catch,clock,1,1,1,0.32554102196718304,0,f,same,0.4950554652550636,0,0.49998588833568647,0.0353503605529113,0.35332015389394655,1.001047470355843,5.95699919306935
9,20,female,339,15,15,same,valid,clock,1,2,3,0.31872091874629405,1,f,same,1.3952959408434253,0.7785993902814161,0.500095253733889,0.03533272097229201,0.3533092494262746,1.0010298307761332,5.367958439865106
9,20,female,340,165,165,same,catch,anti,5,0,1,0.43409724476168776,0,f,same,0.35612869581291307,0,0.4997293126207296,0.035374735245568445,0.3532855161720363,1.001047470355843,5.956396881578257
9,20,female,341,105,105,same,valid,anti,5,0,3,0.3178283559782358,1,f,same,2.005703998860554,0.6091462232462372,0.5000432971519331,0.03532726873891079,0.3532925720046478,1.0010388109249106,5.9445591195344605
9,20,female,342,165,165,same,valid,clock,1,1,3,0.3346145014029389,1,f,same,0.6417276140900867,0.7085846050104905,0.5003050043815165,0.035320854345627595,0.3532983449576932,1.0010712036091718,4.602449720780896
9,20,female,343,135,185,change,catch,clock,5,1,1,0.19592666809512593,0,f,same,2.163727057320102,0,0.4998681842262158,0.03533881464591104,0.35330251431423676,1.0010410559634693,7.452410977848558
9,20,female,344,75,75,same,valid,anti,1,0,1,0.455475133323489,0,j,change,0.854163005117698,0.6062960000235745,0.5001202698667839,0.03533400385185814,0.3532742909856097,1.0010388109258201,5.002759792532743
9,20,female,345,75,75,same,valid,anti,4,2,4,0.5981100632852758,1,f,same,0.7285707962955712,0.7774836886502485,0.49983194290689426,0.03531700571056717,0.3533028350339009,1.0010721657690738,4.943320820991175
9,20,female,346,15,325,change,catch,anti,2,1,1,0.9100926623195846,0,j,change,2.573533316997782,0,0.49995092989502155,0.03534266328188096,0.35328968552857987,1.0010673549741114,8.64229368426004
9,20,female,347,165,165,same,catch,anti,4,1,1,0.38209447887584247,0,j,change,0.23161025635727128,0,0.4995618969669522,0.03535581278629252,0.35331149446392374,1.0010436217207825,5.8386504373975185
9,20,female,348,75,75,same,valid,anti,1,2,3,0.28314797876100783,1,f,same,0.818839264295093,0.7764048288760945,0.5001221941847689,0.03531925074821629,0.3532717252282964,1.0010683171331038,4.719757099770504
9,20,female,349,15,65,change,valid,clock,1,1,1,0.5927748920139493,0,j,change,1.328089460254887,0.7068817086867079,0.499983964018611,0.03532726873891079,0.3532925720046478,1.0010808251990966,5.568128228845126
9,20,female,350,15,65,change,valid,clock,2,1,4,1.2295445011341144,1,j,change,0.6822146204540331,0.7099334402685848,0.49959108245457173,0.03530706340188772,0.35331053230493126,1.0010506775524846,5.615287807394452
9,20,female,351,105,105,same,valid,anti,2,1,4,0.5407118308339705,1,f,same,0.9190279115882731,0.7082296295656463,0.5036594111334125,0.03530930843862734,0.35330187287490844,1.001097823339478,5.042077455076651
9,20,female,352,105,55,change,valid,anti,4,0,4,0.6883073315229922,1,j,change,0.5294090291563407,0.609054664644511,0.49991565073378297,0.0353112327566123,0.3533284926052147,1.0010356037291785,4.837817528483356
9,20,female,353,135,135,same,valid,clock,2,2,4,0.2566077868159482,1,f,same,0.6521256656542391,0.7753541158883595,0.49972193606936344,0.03537216948916466,0.35324510549799015,1.001090767507776,4.543389519139055
9,20,female,354,15,65,change,valid,clock,3,1,4,0.2526619730415405,1,j,change,0.8002189232283854,0.7066053517349142,0.5000750483968659,0.0353487569545905,0.3532948170422969,1.0010821080768437,4.731845023136884
9,20,female,355,75,125,change,catch,clock,4,1,1,0.2658890925822561,0,f,same,0.4302771530865357,0,0.500430405761108,0.03533015521497873,0.35330828726728214,1.0010307929351256,5.8278858032808785
9,20,female,356,135,185,change,valid,clock,1,1,4,0.9458625241668415,1,j,change,0.594498118658521,0.7050335148305003,0.5002427847703075,0.03531411923268024,0.35332656828722975,1.001058374823515,5.215173695344674
9,20,female,357,15,15,same,valid,anti,5,2,4,0.38942388489067525,1,f,same,1.0153092314658352,0.774323510543617,0.5001738300470606,0.03532887233723159,0.353306042229633,1.00105645050553,4.979969133942177
9,20,female,358,165,165,same,valid,anti,4,1,4,0.42838266215221665,1,j,change,0.5196197034756551,0.7034894131546356,0.49908402469736757,0.03536479293688899,0.35328423329337966,1.0010849945538212,4.601253757230552
9,20,female,359,105,105,same,valid,clock,4,0,4,0.243289262178223,1,f,same,3.216086142731001,0.6062910397633192,0.5004765893900185,0.03530225260601583,0.35333137908128265,1.0010795423195304,7.040916449966971
9,20,female,360,105,105,same,valid,anti,2,0,4,0.2835504819131529,1,f,same,0.5654877440201744,0.6036151575806818,0.4995169962166983,0.03533496600994113,0.3532973827996102,1.001025661420499,4.472297520067514
9,20,female,361,45,45,same,valid,anti,2,0,4,0.24606156277695845,1,f,same,0.5931042710872134,0.6008590897577122,0.5001969218610611,0.0352737085577246,0.35342085986212624,1.0009602346126485,4.44975221200275
9,20,female,362,75,25,change,catch,anti,3,2,1,0.5438712400436998,0,f,same,0.3036403603855433,0,0.49956638704134093,0.03534971911358298,0.35329321344397613,1.0010824287965079,6.026570018871098
9,20,female,363,15,15,same,valid,clock,3,1,4,0.26067707765378145,1,f,same,1.6332115453942606,0.7018710197059952,0.5008592079248047,0.035297441811962926,0.3533275304462222,1.0010728072074926,5.581032062984377
9,20,female,364,135,135,same,valid,anti,1,0,2,1.1727136217332372,1,f,same,0.5671734464658584,0.5980686164978377,0.499921744407402,0.03535805782485113,0.3532999485569235,1.0010708828904171,5.508939418625232
9,20,female,365,165,165,same,valid,clock,4,2,4,0.3704408099074499,1,f,same,0.542542177840005,0.7732196131851221,0.49997722890566365,0.035347474076843355,0.3533086079869463,1.0010747315254775,4.531367022579616
9,20,female,366,75,75,same,valid,anti,2,1,4,0.4368066843107954,1,f,same,0.6181518338107708,0.7002293404745599,0.5002305974230694,0.035302894045344146,0.35332817188464105,1.0010612613004923,4.6734836695968625
9,20,female,367,75,75,same,valid,clock,1,1,4,0.2970184619052816,1,f,same,0.5522532479280926,0.6985695862532587,0.49997498386801453,0.03533400385185814,0.3533028350339009,1.0010609405808282,4.496830007042263
9,20,female,368,75,25,change,valid,anti,3,0,4,0.17586789942743053,1,j,change,0.7606302525855426,0.5953977620006956,0.49966613085052813,0.03534907767425466,0.3532662729940057,1.0010840323957382,4.613771444919621
9,20,female,369,45,45,same,valid,clock,3,0,4,0.15775333323927043,1,f,same,2.054790461027551,0.5927901847236334,0.5002511234806661,0.03535645422653033,0.3533005899953423,1.0010593369825074,5.838859225885244
9,20,female,370,45,45,same,valid,anti,1,1,4,0.6535368320855923,1,f,same,0.5507894834745457,0.6969831134664237,0.5006959616266613,0.035281405829664436,0.3533156638186483,1.0010750522451417,4.861908384509661
9,20,female,371,135,185,change,valid,clock,4,1,4,0.33547627508505684,1,j,change,0.7217247147837043,0.6954499251667768,0.5004724200352939,0.035351964151232096,0.3532996278363498,1.001043621719873,4.708860329161325
9,20,female,372,105,55,change,valid,anti,2,2,4,0.36835966013950383,1,j,change,0.595139237226249,0.7721194825370727,0.5001141761931649,0.035341059682650666,0.35325857572206587,1.0010724864878284,4.649755547487985
9,20,female,373,45,95,change,valid,clock,4,0,4,0.2709814790814562,1,j,change,0.5766423732229669,0.5900834861884778,0.5000109044685814,0.035337531767254404,0.353290968406327,1.001062544179149,4.531772412208738
9,20,female,374,45,45,same,valid,anti,3,1,4,3.338568653888615,1,f,same,1.3939928569325275,0.6939465153511135,0.5001959597020686,0.03532374082260503,0.3533037971919839,1.001024378540933,8.276991444482519
9,20,female,375,45,95,change,catch,clock,4,1,1,0.4425421136966179,0,f,same,1.5520521567113974,0,0.5003906365263902,0.03534458759986592,0.35329225128498365,1.0010593369825074,7.111010690226976
9,20,female,376,45,45,same,valid,clock,4,0,4,0.23244476887066412,1,f,same,1.6217708342692276,0.5873986573495418,0.5003386799435248,0.03530930843862734,0.3533294547642072,1.0010461874780958,5.54469164089096
9,20,female,377,105,55,change,catch,anti,3,1,1,0.5333798590627339,0,f,same,0.344683815332246,0,0.5003890329280694,0.03532566514058999,0.3532948170422969,1.0010785801614475,6.027830767790874
9,20,female,378,105,105,same,valid,clock,2,2,4,0.1748576325499016,1,f,same,0.678241866229655,0.771014427922903,0.4998037195782672,0.035342663280971465,0.35327076306839444,1.0010651099364622,4.4964319939645065
9,20,female,379,165,165,same,catch,clock,1,0,1,0.5129852969284912,0,j,change,0.1600426300547042,0,0.500008980149687,0.03531347779335192,0.35330411791164806,1.0011000683771272,5.8859094390354585
9,20,female,380,15,15,same,valid,clock,3,2,4,0.29060663479140203,1,f,same,0.5094945843284222,0.7698932563677443,0.5001241185027538,0.03533496600994113,0.3532733288257077,1.0010750522451417,4.437566789865741
9,20,female,381,135,85,change,valid,anti,4,1,4,0.33119979935781885,1,j,change,0.5524017411225941,0.6923745255393652,0.49976587465971534,0.03532919305598625,0.3532832711352967,1.0010593369825074,4.5552917458308
9,20,female,382,165,115,change,catch,anti,5,2,2,0.7872294569442602,1,f,same,0.909851481147598,0,0.4997479143603414,0.035346832637515035,0.3532964206406177,1.001065751374881,6.851770757295526
9,20,female,383,75,75,same,valid,clock,5,0,2,0.5444081247269423,1,j,change,1.1450512317560424,0.5848382145108102,0.5003345105878907,0.035304818363329105,0.35330989086560294,1.00107569368447,5.368127779837778
9,20,female,384,45,95,change,valid,clock,2,1,3,0.5322656790212932,1,j,change,0.5662359829484558,0.6907840841656119,0.4998357915419547,0.03532374082260503,0.35329064768757235,1.0010872395914703,4.73136490583056
9,20,female,385,105,155,change,valid,clock,3,2,2,0.9200243875211527,1,j,change,0.6457471933817942,0.7687648474425257,0.49995317493267066,0.03532342010294087,0.35332496468890895,1.0010378487659182,5.156217727585499
9,20,female,386,75,25,change,valid,anti,2,2,2,0.9390533254136244,1,j,change,0.5211665343167624,0.7676803138823682,0.4999329695947381,0.03535549206753785,0.3533095701459388,1.0010676756937755,5.131930591137461
9,20,female,387,135,135,same,valid,clock,2,1,4,0.24204134204501315,1,f,same,0.72913430070912,0.6891501622063924,0.5006472122404375,0.03529487605464965,0.353331058362528,1.0010574126645224,4.590821067945399
9,20,female,388,165,165,same,valid,clock,5,1,2,0.40568757801520405,1,f,same,0.6937258899006338,0.6875626531235415,0.5007139219269447,0.03532213722519373,0.353268838751319,1.001103917013097,4.732974597721295
9,20,female,389,165,115,change,valid,anti,4,1,3,0.4460895936736051,1,j,change,0.5882921935553895,0.6860334156229848,0.49964047328012384,0.03532566514058999,0.3533236818102523,1.001082749516172,4.696613649571191
9,20,female,390,105,105,same,valid,clock,3,0,4,0.3896820642030434,1,f,same,0.9027600491090197,0.5822468778627514,0.4996504155878938,0.03537858388153836,0.35330411791255756,1.001057412665432,4.825669630543416
9,20,female,391,165,165,same,valid,clock,1,0,4,0.27321978147392656,1,f,same,0.5831728666053095,0.5796260196434382,0.5003630546370914,0.03532342010294087,0.3533310583616185,1.0010089839988723,4.472841460582458
9,20,female,392,165,165,same,catch,anti,3,0,1,0.3068443496249529,0,j,change,0.6589589183795397,0,0.5004018617137262,0.035300007569276204,0.35333137908128265,1.0010365658872615,6.133707057243555
9,20,female,393,75,75,same,valid,clock,1,0,1,0.46561340197604295,0,f,same,1.1919584039451365,0.5770743807451495,0.500107441081127,0.03529712109229877,0.3533365105959092,1.0010394523651485,5.297615962601412
9,20,female,394,165,165,same,valid,anti,1,2,4,0.33396600628384476,1,f,same,0.7190531201531485,0.7666307824538285,0.4992751736053833,0.0353455497588584,0.35330026927658764,1.00104265956179,4.696237766149352
9,20,female,395,135,185,change,catch,clock,4,1,4,0.31471994119328883,1,j,change,0.8049639703558569,0,0.4992171233507179,0.035353888469217054,0.3533111737442596,1.0010532433088883,6.262230002167598
9,20,female,396,75,75,same,valid,clock,1,2,4,1.8110663030138312,1,j,change,1.920832601022994,0.7656081022831474,0.5000291854876195,0.035337531767254404,0.35326819731199066,1.0010500361131562,7.4647596462846195
9,20,female,397,165,215,change,valid,clock,4,1,2,0.988675710105781,1,j,change,0.8610238397332068,0.6845390808971601,0.49980083310128975,0.03532919305689575,0.3533005899962518,1.0010413766831334,5.4739386424835175
9,20,female,398,45,45,same,catch,clock,2,1,2,1.2422927862453434,1,j,change,0.8016724246526792,0,0.4992418187630392,0.03532823089790327,0.3533127773425804,1.0010679964125302,7.26315207114294
9,20,female,399,75,25,change,valid,anti,5,1,4,0.6179247643030976,1,j,change,0.6613072276095409,0.6829826377223964,0.49998588833568647,0.03537858388153836,0.3532957792012894,1.0010279064572387,4.95557359425311
9,20,female,400,75,75,same,catch,clock,3,0,1,0.33773478281545977,0,f,same,0.4174374628773876,0,0.50035215016851,0.03531572283100104,0.3533220782119315,1.0010509982721487,5.944892667964268
9,20,female,401,105,155,change,valid,clock,3,0,1,0.43926211390134995,0,j,change,0.6170979490616446,0.5795129249066111,0.5049682679982652,0.03531347779335192,0.35331855029562576,1.0010577333841866,4.784251254334777
9,20,female,402,45,95,change,valid,clock,4,2,3,1.0616452019703502,1,j,change,0.5048714106660555,0.7646047022513536,0.4992527232307111,0.03529327245632885,0.3533256061273278,1.001045546037858,5.226116970302428
9,20,female,403,15,325,change,valid,anti,1,1,4,0.8440394895687859,1,j,change,0.43739039406136726,0.6814139140353287,0.49924759171608457,0.035327589457665454,0.3533349069975884,1.0010612613014018,4.908224791115572
9,20,female,404,45,95,change,valid,clock,1,1,4,0.7114068431301348,1,j,change,0.499274532166055,0.6798037580479784,0.4998601662346118,0.0353766595635534,0.35331951245461823,1.0010676756937755,4.813931291589142
9,20,female,405,15,65,change,valid,clock,4,0,3,1.1783470622722234,1,j,change,0.8365997559967582,0.5819016598300606,0.5004842866619583,0.03529391389565717,0.3533333033992676,1.0010307929351256,5.650752344140528
9,20,female,406,105,155,change,valid,clock,1,2,3,0.9126109529606765,1,j,change,0.6105741907922493,0.763529889236638,0.5005416954782049,0.03533496600994113,0.3533134187809992,1.0010891639094552,5.144958864498221
9,20,female,407,45,45,same,valid,clock,2,2,4,1.1863259255642333,1,f,same,0.7056797524555805,0.7624588810735791,0.4994987151967507,0.03532951377565041,0.35330989086560294,1.001064468497134,5.532400701991719
9,20,female,408,135,135,same,valid,anti,5,0,4,0.8578487152608432,1,f,same,0.6197207943077956,0.5794046012146196,0.500146568877426,0.035319250747306796,0.35329609992095357,1.0010840323957382,5.085886154789478
9,20,female,409,45,45,same,valid,anti,5,0,4,0.3631457208948632,1,f,same,0.6275694454243421,0.5769903593525283,0.4994916593650487,0.035319571466970956,0.35328968552767037,1.001056771225194,4.590602657867748
9,20,female,410,45,355,change,valid,anti,2,2,4,1.4429003575378374,1,j,change,0.5561788563645678,0.7613833809523363,0.4992017288068382,0.03531251563435944,0.35330026927567815,1.0010894846291194,5.614384981597141
9,20,female,411,165,215,change,valid,clock,1,1,4,1.3452239072121301,1,j,change,0.8123709905230498,0.6781801873717223,0.49991725433210377,0.03533015521497873,0.35328102609764755,1.0010808251990966,5.756509646605082
9,20,female,412,15,325,change,catch,anti,5,0,1,0.4560505043637022,0,f,same,0.7163456049220258,0,0.49998364329803735,0.03529166885800805,0.3532614621990433,1.0011000683780367,6.227724417156423
9,20,female,413,165,215,change,catch,clock,4,2,1,0.6297083247272894,0,f,same,1.0819919768773616,0,0.5003707519081217,0.035357095664949156,0.35328198825664003,1.0010910882274402,6.817193010363553
9,20,female,414,105,55,change,valid,anti,2,1,4,0.4664671576665569,1,j,change,0.6970642606702313,0.6766217270848887,0.499655867823094,0.035317647148986,0.35330732510828966,1.0010445838788655,4.837580516666094
9,20,female,415,45,355,change,valid,anti,3,1,4,0.4042513954509559,1,j,change,0.6288250628285823,0.6751042276802978,0.49951827909535496,0.035370565890843864,0.3532566514049904,1.0010894846291194,4.684178386831263
9,20,female,416,165,215,change,catch,clock,2,1,1,0.5806260319159264,0,f,same,0.48666672225863294,0,0.500095253733889,0.03530930843862734,0.3533015521552443,1.0010824287974174,6.203562040649558
9,20,female,417,165,165,same,valid,clock,4,1,4,0.5623847814676992,1,j,change,0.7631883124631713,0.67360516065774,0.5011109728457086,0.03538082891918748,0.35327236666671524,1.0010439424395372,4.980143605427656
9,20,female,418,15,65,change,valid,clock,1,0,2,0.6881206726902747,1,j,change,0.7090008043642229,0.5746792140961692,0.49985503472089476,0.03529198957767221,0.3533451700268415,1.0010413766831334,5.014268175503275
9,20,female,419,105,105,same,valid,clock,4,1,4,0.49572961794547155,1,j,change,0.91736305591985,0.672025392898588,0.5004082761061,0.03543727557644161,0.3531992425887438,1.0010490739541638,5.061854631897404
9,20,female,420,165,215,change,valid,clock,2,2,2,1.7740401823230059,1,j,change,0.6252346064193262,0.7602952272690615,0.5000009621589925,0.035353247029888735,0.3533188710161994,1.0010670342544472,6.039485719637014
9,20,female,421,75,125,change,catch,clock,5,2,2,0.8437376923830016,1,f,same,3.0283294868359008,0,0.4998476581695286,0.03534522903828474,0.3533326619608488,1.0010593369825074,8.982882230463474
9,20,female,422,135,185,change,valid,clock,1,2,1,0.32716290120424674,0,j,change,0.65148518852493,0.7591761144751428,0.5004599119683917,0.035353567749552894,0.3532935341636403,1.0010721657681643,4.626607286493709
9,20,female,423,15,325,change,valid,anti,4,1,1,0.5270924711703628,0,j,change,0.908381623020432,0.6704150045961197,0.4994259118384434,0.035313798513925576,0.35334164210962626,1.0010407352428956,5.143256805349665
9,20,female,424,75,75,same,catch,clock,4,2,2,0.498362405500302,1,j,change,0.7163019870513381,0,0.5004547804546746,0.03530610124198574,0.3533371520352375,1.0010397730848126,6.39286199946946
9,20,female,425,105,105,same,catch,anti,3,1,1,0.18895422304467502,0,j,change,1.0320155176996195,0,0.5002152028810087,0.03532245794394839,0.3533724311964761,1.0009967966525437,6.45176601064486
9,20,female,426,45,355,change,valid,anti,3,0,2,0.4714767984996797,1,j,change,0.5890895025895588,0.5723361573090215,0.4997915322319386,0.035330155215888226,0.3532566514049904,1.0011141800423502,4.778552707707604
9,20,female,427,135,135,same,valid,clock,3,2,4,0.26619634200051223,1,f,same,1.0860397794986056,0.7630886599404654,0.4998171898023429,0.03527499143638124,0.3533503015405586,1.0010590162637527,4.932148552207764
9,20,female,428,165,165,same,valid,anti,4,2,1,0.6642591312092918,0,j,change,1.4507053907846057,0.7620794208127513,0.5000968573322098,0.03533079665430705,0.3533108530236859,1.0010503568328204,5.779937575129225
9,20,female,429,45,355,change,valid,anti,4,2,3,0.4873094444237722,1,j,change,0.5992226397283957,0.765565048985043,0.5004781929883393,0.03532726873891079,0.3532893648080062,1.0010356037291785,4.743872009769802
9,20,female,430,135,135,same,catch,clock,1,0,1,0.4665932004872957,0,f,same,0.9751423033058018,0,0.5004797965866601,0.03529968684870255,0.35331213590325206,1.0010878810307986,6.4867953308357755
9,20,female,431,165,165,same,catch,clock,1,1,1,0.5557805225680568,0,f,same,0.4101805395021074,0,0.5009297662463723,0.03531251563526894,0.35331855029562576,1.0010301514948878,6.099221036130075
9,20,female,432,45,355,change,valid,anti,1,1,3,0.3410205555628636,1,j,change,0.8508554234331314,0.6731415042426068,0.4996696587668339,0.03535100199223962,0.3533111737442596,1.0010647892158886,4.83752567360807
9,20,female,433,105,155,change,valid,clock,2,2,4,0.2634519440098302,1,j,change,0.5488311693316064,0.7646722621945579,0.4999416290247609,0.03534298400154512,0.3532941756029686,1.0010445838788655,4.472455314132276
9,20,female,434,105,155,change,catch,clock,4,0,1,0.49581589152967354,0,f,same,0.36910725762936636,0,0.5006103294817876,0.03526408696870931,0.353353188017536,1.0010696000117605,5.9689729402425655
9,20,female,435,75,75,same,valid,anti,5,1,4,0.2967144196836671,1,j,change,0.5923082449326103,0.6716101803792929,0.5006805670836911,0.03531219491560478,0.35331951245552773,1.001030472214552,4.568125663087812
9,20,female,436,75,75,same,catch,anti,1,0,1,0.4843299589347225,0,f,same,0.34444423775858013,0,0.4991706190012337,0.03535324702897924,0.35327461170436436,1.0010433010002089,5.956263141487398
9,20,female,437,75,25,change,valid,anti,2,0,4,0.2778615568759051,1,j,change,0.4791080016984779,0.569967105248893,0.5001558697467772,0.03536158574115689,0.35330892870661046,1.0010465081968505,4.449112055594924
9,20,female,438,105,155,change,valid,clock,3,1,2,0.5647000565750204,1,f,same,2.0413808520106613,0.6700433139163078,0.4998867859658276,0.03530353548558196,0.3533102115852671,1.0010580541038507,6.145190744800857
9,20,female,439,75,25,change,valid,anti,4,1,3,0.4326164821668499,1,f,same,1.3675475980026022,0.6684309347730941,0.49956959423798253,0.035304818363329105,0.3532774981813418,1.0010789008811116,5.403314252653217
9,20,female,440,135,185,change,valid,clock,5,0,2,0.8263113905504724,1,j,change,2.314878697416134,0.5676404834490955,0.49977453409064765,0.03532694801924663,0.353283912574625,1.0010779387221191,6.922011566432957
9,20,female,441,105,55,change,catch,anti,5,1,1,0.2204049534502701,0,j,change,0.7246734111868136,0,0.5005352810849217,0.03531989218754461,0.3533047593509764,1.001069600010851,6.215944384647628
9,20,female,442,165,115,change,valid,anti,3,2,2,0.3362421535939575,1,j,change,1.3770620669483833,0.7637159323176779,0.5009797985112527,0.03532887233723159,0.35327878105999844,1.0010801837597683,5.428177080861133
9,20,female,443,105,155,change,catch,clock,5,2,1,0.27460304529722634,0,j,change,0.6524746086261075,0,0.49949358368303365,0.03531155347627646,0.35332977548387134,1.001055488347447,6.109595995879317
9,20,female,444,15,15,same,catch,anti,3,2,1,0.5024470908801959,0,j,change,0.8910727045767999,0,0.4997084658443782,0.03532791017823911,0.35331951245461823,1.0010542054687903,6.498615132579289
9,20,female,445,75,125,change,valid,clock,5,1,4,1.0612087025356232,1,j,change,0.7268626434743055,0.6668825283797334,0.49987524005882733,0.03532887233723159,0.35333202052152046,1.0010702414501793,5.414941622610968
9,20,female,446,45,45,same,catch,anti,1,0,1,0.3082321035235509,0,j,change,0.4632272478283994,0,0.4995147511790492,0.035332079533873184,0.35328679905160243,1.0010564505064394,5.944184518991278
9,20,female,447,45,355,change,valid,anti,2,1,4,0.3698308011453264,1,j,change,0.8213492162258262,0.6653761084835998,0.5001388716054862,0.035261841931969684,0.353353188017536,1.0010814666375154,4.802469733687758
9,20,female,448,45,95,change,valid,clock,1,0,4,0.23840181552986905,1,j,change,0.6223471674684333,0.5654289131908308,0.5002440676480546,0.03534779479559802,0.3532839125737155,1.0010099461578648,4.461591256926113
9,20,female,449,15,325,change,catch,anti,1,2,1,0.44497028211753786,0,j,change,0.34679222626891715,0,0.4993806903685254,0.035316364271238854,0.35332560612823727,1.001065751374881,5.979325128896562
9,20,female,450,105,155,change,valid,clock,5,0,3,0.7527466430274217,1,f,same,1.3697669779357966,0.5632730154886998,0.5008906384500733,0.03532245794394839,0.3533086079869463,1.0010234163819405,5.698203136125812
9,20,female,451,45,45,same,valid,clock,3,1,1,3.506327798568236,0,j,change,6.068025598559871,0.6638895943901015,0.5050327326471233,0.03535613350686617,0.35330251431332726,1.0010679964125302,13.34580280616865
9,20,female,452,15,65,change,catch,clock,1,2,1,0.39024268214052427,0,j,change,0.9957822159676653,0,0.49998685049467895,0.035322137224284234,0.3533573573722606,1.0009948723345587,6.569309760012402
9,20,female,453,105,105,same,valid,clock,2,1,4,0.30060378680082067,1,f,same,1.1152506039152286,0.6664493925305677,0.49972097390946146,0.03531700570965768,0.35333458627792425,1.001030472214552,4.979489978793936
9,20,female,454,105,155,change,valid,clock,5,1,2,0.4997023721707592,1,f,same,2.041796183949373,0.6650024706836801,0.49961802290454216,0.03531219491560478,0.3532999485569235,1.001092691825761,6.1448225586500484
9,20,female,455,105,155,change,valid,clock,4,0,2,0.7680331033989205,1,j,change,0.820789881167002,0.5610490175044645,0.49959172389390005,0.03535549206753785,0.3532685180307453,1.0010840323948287,5.296262204986306
9,20,female,456,165,165,same,valid,clock,4,0,4,0.28931605894558743,1,f,same,1.0622423819459073,0.5587984390540219,0.5008399647458646,0.03534426687929226,0.3533054007903047,1.0010612613004923,4.8858533130978685
9,20,female,457,105,155,change,valid,clock,1,0,4,0.21046681385541888,1,f,same,1.3016252788656857,0.5566546829621074,0.5002386154146734,0.03532887233632209,0.35330347647231974,1.0010372073274993,5.0738883536432695
9,20,female,458,75,125,change,valid,clock,1,0,4,0.20024772385295364,1,j,change,0.6107679054566688,0.5545919876675958,0.5000949330151343,0.035316043551574694,0.3533111737442596,1.001070562170753,4.460884070111206
9,20,female,459,165,115,change,valid,anti,1,0,4,0.19974483545138355,1,j,change,0.8159588811759022,0.5524950525524178,0.500127325698486,0.03530770484030654,0.3532951377610516,1.001038490206156,4.637469419381887
9,20,female,460,45,95,change,catch,clock,2,0,1,0.5311707421578831,0,f,same,0.9796115315393763,0,0.5005205279812799,0.035322137224284234,0.35332977548387134,1.001066713534783,6.545865154067542
9,20,female,461,15,15,same,valid,clock,2,2,4,0.2421446137705061,1,f,same,0.8225730823851336,0.762763696167065,0.5007572190779683,0.03528268870741158,0.35335286729787185,1.0010330379718653,4.627088045239361
9,20,female,462,45,95,change,valid,clock,2,0,2,0.5995414350536521,1,j,change,0.7928215246502077,0.5503742942292067,0.4992257827807407,0.03537762172345538,0.35328102609764755,1.0010590162628432,5.049278252513432
9,20,female,463,105,55,change,valid,anti,2,0,3,0.319457291047911,1,j,change,0.7589798293001877,0.5482511381692178,0.5001648498973736,0.03534490831953008,0.3532935341636403,1.0010423388412164,4.71990976232064
9,20,female,464,15,15,same,valid,clock,4,2,4,1.3932789350055828,1,f,same,0.9443541796827049,0.7618089480799073,0.5007379758999377,0.03530129044702335,0.35330892870661046,1.0010769765631267,5.934025724281128
9,20,female,465,135,135,same,valid,anti,4,2,4,0.25816520140597277,1,f,same,0.9832488130159618,0.7608452045209473,0.49969307130140805,0.03532534442092583,0.35330668366896134,1.001036565888171,4.79031734567252
9,20,female,466,165,115,change,catch,anti,3,0,1,0.08753786095348914,0,j,change,0.639429337123147,0,0.5004201427336739,0.03536607581554563,0.3533012314346706,1.0010529225892242,6.016009683166885
9,20,female,467,105,105,same,valid,clock,5,0,3,0.38393765466662444,1,f,same,0.8733064399220893,0.5462361689930384,0.500384222133107,0.035298724690619565,0.3533429249882829,1.0010442631592014,4.802897573692462
9,20,female,468,15,15,same,valid,anti,5,1,4,0.30062238854043244,1,f,same,0.7767951640607862,0.663569891249885,0.4998011538209539,0.03533977680490352,0.35328647833193827,1.001030472214552,4.637353318870737
9,20,female,469,135,135,same,catch,clock,4,2,1,0.1268728423583525,0,j,change,0.6316554136828927,0,0.5003399628221814,0.03535420918797172,0.35329321344397613,1.001064468497134,5.968855877572423
9,20,female,470,15,325,change,valid,anti,5,0,4,0.3699395251032911,1,j,change,0.6812854956469891,0.5442848431634022,0.5004974361672794,0.03534522903828474,0.3532733288257077,1.00107954232044,4.72108776557161
9,20,female,471,75,125,change,catch,clock,2,2,2,2.198878571694877,1,j,change,1.5249144640711165,0,0.4994422685394966,0.03528461302630603,0.35333202052061097,1.001071524328836,9.076628582278317
9,20,female,472,75,75,same,valid,anti,5,0,2,0.4853366978959457,1,f,same,1.352357994963313,0.5422901630025603,0.5002915341565313,0.03532694801924663,0.35332432324867113,1.0010407352428956,5.403406940629793
9,20,female,473,135,135,same,valid,clock,5,1,3,0.6547930909291608,1,f,same,0.9991933900955701,0.6620577650062907,0.49981590692459577,0.03533560745017894,0.3532736495453719,1.0010869188718061,5.191352885258311
9,20,female,474,135,85,change,catch,anti,3,1,1,0.7607582197242664,0,j,change,0.6568732785372049,0,0.49931013204695773,0.03532951377565041,0.353284874732708,1.0010753729648059,6.603267235152998
9,20,female,475,45,355,change,catch,anti,5,0,1,0.15627674000006664,0,j,change,0.650601285187804,0,0.50107569368447,0.035341701121978986,0.3532880819293496,1.0010747315254775,6.005208166292505
9,20,female,476,135,135,same,valid,anti,2,2,3,0.5344715887304119,1,f,same,0.8687275255706481,0.7598621554021685,0.5002706873792704,0.03532021290720877,0.35332560612823727,1.0010843531154023,5.026145065343371
9,20,female,477,165,215,change,valid,clock,3,0,1,0.5160773550123849,0,j,change,0.23191077066348953,0.5402641884943702,0.4999913405690677,0.03532534442092583,0.3533092494262746,1.0010532433097978,4.449120073585618
9,20,female,478,45,45,same,valid,clock,1,0,4,0.26408921394158824,1,f,same,1.447776258279191,0.5421499915210874,0.49970910728370654,0.035337852486918564,0.3532774981813418,1.0010869188727156,5.2262394852059515
9,20,female,479,75,75,same,catch,anti,3,2,1,0.22487963391813537,0,j,change,1.2708955262178279,0,0.500041052114284,0.035336569608261925,0.3532919305653195,1.001058374823515,6.710664377156718
9,20,female,480,165,215,change,valid,clock,5,0,3,0.5043390160572017,1,j,change,0.8413653291800074,0.5401608686868351,0.4997350855746845,0.03534105968356016,0.35330251431423676,1.0010333586915294,5.0494947382740065
