subject,age,gender,ntrial,memory_ori,test_ori,type,trial_type,which_change,trial,quest,pas,pas_rt,vis,test_key,test,test_rt,contrast,fix_dur,target_dur,mask_dur,retention_dur,trial_dur
27,22,female,1,75,75,same,catch,clock,4,2,1,1.6385507623801914,0,f,same,1.641578666823989,0,0.5069483687930187,0.0353601894548774,0.3532792516223253,1.0010801802951619,8.684337514007439
27,22,female,2,135,85,change,valid,anti,2,0,1,1.226654731657959,0,j,change,1.8212333683344468,0.2,0.5002418218357434,0.035410542277418244,0.35329528755312367,1.001015074416273,6.993030784496909
27,22,female,3,75,75,same,valid,anti,3,1,1,1.5620459025309401,0,j,change,2.729587703391644,0.2,0.49992398968834095,0.03533068334240852,0.3533693735531642,1.001037204000795,8.171320507582095
27,22,female,4,135,135,same,valid,clock,3,1,1,1.2978276445335268,0,j,change,3.6819616305077716,0.33948538693435915,0.4997854392465797,0.03529732860636159,0.3533289630076979,1.0010455426847784,8.876965283492837
27,22,female,5,165,165,same,catch,clock,4,1,1,1.2982304671138536,0,j,change,4.238815098662712,0,0.4999830019133924,0.03530278082291716,0.3533491682804879,1.001042335498596,10.926504122196434
27,22,female,6,75,75,same,valid,anti,1,0,1,0.8642795793967935,0,j,change,4.399511160687098,0.3150270229513009,0.5004361773163737,0.035334852684400175,0.3532968911462149,1.0010750487972473,9.077938472058008
27,22,female,7,45,45,same,valid,clock,5,1,2,5.278015893531688,1,j,change,5.059574124165579,0.43994886294822894,0.4998537523116511,0.035420484554606446,0.3531708487305423,1.0010833874812306,14.141519654598824
27,22,female,8,165,165,same,valid,clock,2,0,1,1.1395000894805207,0,j,change,3.1545886174397992,0.3996559747928428,0.4999576651428015,0.03534800214754341,0.35330715414193037,1.001035600407704,8.02943940310422
27,22,female,9,15,325,change,catch,anti,4,0,1,1.5782935075648084,0,j,change,3.101857345642884,0,0.5002985890305354,0.03534254993110153,0.35326000850545825,1.0010593335852036,9.996978509928567
27,22,female,10,45,45,same,valid,anti,5,0,1,1.6172178429877704,0,j,change,2.3377955983294214,0.46690619962159796,0.49941340565317205,0.03537622538567575,0.35333666025439925,1.0010439390916872,7.8755554044614655
27,22,female,11,45,355,change,valid,anti,5,0,2,2.130877890235979,1,j,change,1.6947871679199125,0.5261480498876727,0.5001683772728711,0.035292838545728955,0.35332832157041594,1.0010121879488452,7.582486903455333
27,22,female,12,135,135,same,valid,clock,4,2,1,1.2433067628651315,0,j,change,4.193602112637791,0.2,0.49980500308220144,0.03534639855445221,0.353311323483922,1.0010535606502344,9.19487568625766
27,22,female,13,135,135,same,valid,clock,1,1,1,1.3238876355917455,0,j,change,1.9247831461084388,0.39088304290965636,0.5006270048920669,0.03530727088332242,0.35333569809859,1.0010651065201728,6.87591076068702
27,22,female,14,15,325,change,valid,anti,5,1,1,1.7098073828142333,0,j,change,3.021318487054941,0.44828958311675393,0.5002411803984614,0.035360510173632065,0.35322248442753335,1.001134381741167,8.606875950529911
27,22,female,15,105,155,change,valid,clock,1,2,1,1.1579269775027115,0,j,change,1.4986658105617607,0.3670372117912738,0.49996664526406676,0.035352812926703336,0.35326481928473186,1.0010599750223719,6.427670575799084
27,22,female,16,105,105,same,valid,anti,3,0,1,0.9555067065471121,0,j,change,2.4029636965769896,0.4765267225848829,0.5004105198272555,0.03530149794823956,0.35329272180410953,1.001081463169612,7.087930781225623
27,22,female,17,45,45,same,catch,anti,2,1,1,1.5376789850411114,0,j,change,8.47244064941674,0,0.500097819177654,0.03523222272747262,0.3533055505486118,1.0010221302259197,15.22510020853133
27,22,female,18,165,165,same,valid,clock,1,0,1,1.5585875937060791,0,j,change,2.743747109523383,0.5132116843804971,0.5007443879053426,0.035303101541558135,0.35332832157041594,1.001054843524571,8.124121952611858
27,22,female,19,135,185,change,valid,clock,3,1,1,1.1702858693304279,0,j,change,1.5148476682793444,0.500404820568151,0.5006295706411947,0.035350247177802885,0.3532779687479888,1.0010718416112923,6.53495832903036
27,22,female,20,135,85,change,valid,anti,3,0,1,0.9231195786526314,0,j,change,2.7257980922372553,0.5461341195155605,0.4997376521728256,0.035360830892159356,0.353303305518466,1.0010500327452974,7.463934550310796
27,22,female,21,75,125,change,valid,clock,3,2,1,2.081350597402661,0,j,change,1.12900745927368,0.4895303947352734,0.49997658754114127,0.03534158777506491,0.35328534527616284,1.0010606164596538,7.1345930946715725
27,22,female,22,105,55,change,valid,anti,1,1,1,1.6410664791960698,0,j,change,1.7079314996353787,0.5480888396782269,0.49963341862303423,0.03534319136815611,0.35329208036705495,1.0010618993339904,7.263487660992723
27,22,female,23,135,185,change,valid,clock,5,2,2,6.343960130827554,1,j,change,4.209169473489055,0.5890718826496524,0.5003030790912817,0.03535377508273996,0.35331260635825856,1.0010125086673725,14.578089209807104
27,22,female,24,165,115,change,valid,anti,2,0,1,1.4483944505416275,0,j,change,4.774722434074647,0.5790471055021812,0.5002116742859926,0.035320420346806713,0.3532760444361429,1.0010586921480353,10.161027685072213
27,22,female,25,75,75,same,valid,clock,4,0,1,0.7116883974908887,0,j,change,3.66253281753211,0.6099801165158072,0.5006513795069623,0.03528770704792805,0.35329785330191044,1.001101989161043,8.347974886449492
27,22,female,26,135,135,same,catch,clock,2,2,1,0.5450920751070498,0,j,change,1.7550736081293508,0,0.5002046184763458,0.035343191368383486,0.3533077955792123,1.0010317517842395,7.735741010738366
27,22,female,27,45,95,change,valid,clock,4,2,1,0.6230148319530144,0,j,change,1.3960727364160448,0.5603416314053,0.4997594610388205,0.03540733509134952,0.3532831002457897,1.0010596543038446,5.9918733110155245
27,22,female,28,75,75,same,valid,clock,3,1,1,0.6613711747088473,0,j,change,1.0172601137012407,0.593708765161124,0.4999810776016602,0.035352171489648754,0.35327347868746983,1.0011045549099435,5.603666840068399
27,22,female,29,105,105,same,valid,clock,2,0,1,1.9697434058650742,0,j,change,3.318543180592087,0.6396106318961186,0.4998399614112259,0.03532907974908994,0.353267705752387,1.001050994901334,9.147772384716063
27,22,female,30,75,75,same,valid,clock,2,2,1,0.935565064506136,0,j,change,4.527854090990331,0.6265886145505621,0.5005586918273366,0.03533902202616446,0.35329592899029194,1.0010471462778696,9.407911101931404
27,22,female,31,165,165,same,valid,anti,5,1,1,0.5846017220023896,0,j,change,1.7416380639115232,0.6355241182056973,0.5001350225368242,0.03531336453715994,0.3533183792933414,1.0010439390916872,6.298626554603288
27,22,female,32,135,85,change,valid,anti,3,2,1,0.7197095700512364,0,j,change,1.808500839320459,0.6874721875693994,0.4997578574457293,0.03530021507390302,0.35331773785605947,1.0010795388579936,6.4396478124745045
27,22,female,33,105,155,change,catch,clock,1,1,1,0.5578435265192638,0,f,same,1.5196812185256476,0,0.49990538800852846,0.03532843831203536,0.3533170964190049,1.0010420147800687,7.546871101264514
27,22,female,34,165,215,change,valid,clock,1,0,1,0.8031352168923149,0,f,same,0.9669951680532449,0.668353195295585,0.5001023092381729,0.03526172884016887,0.35337707079997926,1.0010352796889492,5.710050166805786
27,22,female,35,75,125,change,valid,clock,2,0,1,0.8543642426966471,0,f,same,3.064799592558984,0.696476770737499,0.49972129552361366,0.03534158777529228,0.3533084370162669,1.0010558056803802,7.864957578548683
27,22,female,36,105,105,same,valid,clock,5,2,1,0.6331617274931887,0,j,change,1.788772475158794,0.7439905721939684,0.4996064782594658,0.03534768142890243,0.3532869488690267,1.0010686344251098,6.438845374499806
27,22,female,37,75,75,same,valid,clock,4,2,1,1.6568734168527044,0,j,change,0.16237855187841888,0.7954759905348845,0.500125080259977,0.035318816753488136,0.3532814966526985,1.0010487498709608,5.650390731488642
27,22,female,38,105,55,change,valid,anti,5,2,1,0.6507868189780766,0,j,change,1.7857426464031505,0.847282391394915,0.5001209109179854,0.03528385842469106,0.35334660253147376,1.0010695965806917,6.33348898876784
27,22,female,39,105,155,change,valid,clock,4,2,1,1.4766526469870769,0,j,change,0.19231346524293258,0.896510203964477,0.5004406673770063,0.0353550579570765,0.3532843831203536,1.001050353464052,5.473865602222986
27,22,female,40,45,355,change,valid,anti,4,0,1,0.43520938756228134,0,j,change,2.0345330561469837,0.724161117731364,0.5006975629876251,0.03527840620813549,0.3533241522284243,1.0010968576630148,6.428898607375459
27,22,female,41,15,15,same,valid,anti,1,1,1,0.5638903552855936,0,j,change,2.247477067015552,0.6777209348591451,0.4998001923029278,0.03535986873635011,0.35329592899029194,1.0010676722690732,6.768843341143793
27,22,female,42,135,85,change,catch,anti,5,2,1,2.2082442002849803,0,j,change,1.3865153216904673,0,0.5002200129697485,0.03531432669296919,0.3533164549817229,1.0010461841220604,9.07760684901018
27,22,female,43,45,45,same,valid,clock,5,2,1,1.3042817859407023,0,j,change,1.2416031055824988,0.9441529336879675,0.500791854260342,0.03532843831203536,0.35331260635825856,1.0009935862690327,6.523144017411369
27,22,female,44,75,125,change,valid,clock,4,1,1,0.8928293090630177,0,f,same,1.4152202791663058,0.7176543456076121,0.49941661283924077,0.035259804528323,0.35336039343201264,1.0010606164596538,6.238377638471775
27,22,female,45,15,15,same,catch,anti,4,0,1,0.9346170202802568,0,f,same,1.7673545653331075,0,0.5005519567364445,0.03531464741149648,0.35331228563973127,1.001103913472889,8.14786058233517
27,22,female,46,165,165,same,valid,anti,5,0,1,0.510993913402217,0,j,change,1.4951850514337366,0.7496506008692312,0.5000914048052891,0.03533453196564551,0.3532885524621179,1.0010641443643635,6.274723075511929
27,22,female,47,75,125,change,valid,clock,1,2,1,0.5762255139354693,0,j,change,1.0172046293807853,0.9880109539364186,0.5001719051774671,0.03528738632940076,0.3533459610941918,1.0010317517842395,5.591686716925324
27,22,female,48,105,55,change,valid,anti,1,0,1,0.5379156753790539,0,j,change,1.0161122617782894,0.775361316114658,0.49956767130720436,0.035292838545728955,0.3533199828864326,1.0010683137063552,5.485075038534205
27,22,female,49,165,165,same,catch,anti,3,1,1,0.3505255615943952,0,j,change,2.984281259962245,0,0.49967671563626936,0.03532362753276175,0.35335365834089316,1.0010282238795298,8.794320586478989
27,22,female,50,105,105,same,valid,clock,1,1,1,0.4276227887253299,0,j,change,2.6350568537889103,0.7561368999382108,0.5005885186583328,0.035336456277264006,0.35331453066987706,1.0010779352649024,7.0288380557012715
27,22,female,51,165,115,change,valid,anti,3,2,1,1.2185062338078296,0,f,same,3.87766477079208,1,0.5067896130785812,0.03531817531643355,0.35333345306821684,1.0010413733427868,8.943712279481815
27,22,female,52,45,95,change,valid,clock,1,0,1,0.34820836960125234,0,j,change,1.4340993804357822,0.8012057559052859,0.49898428414644513,0.035340946338010326,0.3533061919861211,1.0010500327452974,5.649154040509302
27,22,female,53,45,355,change,valid,anti,2,2,1,1.016990710064647,0,j,change,2.92854774121065,1,0.5006401543555512,0.035308874476640995,0.3533183792933414,1.0010788974207117,7.87695213402958
27,22,female,54,15,325,change,valid,anti,3,2,1,0.5559618704053264,0,j,change,4.940832867756853,1,0.5001741502080677,0.03537430107394357,0.3532930425226368,1.0010397697496956,9.442856281498734
27,22,female,55,135,135,same,valid,anti,1,1,1,0.537999703656169,0,j,change,1.52549424342169,0.793675130808144,0.49995445795684645,0.03531689244186964,0.35330779557898495,1.001037204000795,5.921406620530206
27,22,female,56,45,45,same,valid,anti,1,0,1,1.5298316419700768,0,j,change,0.09406292114363168,0.825440961037895,0.4995891594542172,0.03531817531643355,0.35328759030630863,1.0010285445980571,5.4732745178155255
27,22,female,57,45,355,change,valid,anti,2,0,1,0.7234677507810829,0,j,change,2.503768443725903,0.8501170157166043,0.5004329701300776,0.03533068334240852,0.3533257558215155,1.001004811420671,7.122960630507123
27,22,female,58,105,105,same,valid,anti,1,0,1,0.4976872980676035,0,j,change,1.865069830064158,0.8735149975295868,0.500444836718998,0.035328759030790025,0.35329945689500164,1.0010250166933474,6.2279299088709195
27,22,female,59,165,215,change,valid,clock,4,1,1,0.4733890143611461,0,j,change,2.2278471634683683,0.8282001830186982,0.5003091727448918,0.03535120933361213,0.3532901560552091,1.0010359211262312,6.5228502391598795
27,22,female,60,165,215,change,catch,clock,2,1,1,0.3556933006370855,0,j,change,2.0364236923821863,0,0.4995089798005665,0.035306950164795126,0.3533353773800627,1.0010519570569159,7.7696826617593615
27,22,female,61,135,185,change,valid,clock,1,0,1,2.1471072143087895,0,j,change,2.86289632001035,0.8958717806366006,0.5002366903379425,0.0353175338791516,0.35332607654027015,1.0010307896286577,8.99571391642985
27,22,female,62,75,25,change,valid,anti,3,2,1,0.7120431122791615,0,j,change,1.4061163605620095,1,0.4994647206317495,0.03535794442473161,0.35331934144915067,1.0010519570569159,5.9683421862359864
27,22,female,63,45,45,same,valid,clock,2,0,1,0.5411241444030566,0,j,change,3.9078828786932718,0.9190323738691282,0.4990599737395769,0.03535409580126725,0.3533084370162669,1.0010487498707334,8.35813268642255
27,22,female,64,75,75,same,valid,anti,2,1,1,1.285958810749662,0,j,change,1.3133039212982567,0.8629874082570193,0.500456061870409,0.03532170322114325,0.3532859867134448,1.001077935264675,6.451880982604962
27,22,female,65,45,355,change,valid,anti,5,1,1,0.7434972697224111,0,j,change,1.316104756962659,0.8957076478674453,0.5001972419481717,0.03529315926448362,0.353315172107159,1.0010644650831182,6.015875892158874
27,22,female,66,165,165,same,catch,clock,5,2,1,0.5843579758550277,0,j,change,1.79845913948634,0,0.4996032710732834,0.03531689244186964,0.3533065127046484,1.0010352796891766,7.770370282469685
27,22,female,67,165,165,same,catch,clock,1,0,1,0.5028973719674923,0,j,change,1.6590283252267,0,0.49994964717757284,0.03532426896981633,0.35330041905103826,1.0010465048405877,7.581966377143317
27,22,female,68,165,215,change,valid,clock,2,1,1,0.4451830950499698,0,j,change,0.9399342141978195,0.929163716773074,0.500428159350804,0.03535698226869499,0.35326000850545825,1.0010718416110649,5.239091878827367
27,22,female,69,45,45,same,valid,clock,3,0,1,0.4251478031737861,0,j,change,2.5475106141825563,0.9412672952906951,0.49919146837169137,0.03534511568000198,0.3533020226439021,1.0010551642433256,6.710171719160826
27,22,female,70,135,135,same,valid,anti,5,1,1,0.5854952440636225,0,f,same,1.891049641468726,0.9610293903276088,0.49906542595613246,0.03533068334240852,0.35330266408118405,1.001079859576521,6.238263462644909
27,22,female,71,135,85,change,valid,anti,4,1,1,0.4535057431082805,0,j,change,1.8709296798779178,0.9917300318270128,0.5004339322861142,0.03532715543747145,0.3532487833540472,1.0010625407714997,6.1218259280474285
27,22,female,72,135,135,same,valid,anti,3,2,1,0.48877324488353224,0,j,change,1.068297670492484,1,0.5003354716711783,0.03526237027745083,0.3533068334231757,1.0011106485635537,5.320728557234588
27,22,female,73,105,105,same,valid,anti,2,2,1,3.8998341243325285,0,f,same,2.1616851582330128,1,0.5006577938793271,0.03530951591369558,0.35329945689500164,1.0010772938276205,9.809040288030928
27,22,female,74,135,185,change,valid,clock,1,1,1,0.8125993025012122,0,j,change,1.1693570682211885,1,0.4997184090561859,0.03532555184460762,0.3533167757002502,1.001081463169612,5.791910065368938
27,22,female,75,105,55,change,valid,anti,2,2,1,1.059369184970592,0,j,change,0.981732829847715,1,0.49937267438917843,0.035329079749317316,0.35330266408118405,1.0010651065201728,5.838284052780182
27,22,female,76,75,75,same,valid,anti,4,2,1,0.7139671032500701,0,f,same,1.1878667016462714,1,0.5003576012557005,0.035330683342181146,0.3533061919861211,1.0010516363383886,5.697938869749123
27,22,female,77,75,125,change,valid,clock,5,1,1,0.5637437868786037,0,j,change,0.8284322183658333,1,0.500322642926676,0.035356340831413036,0.35326032922398554,1.001100385567952,5.214918354662359
27,22,female,78,75,75,same,catch,clock,5,0,1,0.7704879862014877,0,f,same,4.2891162855139555,0,0.5001340603810149,0.0354281818013078,0.35320741065243055,1.0010445805289692,10.408724123620232
27,22,female,79,135,85,change,valid,anti,1,0,1,0.811369025894237,0,j,change,1.7117980832572357,0.9627571846873164,0.5004111612643101,0.035306950164795126,0.3533405088778636,1.0010250166933474,6.322147416386997
27,22,female,80,15,15,same,valid,anti,4,0,1,0.46517059985285414,0,j,change,3.084518976599611,0.9836477133311596,0.5003094934634191,0.03536243448525056,0.3532776480294615,1.0010583714292807,7.346852692015773
27,22,female,81,105,155,change,valid,clock,5,2,1,0.38545727097971394,0,f,same,1.5465600042077767,1,0.4994390631425176,0.0353550579570765,0.3532737994059971,1.0010881982605042,5.732189052077501
27,22,female,82,75,25,change,valid,anti,5,1,1,0.43637423757172655,0,j,change,1.6381011148821472,1,0.500137588285952,0.03535730298722228,0.3532814966526985,1.0009647215938458,5.945550638582745
27,22,female,83,45,45,same,valid,anti,3,2,2,3.3505476911789174,1,j,change,3.338303937334331,1,0.5110978262334811,0.03526782249377902,0.3533616763063492,1.001057729992226,10.478522436512094
27,22,female,84,105,55,change,valid,anti,2,1,1,1.3768639364104729,0,j,change,0.8345342107338638,1,0.4998758818960596,0.03534768142890243,0.3532811759341712,1.0010307896284303,6.203559142757513
27,22,female,85,105,105,same,catch,clock,5,1,1,0.7546868214797087,0,j,change,2.5550523124131814,0,0.5006391921995146,0.03527423686614384,0.3533424331894821,1.0010651065201728,8.806971973683176
27,22,female,86,15,15,same,valid,clock,4,1,1,0.7421720604054372,0,j,change,1.6789109550422836,1,0.5003486211344352,0.0353261932816622,0.353287590306536,1.0010936504770598,6.275545077322022
27,22,female,87,15,65,change,valid,clock,3,2,1,0.5348993168051948,0,j,change,2.7593981779332353,1,0.49912187243216977,0.03531689244186964,0.35331260635825856,1.0010580507107534,7.216195135468297
27,22,female,88,105,55,change,valid,anti,3,1,1,0.47788003712639693,0,j,change,1.2876586194090578,1,0.49942014074417784,0.035352492208176045,0.35330779557898495,1.001063502927309,5.556305360041961
27,22,female,89,165,115,change,catch,anti,3,0,1,0.5852585537259074,0,f,same,1.4000807569473182,0,0.49973733145429833,0.035290593515355795,0.35333794312896316,1.0010586921480353,7.475948669627087
27,22,female,90,45,45,same,valid,clock,3,1,1,0.9024316243949215,0,f,same,1.4040679307684059,1,0.5002113535672379,0.03531176094406874,0.3533004190508109,1.0010830667627033,6.169071628654137
27,22,female,91,75,75,same,valid,anti,5,0,1,0.33452523061259853,0,j,change,1.724563004851234,1,0.4998502244068277,0.03531593028606039,0.3533183792933414,1.0010359211264586,5.862627557811265
27,22,female,92,165,165,same,valid,clock,3,1,1,0.46868054437504725,0,j,change,1.3415364602542468,1,0.4993361124670628,0.03535762370597695,0.35330234336265676,1.0010606164596538,5.579235458136964
27,22,female,93,135,185,change,valid,clock,3,0,1,0.8303882811983385,0,j,change,2.901921681796921,1,0.5000798589351234,0.03530759160184971,0.3532866281504994,1.00105933358509,7.65282915511807
27,22,female,94,135,135,same,valid,anti,5,0,1,0.6196110452924586,0,f,same,1.0753570079261863,1,0.5001966005108898,0.03533581484020942,0.3533241522284243,1.0010311103469576,5.461896383512794
27,22,female,95,15,325,change,valid,anti,2,1,1,1.1260661488556707,0,f,same,0.8604290317055074,1,0.5002296345282957,0.035254031593467516,0.35335013043641084,1.0010644650828908,5.81545209458136
27,22,female,96,105,105,same,valid,clock,2,1,1,0.9946013435544501,0,j,change,0.9733453966296111,1,0.5004021811432722,0.035309195195168286,0.35329753258338314,1.0010699172994464,5.803859720243736
27,22,female,97,75,75,same,valid,clock,4,1,1,1.0920908223802144,0,j,change,0.10443047109060899,1,0.5002764594460132,0.03532170322114325,0.35331100276539473,1.0010500327455247,5.1207107894231285
27,22,female,98,165,115,change,valid,anti,3,1,1,0.5353675659830515,0,j,change,0.9818373841162611,1,0.5003306608919047,0.0353156095675331,0.353327038695852,1.001042335498596,5.473831926768526
27,22,female,99,75,125,change,valid,clock,3,0,1,0.6811967166111117,0,j,change,1.1497634058778203,1,0.5004076333596004,0.03531208166259603,0.35329047677396375,1.0010525984941978,5.697688388510642
27,22,female,100,165,165,same,valid,anti,5,2,1,1.7886672794529659,0,j,change,1.1737906823545927,1,0.5005509945806352,0.03529412142029287,0.35334147103367286,1.0010606164596538,6.710843945377746
27,22,female,101,15,15,same,catch,clock,1,0,1,0.48626298028420933,0,f,same,0.1453406961775272,0,0.5086754385347376,0.03537077316923387,0.35331581354444097,1.0010574092736988,5.976677663038799
27,22,female,102,45,45,same,valid,clock,4,1,1,0.4630426318426544,0,j,change,0.16642505864342638,1,0.5005471459569435,0.035303422260085426,0.3532949668344827,1.0010304689096756,4.426541966992772
27,22,female,103,45,45,same,valid,anti,1,1,1,1.601963182785994,0,f,same,1.5293544126711822,1,0.499228030293807,0.035340946338010326,0.3533251143844609,1.0010442598104419,7.063264953986618
27,22,female,104,75,25,change,catch,anti,4,0,1,0.4523322336963247,0,j,change,1.020832277634554,0,0.49941500924637694,0.03532940046784461,0.3533206243237146,1.001029186035339,6.75728015220011
27,22,female,105,75,75,same,catch,clock,1,2,1,1.0356360074636086,0,j,change,0.8652234542805672,0,0.499947722865727,0.03532138250261596,0.3533802779861617,1.0010638236458362,7.2169731988281
27,22,female,106,75,75,same,valid,clock,5,0,1,0.3741288480621279,0,j,change,1.5729705407125039,1,0.5004438745631887,0.03535185077089409,0.3532112592758949,1.001113855749736,5.792157018702483
27,22,female,107,105,105,same,valid,clock,1,0,1,0.4673874069194426,0,j,change,0.9869044175140971,1,0.4997629889435302,0.035296366450438654,0.35333120803807105,1.001030468909903,5.320276343987416
27,22,female,108,15,15,same,valid,clock,1,0,1,0.5341081039819073,0,j,change,2.0422527532089134,1,0.49983803709938,0.035376225385562066,0.3532574427565578,1.001042976935878,6.451197531236403
27,22,female,109,45,45,same,catch,clock,4,2,1,0.4823954345063157,0,j,change,0.9040791559200443,0,0.500270365792403,0.0353277968747534,0.35327027150106005,1.0010785767021844,6.722902323862854
27,22,female,110,45,45,same,valid,clock,4,2,1,0.6974003831944628,0,j,change,0.13938559293501385,1,0.500032392580124,0.03536500023392364,0.3532933632413915,1.0010981405375787,4.650075144371385
27,22,female,111,135,135,same,valid,clock,2,1,1,0.9354294005320298,0,j,change,1.3273943729277562,1,0.4991744702849701,0.035296366450438654,0.3533491682803742,1.0010487498707334,6.121302515267871
27,22,female,112,15,65,change,catch,clock,3,2,1,0.6833705473832197,0,j,change,2.3654944615102522,0,0.4996109683202121,0.03532555184438024,0.35332479366570624,1.0010465048405877,8.452877776060177
27,22,female,113,165,215,change,valid,clock,4,0,1,0.5993060290609264,0,j,change,1.2934799829890835,1,0.5001298910390233,0.0353140059744419,0.3532859867132174,1.001082746044176,5.921524644980536
27,22,female,114,75,75,same,valid,anti,5,1,1,0.32786198066833094,0,f,same,1.7671018390647077,1,0.4995166770472679,0.03533517340292747,0.3532689886267235,1.001069596580919,5.944118950685606
27,22,female,115,135,135,same,catch,clock,3,0,1,0.8381701976716158,0,j,change,1.727926701684737,0,0.49994611927263577,0.03531208166259603,0.3533170964190049,1.0010439390916872,7.994318469736072
27,22,female,116,15,15,same,valid,clock,4,0,1,0.595894224435142,0,j,change,4.262845261607026,1,0.5002847981299965,0.03533196621697243,0.35330779557898495,1.001053560650007,8.760179127760921
27,22,female,117,75,25,change,valid,anti,4,2,1,0.5891565677720791,0,j,change,2.359633649540683,1,0.500032392580124,0.03532523112585295,0.3533385845662451,1.00104971202677,7.016908926817905
27,22,female,118,15,65,change,valid,clock,5,1,1,0.3268080992995692,0,j,change,1.5340943130815958,1,0.4994515711682652,0.03532940046784461,0.3532792516223253,1.001082104606894,5.74424037475319
27,22,female,119,105,155,change,valid,clock,5,0,1,0.9727655373735615,0,f,same,1.8903216102128226,1,0.5001311739135872,0.035316571723114976,0.3533068334234031,1.0010250166933474,6.722849405291527
27,22,female,120,75,125,change,valid,clock,4,2,1,0.3897244321517519,0,j,change,2.732671092155897,1,0.49962924928126995,0.03533068334240852,0.3533013812068475,1.0010612578969358,6.992737647682816
27,22,female,121,165,115,change,valid,anti,4,1,1,0.4668203764081227,0,j,change,1.4935824205147128,1,0.49956350196498533,0.03526974680562489,0.3533526961850839,1.0010683137063552,5.732217596034388
27,22,female,122,165,115,change,valid,anti,5,2,1,0.48534283857793525,0,f,same,3.088782930585694,1,0.5001892239827157,0.0353140059744419,0.35326449856620457,1.0011087242519352,7.3585534692454075
27,22,female,123,75,75,same,valid,clock,1,1,1,0.2547429472372187,0,j,change,1.0197588324303979,1,0.49969756234600027,0.035283537705936396,0.3533296044447525,1.0010442598102145,5.096407694937625
27,22,female,124,45,45,same,valid,anti,2,2,1,0.48613950361755087,0,f,same,1.6859061487532472,1,0.5004541375587905,0.035317213160624306,0.35331645498149555,1.0010712001740103,5.898829633630157
27,22,female,125,15,65,change,catch,clock,2,2,1,0.4281808391153845,0,f,same,1.0766225635809406,0,0.4995878765798807,0.03529444213882016,0.35332126576099654,1.0010481084336789,6.862733394954148
27,22,female,126,105,155,change,valid,clock,3,0,1,0.532535941331389,0,f,same,0.8515162613960001,1,0.5008470178620428,0.03527487830319842,0.35333666025439925,1.0010596543038446,5.392052849296306
27,22,female,127,45,95,change,valid,clock,2,0,1,0.38878665092170195,0,f,same,1.241489891911442,1,0.5004627969615285,0.035304384415894674,0.3533283215706433,1.0010744073601927,5.450910488076033
27,22,female,128,105,105,same,catch,clock,1,1,1,0.5164188687740534,0,j,change,0.9900676652134734,0,0.5000346376104972,0.03535602011311312,0.3533183792935688,1.0010663893947367,6.839820615664166
27,22,female,129,135,185,change,catch,clock,4,0,1,0.3541070263677284,0,j,change,0.5939112212388409,0,0.5000888390563887,0.03531817531620618,0.3533164549817229,1.0010407319055048,6.310496029824208
27,22,female,130,135,85,change,catch,anti,5,1,1,0.39336138124531317,0,j,change,0.9514175442063788,0,0.5000599743809744,0.03533228693527235,0.35332800085188865,1.001067351550546,6.734063331663265
27,22,female,131,135,185,change,valid,clock,2,0,1,0.8285005314307909,0,j,change,1.3197728157620077,1,0.4997854392465797,0.03532940046784461,0.35329272180410953,1.0010686344251098,5.944427161274689
27,22,female,132,105,105,same,valid,clock,4,0,1,0.6735312209948461,0,j,change,0.8721512970823824,1,0.49998396406931533,0.035352492208176045,0.35333377378674413,1.0010400904682228,5.438309774412801
27,22,female,133,165,165,same,catch,clock,5,0,1,0.5665471882921338,0,j,change,1.803913280252118,0,0.499931366216515,0.03527840620813549,0.3533389052847724,1.0010689551436371,7.746344288867476
27,22,female,134,135,135,same,valid,clock,4,0,1,0.9134739663079472,0,j,change,0.9812187179079501,1,0.5009929448317507,0.03532715543747145,0.35330587126736646,1.0010529192129525,5.699197690312985
27,22,female,135,75,75,same,catch,clock,4,2,1,0.3614803473253687,0,j,change,0.6120369544817095,0,0.49916998022445114,0.0352851412990276,0.3533424331894821,1.001062220052745,6.297351056671687
27,22,female,136,45,45,same,catch,anti,5,2,1,0.34875808130732366,0,j,change,1.4800869019159109,0,0.49989801148058177,0.035319778909297384,0.3532773273107068,1.0010824253254214,7.310507575694373
27,22,female,137,165,165,same,valid,anti,2,1,1,0.41584952908874584,0,j,change,0.750565907995906,1,0.5009073129617718,0.035312723099877985,0.35332479366570624,1.0010275824422479,5.098005835795902
27,22,female,138,15,15,same,valid,clock,1,2,1,0.674966757515449,0,j,change,4.169545971485604,1,0.4993425268394276,0.03533068334240852,0.3532593670681763,1.0010567678361895,8.78317240742308
27,22,female,139,75,25,change,catch,anti,2,0,1,0.4948938389311479,0,j,change,2.4700817640036803,0,0.4988864649687912,0.03531977890952476,0.35331100276516736,1.0010343175333674,8.252145447174826
27,22,female,140,15,65,change,valid,clock,4,0,1,0.6554641792586153,0,j,change,2.267549241532606,1,0.5004397052209697,0.03530759160207708,0.35329240108558224,1.0010885189792589,7.088071255979003
27,22,female,141,15,15,same,catch,clock,5,0,1,0.6282313202252681,0,j,change,1.2164375987413223,0,0.4998245669178232,0.03532170322114325,0.35331068204664007,1.00105933358509,7.357811647088965
27,22,female,142,105,155,change,catch,clock,4,2,1,0.3142554934288455,0,j,change,1.9115724256398607,0,0.5001459269699353,0.035320741065334005,0.35325648060074855,1.0011164214986366,7.6175837829273405
27,22,female,143,15,15,same,valid,clock,3,1,1,0.3459902796601,0,j,change,1.5680026093666584,1,0.49973733145429833,0.03530983663245024,0.35330907845354886,1.001079218139239,5.779487671255765
27,22,female,144,135,185,change,valid,clock,3,2,1,5.03816711877289,0,j,change,1.5124502966327782,1,0.5000234124588587,0.03530021507390302,0.35332768013336135,1.0010391283124136,10.337472955402745
27,22,female,145,165,165,same,valid,clock,3,2,1,0.5487954129541777,0,j,change,1.7599084412497632,1,0.500003848623237,0.03530983663245024,0.3533164549817229,1.0010202059140738,6.20420731507852
27,22,female,146,45,355,change,valid,anti,3,2,1,0.6774904922965561,0,j,change,1.6859083937836203,1,0.4998078895496292,0.035333890528363554,0.35330394695574796,1.0010618993339904,6.203647661095374
27,22,female,147,105,105,same,catch,anti,5,2,1,0.5456648785534526,0,j,change,2.817016239266195,0,0.5002774216018224,0.035326834718944156,0.3533061919861211,1.0010432976544053,8.783772792670106
27,22,female,148,15,15,same,valid,anti,1,2,1,0.29892257788492316,0,j,change,1.0263367712232139,1,0.49964656808629115,0.035370131731951915,0.3533052298300845,1.0010519570571432,5.17946964686962
27,22,female,149,15,65,change,valid,clock,3,0,1,0.5247838516893353,0,j,change,1.875751684253828,1,0.49969082725510816,0.03535345436398529,0.3533119649209766,1.0010327139402762,6.250784317372791
27,22,female,150,75,125,change,valid,clock,2,1,1,0.40302912317451955,0,j,change,1.0638409646189757,1,0.49974021792195344,0.03535794442473161,0.35328213808975306,1.0010760109530565,5.320261590931068
27,22,female,151,135,185,change,catch,clock,3,2,1,0.274819611815019,0,j,change,0.7862978103257774,0,0.4998636945886119,0.03527712333357158,0.35333505666130804,1.0010721623298195,6.510197248362374
27,22,female,152,45,45,same,valid,clock,3,2,1,0.48678029941015666,0,f,same,0.8147086688318268,1,0.4997722897833228,0.03533421124711822,0.35333890528454504,1.0010246959748201,5.0854827360376476
27,22,female,153,75,75,same,catch,clock,5,2,1,0.2828520095265503,0,j,change,1.6015084037899214,0,0.4992216159216696,0.03531528884877844,0.3532792516223253,1.001077935264675,7.298355226655076
27,22,female,154,135,185,change,valid,clock,1,2,1,0.36437483282543326,0,f,same,0.9832366794330483,1,0.5000288646754143,0.03530310154110339,0.35328726958778134,1.0010824253254214,5.2384623081859445
27,22,female,155,165,165,same,valid,anti,2,2,1,0.555235442742287,0,j,change,0.9021962169317703,1,0.4997594610390479,0.03532875903056265,0.35328566599446276,1.0010670308320186,5.320459474316522
27,22,female,156,105,105,same,catch,clock,5,2,1,0.8130152745443411,0,j,change,1.1180119422783719,0,0.49971199468336636,0.03536211376695064,0.3532850245574082,1.0010449012474965,7.369390871963333
27,22,female,157,15,65,change,valid,clock,4,2,1,0.23737218561382178,0,j,change,0.8215839137806142,1,0.5007799876711942,0.03530021507413039,0.35332479366570624,1.0010599750225992,4.979992610642967
27,22,female,158,165,215,change,catch,clock,3,0,1,0.5545340311314249,0,j,change,0.9059858280857043,0,0.4997475944501275,0.03533966346367379,0.3532324267043805,1.0011042341911889,6.851446024019424
27,22,female,159,15,65,change,valid,clock,1,0,1,0.3327458837370614,0,j,change,1.4637315354275415,1,0.49990346369713734,0.03537526322998019,0.35332832157018856,1.0010609371779537,5.756497598779788
27,22,female,160,165,165,same,catch,anti,3,1,1,0.4052558725184099,0,j,change,0.6773173042447524,0,0.5002273894979226,0.035334531965872884,0.35327412012429704,1.0010558056806076,6.404881273175761
27,22,female,161,165,215,change,valid,clock,3,0,1,0.25309124637033165,0,f,same,0.4858235957817669,1,0.4994230272113782,0.03540092071898471,0.3532882317435906,1.0010420147800687,4.554457058663957
27,22,female,162,15,325,change,valid,anti,5,2,1,0.3436313942470406,0,f,same,0.7399235021957793,1,0.49982232188722264,0.03532042034657934,0.35333954672205437,1.0010439390916872,4.885152909013868
27,22,female,163,105,105,same,valid,anti,5,0,1,0.32519103604317934,0,j,change,0.6286004673511343,1,0.499972418199377,0.03535666154994033,0.35330939917230353,1.0010352796889492,4.861882528468868
27,22,female,164,15,325,change,valid,anti,1,0,1,0.5294153492081932,0,f,same,0.9670028652999463,1,0.49912540033710684,0.035310157350977533,0.353388616670145,1.001050674182352,5.367299465875021
27,22,female,165,75,125,change,valid,clock,5,2,1,0.37097201473488894,0,j,change,0.46436367181740934,1,0.499902822259628,0.03531272309965061,0.35332158647952383,1.0010436183729325,4.696726232665696
27,22,female,166,75,125,change,valid,clock,1,0,1,0.248226265699941,0,j,change,1.1810180763422977,1,0.49924053832000936,0.035362113766495895,0.3533222279165784,1.0010567678364168,5.355098046887633
27,22,female,167,45,95,change,valid,clock,3,0,1,0.3594059393240059,0,j,change,1.093171644112772,1,0.5002033356022366,0.035342229212346865,0.35329432539720074,1.0010330346590308,5.332587769459678
27,22,female,168,75,75,same,valid,anti,1,1,1,0.6244368982920605,0,f,same,0.5066000683773382,1,0.5002694036365938,0.035313043818405276,0.35332800085188865,1.0010490705899429,4.885768688754979
27,22,female,169,15,15,same,valid,clock,5,1,1,0.3573424357555268,0,f,same,0.9099662668158999,1,0.49966452832904906,0.03531368525545986,0.35330202264412947,1.0010670308320186,5.0967120569034705
27,22,female,170,135,135,same,valid,clock,3,0,1,0.5719958768413562,0,j,change,0.7782897872289141,1,0.5001359846928608,0.035324589688570995,0.35330587126736646,1.0010202059143012,5.308799107632694
27,22,female,171,135,135,same,valid,anti,3,0,1,0.5012087884597349,0,j,change,0.38139697331416755,1,0.5004008982687083,0.03532042034657934,0.3533225486353331,1.0010452219662511,4.8496971454119375
27,22,female,172,135,185,change,valid,clock,4,1,1,0.6463224158578669,0,j,change,0.74549887459807,1,0.5005869150650142,0.0352800098012267,0.3533459610944192,1.0010583714297354,5.297833096749855
27,22,female,173,105,55,change,valid,anti,4,0,1,0.46215584487208616,0,j,change,0.7518378780232524,1,0.5001872996713246,0.0352973286062479,0.3532972118646285,1.0010766523905659,5.132818237856554
27,22,female,174,105,105,same,valid,clock,5,0,1,2.585339054097858,0,j,change,0.9557142114908856,1,0.49997049388730375,0.03534415352396536,0.353311323483922,1.0010548435243436,7.381999603591794
27,22,female,175,105,105,same,catch,clock,4,1,1,0.3516137598548994,0,j,change,2.0740901693970955,0,0.49959364951473617,0.03531432669296919,0.3533347359430081,1.0010602957408992,7.793522959283564
27,22,female,176,135,85,change,catch,anti,1,1,1,0.9180496587873677,0,f,same,6.519038177702441,0,0.5004797950482498,0.03538167760189026,0.3532712336568693,1.001041694061314,12.74128046265605
27,22,female,177,135,85,change,valid,anti,4,2,1,0.3337093224563432,0,j,change,0.8660323066274032,1,0.49943072445830694,0.03534383280566544,0.3532831002457897,1.001086915385713,5.049414079162034
27,22,female,178,135,85,change,catch,anti,2,2,1,0.22574100432393607,0,j,change,0.7557102345799649,0,0.4996988452203368,0.03532009962827942,0.35330715414193037,1.0010461841220604,6.3684004928804825
27,22,female,179,165,165,same,valid,anti,3,2,1,3.5288258683935965,0,j,change,0.6813785640661081,1,0.5000987813332358,0.03531111950678678,0.35329400467844607,1.0011151386243,8.100630917659146
27,22,female,180,165,115,change,valid,anti,2,1,1,0.5946546469881469,0,j,change,1.1513009309178415,1,0.4998216804497133,0.035368207420106046,0.3533212657612239,1.0010432976541779,6.038810159595869
27,22,female,181,135,135,same,valid,clock,1,2,1,0.3771346229214032,0,j,change,1.749750320558178,1,0.49969756234622764,0.03533741843330063,0.35329528755301,1.0010384868751316,6.062102349007546
27,22,female,182,135,85,change,catch,anti,4,0,1,0.24762972907592484,0,f,same,0.4238466477527254,0,0.4998909556707076,0.03525114512603977,0.3533648834923042,1.0010618993342177,5.9682135780713
27,22,female,183,45,95,change,valid,clock,5,0,1,0.376038406695443,0,f,same,0.39220454920132397,1,0.5007023737671261,0.03530823303890429,0.3532885524618905,1.0010907640094047,4.5320917460499
27,22,female,184,15,65,change,valid,clock,1,2,1,0.3220669160145917,0,f,same,1.7796477098445393,1,0.49992270681377704,0.03526493602657865,0.3533722600204783,1.0010558056806076,5.921279936677365
27,22,female,185,75,75,same,valid,clock,5,2,1,0.3675685487928604,0,j,change,0.9950086561957505,1,0.4997091082159386,0.03535473723832183,0.3533036262369933,1.0010339968143853,5.214298405579484
27,22,female,186,135,135,same,catch,clock,5,0,1,0.37662083170062033,0,f,same,0.5417232467757458,0,0.500326491549913,0.03532715543769882,0.35328213808998044,1.0010606164596538,6.215737790723324
27,22,female,187,75,75,same,catch,anti,5,0,1,0.40799320589712806,0,j,change,0.4669021596546372,0,0.5008960878103608,0.03532426896981633,0.35328759030608126,1.0010766523905659,6.299156702473738
27,22,female,188,45,45,same,valid,anti,5,1,1,0.2820033880716437,0,f,same,0.8176252839161862,1,0.5004332908488323,0.03535345436375792,0.35327315796894254,1.0010513156198613,4.991033669681656
27,22,female,189,165,165,same,valid,clock,5,0,1,0.49204521619321895,0,j,change,1.0873862010175799,1,0.5000336754546879,0.03529893219956648,0.35334724396852835,1.0010567678364168,5.5092341303616195
27,22,female,190,75,75,same,valid,clock,1,0,1,1.0167816015277822,0,j,change,0.6680838153197328,1,0.4996796021036971,0.03536243448525056,0.3532471797607286,1.0010984612563334,5.591337133635079
27,22,female,191,165,165,same,valid,clock,4,2,1,0.35100631879822686,0,j,change,1.93132965447694,1,0.5001940347619893,0.03535794442450424,0.3532737994059971,1.0010477877149242,6.168870538082501
27,22,female,192,15,15,same,catch,clock,4,1,1,2.246753525820168,0,j,change,1.282976127630718,0,0.5000256574890045,0.03534158777529228,0.3532635364103953,1.0010788974204843,9.053692465486165
27,22,female,193,15,15,same,valid,anti,2,1,1,0.5386465931023849,0,j,change,1.069687023532424,1,0.5008143045633915,0.03529380070131083,0.35332832157018856,1.00105933358509,5.462941284760291
27,22,female,194,75,75,same,catch,clock,5,2,1,0.3637019651710034,0,j,change,1.4835820933817558,0,0.500036241203361,0.0353460778360386,0.3532298609557074,1.001060295741354,7.228756080023231
27,22,female,195,135,85,change,valid,anti,4,0,1,0.3677609799624406,0,f,same,0.7311390193326588,1,0.49996792813863067,0.03532715543769882,0.35328470383910826,1.0010349589701946,5.01466036860802
27,22,female,196,165,165,same,valid,anti,3,0,1,0.35437418497349427,0,j,change,1.0461167710823247,1,0.49946439991299485,0.03534030490072837,0.35323980323255455,1.0010936504768324,5.3431522406363
27,22,female,197,105,105,same,valid,anti,4,2,1,0.2979575355725501,0,f,same,1.2492086268175626,1,0.5003059655587094,0.035348964303466346,0.35332286935408774,1.0010481084336789,5.450352116967224
27,22,female,198,45,95,change,valid,clock,1,1,1,0.22140200218200334,0,j,change,2.446286046367277,1,0.5003287365802862,0.03527936836371737,0.35336744924143204,1.0010125086673725,6.522698539255089
27,22,female,199,75,75,same,valid,clock,2,0,1,0.19970763291075855,0,j,change,0.6016142409330314,1,0.49992206537672246,0.03534351208691078,0.35330907845354886,1.0010570885547168,4.6848262891762715
27,22,female,200,75,25,change,valid,anti,5,2,1,0.37458426849525495,0,j,change,2.1922615088269595,1,0.5001298910392507,0.035326193281434826,0.3533023433624294,1.00103431753314,6.41592810514976
27,22,female,201,45,45,same,valid,clock,2,2,1,2.0774403960490417,0,j,change,0.14968418837997888,1,0.5015856328323025,0.035306308727285796,0.35331420995134977,1.001062540771727,6.087855733069773
